time,acc_x,acc_y,acc_z,mag_x,mag_y,mag_z,gyr_x,gyr_y,gyr_z
1588959883.942132,0.58,-2.38,-9.66,-0.5422222222222223,0.16111111111111112,0.7055555555555556,0.0,1.0625,1.4375
1588959883.952132,0.5987786259541985,-2.370610687022901,-9.631832061068703,-0.5297031382527565,0.19345207803223075,0.6721713316369805,-0.11736641221374046,0.8864503816793894,1.4375
1588959883.962132,0.6077253915764044,-2.3722746084235955,-9.639569909506742,-0.5288888888888889,0.1955555555555556,0.67,0.0,0.6590673947050554,1.332351092057583
1588959883.972132,0.6055343511450382,-2.385534351145038,-9.733358778625954,-0.5288888888888889,0.1955555555555556,0.67,0.00691793893129771,0.5209923664122137,1.1667461832061068
1588959883.982132,0.6397240776229371,-2.4231493850819583,-9.673149385081958,-0.5288888888888889,0.1955555555555556,0.67,0.01968365676223789,0.20890817161888106,0.9785918283811189
1588959883.992132,0.6159239834639353,-2.403885975195903,-9.651847966927871,-0.5304740064306918,0.19397043801375266,0.6829073856975382,-0.049762448324797925,0.18631224162398963,0.8992873449743938
1588959884.002132,0.5880724450194049,-2.377018111254851,-9.643855109961189,-0.5366666666666666,0.18777777777777774,0.7333333333333333,0.0,-0.09977360931435963,0.75
1588959884.012132,0.5612776507711628,-2.3674446984576747,-9.703832952313487,-0.5366666666666666,0.18777777777777774,0.7333333333333333,-0.00798531731976688,-0.12361746144186496,0.7739559519593007
1588959884.022132,0.5768892908492185,-2.3465553545753908,-9.716221418301563,-0.5366666666666666,0.18777777777777774,0.7333333333333333,-0.08402903390380781,0.3125,0.9805580678076156
1588959884.032132,0.59,-2.3460290097874967,-9.677941980425006,-0.5366666666666666,0.18777777777777774,0.7333333333333333,-0.09987912588543044,0.27481868882814564,1.0625
1588959884.042132,0.59,-2.3645207653646065,-9.640958469270789,-0.5366666666666666,0.18777777777777774,0.7333333333333333,-0.022830144314140433,0.15924521647121065,1.0625
1588959884.052132,0.5914501122874558,-2.4009667415249707,-9.610483370762484,-0.5366666666666666,0.1811111111111111,0.7333333333333333,-0.1189578654689338,0.0,0.8780210672655331
1588959884.062132,0.618362528071864,-2.418908352047909,-9.619454176023954,-0.5366666666666666,0.1811111111111111,0.7333333333333333,-0.0068227997005667895,0.0,0.9340886001497166
1588959884.0721319,0.6156353240152478,-2.402182337992376,-9.716905972045744,-0.5366666666666666,0.1811111111111111,0.7333333333333333,-0.0136396124523507,-0.0761396124523507,0.7363603875476493
1588959884.0821319,0.6029460882192775,-2.4085269558903613,-9.678838264657832,-0.5366666666666666,0.1811111111111111,0.7333333333333333,-0.05329347431475767,-0.11579347431475767,0.6967065256852423
1588959884.0921319,0.6157352651937323,-2.416588212154986,-9.628294106077494,-0.5366666666666666,0.1811111111111111,0.7321960707183286,-0.05183816298433095,-0.04650724447649643,0.5678309185078345
1588959884.1021318,0.5756320455730733,-2.377183977213463,-9.61844806835961,-0.5366666666666666,0.1811111111111111,0.72,0.044899857584145705,0.1073998575841457,0.625
1588959884.1121318,0.5923317225371941,-2.3723317225371945,-9.652824473954569,-0.5366666666666666,0.1811111111111111,0.72,0.0,0.0625,0.625
1588959884.1221318,0.6082911609147292,-2.3882911609147293,-9.740601385031011,-0.5366666666666666,0.1811111111111111,0.72,0.0,0.0625,0.625
1588959884.1321318,0.6223397442006747,-2.42,-9.693621790595277,-0.5366666666666666,0.1811111111111111,0.72,-0.07712340125421727,-0.40024040752530354,0.4893829937289137
1588959884.1421318,0.6277039314450187,-2.4205740171387453,-9.637703931445019,-0.5362202088920869,0.18079221270069704,0.72,-0.12141239288284163,-0.6731495715313666,0.2535876071171584
1588959884.1521318,0.5924668709234788,-2.4201325163060847,-9.612334354617394,-0.5288888888888889,0.17555555555555555,0.72,-0.04708205672825699,-0.3141564538260559,0.266246170184771
1588959884.1621318,0.6,-2.39,-9.656619368570416,-0.5288888888888889,0.17555555555555555,0.72,0.0,0.0625,0.128761004869554
1588959884.1721318,0.6,-2.39,-9.745743562327364,-0.5288888888888889,0.17555555555555555,0.72,0.0,-0.04442328254477412,0.09839726454602157
1588959884.1821318,0.5942764457527985,-2.3842764457527985,-9.69473718867413,-0.5288888888888889,0.17555555555555555,0.72,0.0,-0.3482722140450091,-0.0892277859549909
1588959884.1921318,0.5700663198690182,-2.359966840065491,-9.629900520196474,-0.5288741511402181,0.17555555555555555,0.720070004306186,0.0004144991813641168,-0.4991710016372718,0.06229275040931794
1588959884.2021317,0.5874516590329734,-2.351274170483513,-9.60382251145054,-0.5250107424371171,0.17555555555555555,0.7384211956459165,0.10907286895608381,-0.2818542620878324,0.007963565521958094
1588959884.2121317,0.5718283037067659,-2.379085848146617,-9.618227366680445,-0.5244444444444445,0.17555555555555555,0.7411111111111112,0.16464620366542648,-0.18178655091635662,0.17035965274906986
1588959884.2221317,0.5877784653465347,-2.3766646039603962,-9.691113861386139,-0.5244444444444445,0.17555555555555555,0.7411111111111112,-0.04861540841584158,-0.08334622524752475,-0.013884591584158416
1588959884.2321317,0.5839914236381231,-2.394012864542815,-9.656008576361877,-0.5244444444444445,0.17555555555555555,0.7411111111111112,-0.02494639773826917,0.09991959660740375,-0.05002680113086541
1588959884.2421317,0.5999081646206098,-2.3701377530690855,-9.64009183537939,-0.5244444444444445,0.17555555555555555,0.7411111111111112,-0.12442602887881146,0.24913904331821718,-0.00028698556059426894
1588959884.2521317,0.5819230245098993,-2.347692098039597,-9.6357690735297,-0.5366666666666666,0.1688888888888889,0.7266666666666667,0.05048109681312905,0.0,-0.012018903186870948
1588959884.2621317,0.59,-2.3798863721686896,-9.660681766987862,-0.5366666666666666,0.1688888888888889,0.7266666666666667,0.0,0.0,-0.0632101739456889
1588959884.2721317,0.5907329591499835,-2.3707329591499837,-9.71780112255005,-0.5366666666666666,0.1688888888888889,0.7266666666666667,0.00916198937479365,-0.013742984062190473,-0.11583801062520635
1588959884.2821317,0.6,-2.374056811469688,-9.680094685782812,-0.5366666666666666,0.1688888888888889,0.7266666666666667,0.11261835722851671,-0.1998816427714833,0.0
1588959884.2921317,0.6,-2.3515346614401547,-9.642557769066926,-0.5366666666666666,0.1688888888888889,0.7266666666666667,0.06569721133365553,-0.24680278866634447,0.0
1588959884.3021317,0.5705773863294188,-2.3696150757803873,-9.600769848439224,-0.5170515908862793,0.1808758796435701,0.7266666666666667,-0.060094223627421464,-0.12740577637257855,-0.06129711181371073
1588959884.3121316,0.57,-2.3618327515074578,-9.616334496985083,-0.5166666666666667,0.1811111111111111,0.7266666666666667,-0.01145469692161219,-0.1760453030783878,-0.11354530307838781
1588959884.3221316,0.58,-2.3612369334483656,-9.713815332758172,-0.5166666666666667,0.1811111111111111,0.7266666666666667,0.11726916594771374,-0.1875,0.05476916594771373
1588959884.3321316,0.58,-2.369652294295861,-9.671738528520695,-0.5166666666666667,0.1811111111111111,0.7266666666666667,0.06467316065086975,-0.1875,0.0021731606508697612
1588959884.3421316,0.5897008443908323,-2.379700844390832,-9.640897466827504,-0.5166666666666667,0.1811111111111111,0.7266666666666667,0.12313027744270205,-0.12686972255729795,-0.06063027744270205
1588959884.3521316,0.5812008733624454,-2.3712008733624454,-9.613602620087336,-0.5342649199417758,0.18697719553614747,0.7080907326540514,0.17999454148471616,-0.125,-0.007505458515283836
1588959884.3621316,0.57,-2.3630691461285473,-9.618414876771286,-0.5366666666666666,0.18777777777777774,0.7055555555555556,0.019182163303422792,-0.1779089183482886,-0.04331783669657721
1588959884.3721316,0.57,-2.3798633780340994,-9.7197267560682,-0.5366666666666666,0.18777777777777774,0.7055555555555556,0.12457305635656094,-0.1237191690696828,0.06079222542624373
1588959884.3821316,0.5737555159866842,-2.36,-9.676244484013315,-0.5366666666666666,0.18777777777777774,0.7055555555555556,0.0625,0.07032399163892544,-0.17185201672214911
1588959884.3921316,0.5981088875125803,-2.36,-9.65189111248742,-0.5366666666666666,0.18777777777777774,0.7055555555555556,0.0625,0.12106018231787567,-0.07037963536424865
1588959884.4021316,0.5888820510723559,-2.37,-9.644471795710578,-0.5244444444444445,0.1688888888888889,0.7266666666666667,-0.006987180797775552,0.027564096011122245,-0.0625
1588959884.4121315,0.5803066794790538,-2.37,-9.678773282083785,-0.5244444444444445,0.1688888888888889,0.7266666666666667,-0.06058325325591381,-0.24041626627956902,-0.0625
1588959884.4221315,0.5964297099139305,-2.37,-9.736429709913931,-0.5244444444444445,0.1688888888888889,0.7266666666666667,0.05506189565402189,-0.23512379130804378,0.15774758261608757
1588959884.4321315,0.5712233835005573,-2.37,-9.697766164994427,-0.5244444444444445,0.1688888888888889,0.7266666666666667,0.0,-0.09441541248606466,-0.0625
1588959884.4421315,0.5770682831661093,-2.37,-9.639317168338907,-0.5244444444444445,0.1688888888888889,0.7266666666666667,0.0,0.051707079152731344,-0.0625
1588959884.4521315,0.5727488727020464,-2.3627488727020465,-9.595497745404092,-0.5373353374185841,0.17775137780860986,0.7113587312598759,0.090639091224419,0.0796804543877905,-0.0625
1588959884.4621315,0.5632894087941136,-2.3667105912058863,-9.603421182411772,-0.5422222222222223,0.1811111111111111,0.7055555555555556,0.041117609926419815,0.0625,-0.020558804963209908
1588959884.4721315,0.5779472973932808,-2.37,-9.690762838269762,-0.5422222222222223,0.1811111111111111,0.7055555555555556,0.05608530435400241,0.006414695645997587,-0.16825591306200724
1588959884.4821315,0.5878580626987001,-2.37,-9.684283874602599,-0.5422222222222223,0.1811111111111111,0.7055555555555556,-0.03572578373375186,0.0,-0.0401613243993722
1588959884.4921315,0.598439985977402,-2.361560014022598,-9.663120028045196,-0.5422222222222223,0.1811111111111111,0.7055555555555556,0.042999824717525545,-0.05274991235876277,0.05274991235876277
1588959884.5021315,0.5842746863243959,-2.36,-9.628549372648791,-0.5282441656216854,0.19246828209904734,0.7169127265434917,0.0625,0.03578321047252485,-0.03578321047252485
1588959884.5121315,0.57,-2.36,-9.666275357060396,-0.5244444444444445,0.1955555555555556,0.72,0.0,-0.015434822047036313,-0.05465580367450605
1588959884.5221314,0.57,-2.36,-9.700862387439392,-0.5244444444444445,0.1955555555555556,0.72,0.0,0.24396790579542832,-0.011422015700761949
1588959884.5321314,0.59,-2.38,-9.676596824810781,-0.5244444444444445,0.1955555555555556,0.72,0.0966402067565073,0.26417989662174635,-0.007089948310873177
1588959884.5421314,0.59,-2.38,-9.653368285028614,-0.5244444444444445,0.1955555555555556,0.72,-0.09693095809488647,0.36096547904744325,-0.05548273952372162
1588959884.5521314,0.59,-2.3706122733612274,-9.622449093444908,-0.5366666666666666,0.18777777777777774,0.7266666666666667,0.0548465829846583,0.25,-0.11351987447698744
1588959884.5621314,0.59,-2.3789691173540546,-9.655876469416219,-0.5366666666666666,0.18777777777777774,0.7266666666666667,-0.0496139669256824,0.25,0.043170950388523616
1588959884.5721314,0.599904971730417,-2.370095028269583,-9.739144745573753,-0.5366666666666666,0.18777777777777774,0.7266666666666667,-0.06071821994531893,0.5,0.0625
1588959884.5821314,0.5887076957444431,-2.3787076957444433,-9.648707695744443,-0.5366666666666666,0.18777777777777774,0.7266666666666667,0.125,0.5,0.05442309840277002
1588959884.5921314,0.5769956997654417,-2.3669956997654418,-9.636995699765443,-0.5366666666666666,0.18777777777777774,0.7266666666666667,0.125,0.5,-0.01877687646598905
1588959884.6021314,0.57,-2.353376990039997,-9.616753980079993,-0.5366666666666666,0.18336243780444234,0.7310820066400021,0.0836061877499804,0.4586061877499804,0.02028762450003921
1588959884.6121314,0.5638011902547889,-2.3685964292356334,-9.585204761019156,-0.5366666666666666,0.1811111111111111,0.7333333333333333,-0.014985121815138558,0.4762425609075693,0.10124256090756928
1588959884.6221313,0.5911403953370502,-2.3722149011657376,-9.671206284845413,-0.5366666666666666,0.1811111111111111,0.7333333333333333,-0.013843132285859094,0.4513431322858591,0.0763431322858591
1588959884.6321313,0.6143068229468261,-2.355693177053174,-9.692846588526587,-0.5366666666666666,0.1811111111111111,0.7333333333333333,0.0,0.4822088217088317,0.0625
1588959884.6421313,0.5967218765764251,-2.3810374978981,-9.666721876576425,-0.5366666666666666,0.1811111111111111,0.7333333333333333,-0.048496090465781065,0.6454882713973432,0.0625
1588959884.6521313,0.6039079847597197,-2.3760920152402805,-9.6252300381007,-0.528167342646838,0.1811111111111111,0.7240613434935201,-0.1059624523741243,0.5136501905035028,-0.0244249047482486
1588959884.6621313,0.59,-2.38,-9.652859258493914,-0.5244444444444445,0.1811111111111111,0.72,0.12755290936956484,0.4553703655869539,0.23723545315217578
1588959884.6721313,0.59,-2.38,-9.703418229408827,-0.5244444444444445,0.1811111111111111,0.72,0.1726948476864528,0.7713639338051695,0.011525761567736048
1588959884.6821313,0.5806722050178945,-2.3693277949821057,-9.647983384946317,-0.5244444444444445,0.1811111111111111,0.72,0.11659743727631798,0.8792012813618411,0.07090256272368202
1588959884.6921313,0.5884499415877018,-2.361550058412298,-9.624650175236894,-0.5244444444444445,0.1811111111111111,0.72,0.019375730153726345,0.9278121349231369,0.16812426984627366
1588959884.7021313,0.61067486044707,-2.360337430223535,-9.600337430223535,-0.5422222222222223,0.1688888888888889,0.72,0.0021089388970937945,0.9438268166912814,0.12289106110290621
1588959884.7121313,0.6292089753603636,-2.3707910246396366,-9.619492295675636,-0.5422222222222223,0.1688888888888889,0.72,0.04766828800681673,1.0706170560249946,0.0625
1588959884.7221313,0.6170975143403442,-2.379274378585086,-9.72637189292543,-0.5422222222222223,0.1688888888888889,0.72,-0.12046486615678777,0.3694729923518164,0.044359464627151055
1588959884.7321312,0.5809659353171062,-2.369034064682894,-9.677585161707235,-0.5422222222222223,0.1688888888888889,0.72,-0.06853709573191372,-0.49698145213404316,-0.18448145213404316
1588959884.7421312,0.5938726651690925,-2.3561273348309077,-9.645318337077269,-0.5422222222222223,0.1688888888888889,0.72,-0.14920415730682832,-0.45664792134658583,-0.14414792134658583
1588959884.7521312,0.5743298248339612,-2.3756701751660385,-9.604329824833961,-0.5203550359696707,0.18505159177120956,0.7076402860311666,0.07989765797957044,-0.49097953159591406,-0.125
1588959884.7621312,0.5604787167799946,-2.3609574335599888,-9.657127699320032,-0.5166666666666667,0.18777777777777774,0.7055555555555556,-0.113032080500137,0.21409624150041096,0.05352406037510274
1588959884.7721312,0.5996451638467329,-2.3679290327693465,-9.715503229385426,-0.5166666666666667,0.18777777777777774,0.7055555555555556,-0.02588709038316757,0.7455645480841622,0.11205645480841622
1588959884.7821312,0.59031875,-2.379840625,-9.6906375,-0.5166666666666667,0.18777777777777774,0.7055555555555556,0.061503906250000004,0.7519921875,0.06349609375
1588959884.7921312,0.6063343912006466,-2.3718328043996766,-9.673665608799354,-0.5166666666666667,0.18777777777777774,0.7055555555555556,0.0625,1.0052248625101023,0.0625
1588959884.8021312,0.6293961419630832,-2.37,-9.631207716073833,-0.5331893061167006,0.19711666094518823,0.7005269261577192,0.0625,1.1837258872692704,0.10290862908975679
1588959884.8121312,0.630651043687437,-2.360651043687437,-9.638046868937689,-0.5422222222222223,0.20222222222222225,0.6977777777777778,0.0625,1.0162760921859237,0.125
1588959884.8221312,0.6234669738614054,-2.3665330261385944,-9.685731182970162,-0.5422222222222223,0.20222222222222225,0.6977777777777778,0.02166858663378385,0.5508544529716224,0.08416858663378385
1588959884.8321311,0.6120248846854529,-2.37,-9.654174192798171,-0.5422222222222223,0.20222222222222225,0.6977777777777778,0.09968894143183843,-0.2856336485910307,0.012655529284080785
1588959884.8421311,0.5968390681003584,-2.37,-9.620258602150537,-0.5422222222222223,0.20222222222222225,0.6977777777777778,0.08387208781362007,-0.6431395609318996,-0.1645116487455197
1588959884.8521311,0.6073802645583093,-2.3613098677208453,-9.59261973544169,-0.5306353791833494,0.18966980893010996,0.7286760258814386,-0.04612665348943287,-0.9672533069788658,-0.14137334651056713
1588959884.862131,0.61,-2.36,-9.59,-0.5288888888888889,0.18777777777777774,0.7333333333333333,0.04402893385282919,-1.1597934007792439,-0.125
1588959884.872131,0.62,-2.37,-9.729840885280252,-0.5288888888888889,0.18777777777777774,0.7333333333333333,0.1865055330015715,-1.0591851100052383,-0.18716851100052384
1588959884.882131,0.62,-2.37,-9.702376898899947,-0.5288888888888889,0.18777777777777774,0.7333333333333333,0.014855618124672593,-0.48701872708224203,-0.1299518727082242
1588959884.892131,0.5924009508716322,-2.37,-9.658601426307449,-0.5288888888888889,0.18777777777777774,0.7333333333333333,-0.04312351426307449,-0.4375,-0.08187648573692552
1588959884.902131,0.5734298695432686,-2.3765701304567313,-9.613719478173074,-0.5259688309081194,0.19288787924412443,0.7289532463621791,0.019626630709142598,-0.2321834232271435,-0.0214366846454287
1588959884.912131,0.5800714038926638,-2.370142807785328,-9.640499827248647,-0.5244444444444445,0.1955555555555556,0.7266666666666667,0.12366117701255326,0.0017850973165956469,-0.12410745134170217
1588959884.922131,0.5897323505700794,-2.389464701140159,-9.708126453990557,-0.5244444444444445,0.1955555555555556,0.7266666666666667,-0.05748157318899,0.24330876425198666,-0.0033456178740066678
1588959884.932131,0.59,-2.3603303019279736,-9.700110100642657,-0.5244444444444445,0.1955555555555556,0.7266666666666667,-0.12431187098338789,0.4354356129501637,0.0618118709833879
1588959884.942131,0.605723272823739,-2.3678616364118694,-9.644968545116914,-0.5244444444444445,0.1955555555555556,0.7266666666666667,0.022405682722552778,0.634040910296737,0.01336477242581574
1588959884.952131,0.5565505685450284,-2.375938825717219,-9.618122348565562,-0.5244444444444445,0.1995147727003683,0.7266666666666667,0.09961766073261918,0.5761470178021424,0.0
1588959884.962131,0.6173735137644161,-2.365019459420859,-9.602509729710428,-0.5244444444444445,0.20222222222222225,0.7266666666666667,-0.015442567929446205,1.6235405434355696,0.1404425679294462
1588959884.972131,0.643591644946955,-2.353591644946955,-9.68971697074263,-0.5244444444444445,0.20222222222222225,0.7266666666666667,-0.1025522190815315,2.0400522190815313,0.267604438163063
1588959884.982131,0.5787441824083851,-2.367501662169033,-9.652491689154836,-0.5244444444444445,0.20222222222222225,0.7266666666666667,0.039078082834682615,0.8045680316007666,0.14842191716531739
1588959884.992131,0.5631169177206196,-2.3631169177206197,-9.619350753161859,-0.5244444444444445,0.20222222222222225,0.7266666666666667,0.019480735753872387,0.065749564800341,-0.04707705698451045
1588959885.002131,0.6049149421901465,-2.36,-9.61,-0.5244444444444445,0.18924679447840206,0.7136912389228466,0.05614367773768318,0.9353735547536637,0.04343103321304956
1588959885.012131,0.6167150545005827,-2.36,-9.650290327003496,-0.5244444444444445,0.18777777777777774,0.7122222222222222,0.0625,1.0625,0.10446909062864194
1588959885.022131,0.602289269051322,-2.368855365474339,-9.723132192846034,-0.5244444444444445,0.18777777777777774,0.7122222222222222,-0.04819206842923794,0.8411158631415241,0.125
1588959885.032131,0.6445550097109563,-2.3521779961156177,-9.73,-0.5244444444444445,0.18777777777777774,0.7122222222222222,0.10458128641608594,1.202356334970867,0.125
1588959885.042131,0.6566480097278352,-2.3632960194556705,-9.690111941632988,-0.5244444444444445,0.18777777777777774,0.7122222222222222,0.00034981760309001075,0.54364896641751,0.00034981760309001075
1588959885.052131,0.6282619164888086,-2.3573047665955236,-9.63191429978657,-0.527265607423217,0.19271481299062979,0.7256227463713919,0.016845208777978432,-0.883660318502709,-0.22119041755595686
1588959885.062131,0.6281728630441691,-2.368172863044169,-9.61,-0.5288888888888889,0.1955555555555556,0.7333333333333333,0.0625,-2.124692167143311,-0.4260803940260566
1588959885.072131,0.5895970877802598,-2.37,-9.698886406883428,-0.5288888888888889,0.1955555555555556,0.7333333333333333,-0.03850728054935054,-2.692536402746753,-0.4375
1588959885.082131,0.5534317553278022,-2.396568244672198,-9.675719592213003,-0.5288888888888889,0.1955555555555556,0.7333333333333333,0.04820101946749092,-2.701798980532509,-0.49285050973374545
1588959885.092131,0.5923310267439685,-2.3717793155040208,-9.662944828876006,-0.5288888888888889,0.1955555555555556,0.7333333333333333,-0.06978445857490181,-1.2764657752010473,-0.19133626332522913
1588959885.102131,0.6026028518989128,-2.36,-9.63041140759565,-0.5346422263008455,0.18898031279903368,0.728401901265942,-0.03253564873641113,-0.3176425949456445,-0.15496435126358887
1588959885.1121309,0.5916829745596869,-2.36,-9.628317025440314,-0.5366666666666666,0.18666666666666668,0.7266666666666667,0.1039628180039139,-0.23948140900195694,-0.0835371819960861
1588959885.1221309,0.6121566351974407,-2.35446084120064,-9.679852429194241,-0.5366666666666666,0.18666666666666668,0.7266666666666667,0.090380257503999,-0.14614077251199697,-0.097119742496001
1588959885.1321309,0.6206241100267426,-2.3593758899732573,-9.691872330080228,-0.5366666666666666,0.18666666666666668,0.7266666666666667,0.09179965616642934,-0.23829793699857604,-0.15429965616642935
1588959885.1421309,0.6143600903170915,-2.378720180634183,-9.651279819365817,-0.5366666666666666,0.18666666666666668,0.7266666666666667,0.125,-0.4920011289636441,-0.1329988710363559
1588959885.1521308,0.617358897331684,-2.382076691995052,-9.632076691995053,-0.5398946810390528,0.1831451964422454,0.724905931554456,0.125,-0.5129793249690758,-0.0625
1588959885.1621308,0.61,-2.3733463223523463,-9.61,-0.5488888888888889,0.17333333333333334,0.72,0.125,-0.5140241911702755,-0.09030483823405511
1588959885.1721308,0.593866137657409,-2.384622045885803,-9.669157495256167,-0.5488888888888889,0.17333333333333334,0.72,0.125,-0.7211122132137312,-0.125
1588959885.1821308,0.5915121085637085,-2.3857560542818543,-9.714243945718147,-0.5488888888888889,0.17333333333333334,0.72,-0.018901357046357342,-0.965852035569536,-0.232926017784768
1588959885.1921308,0.5890084687812319,-2.379008468781232,-9.693512703171848,-0.5488888888888889,0.17333333333333334,0.72,0.0810912103519015,-1.0219543948240493,-0.24380292988269947
1588959885.2021308,0.5851584942526346,-2.37,-9.669683011494731,-0.5454498927204658,0.18021132567017953,0.7125488416350833,0.18551882184206697,-0.7440564655262009,-0.1875
1588959885.2121308,0.5751905669366364,-2.37,-9.62297641734159,-0.5422222222222223,0.18666666666666668,0.7055555555555556,0.125,-0.6087794783230109,-0.14122052167698904
1588959885.2221308,0.5857223739425831,-2.362138813028708,-9.688611869712917,-0.5422222222222223,0.18666666666666668,0.7055555555555556,0.17413241857057216,-0.5267351628588557,-0.07586758142942783
1588959885.2321308,0.572668633498726,-2.377331366501274,-9.640674533994904,-0.5422222222222223,0.18666666666666668,0.7055555555555556,0.13333947968351884,-0.3375184390505565,-0.17082104063296233
1588959885.2421308,0.589980182679662,-2.3733399391067795,-9.636660060893222,-0.5422222222222223,0.18666666666666668,0.7055555555555556,0.04174923883474156,-0.2708746194173708,-0.1458746194173708
1588959885.2521307,0.5858863259460274,-2.3770568370269864,-9.611772651892055,-0.5328131061862404,0.18117801564567734,0.7157487645945357,0.0,-0.11768430574400723,-0.036789537162671485
1588959885.2621307,0.594272029801765,-2.3514559403964697,-9.65708811920706,-0.5288888888888889,0.17888888888888888,0.72,-0.044600093130515765,0.07130027939154729,0.044600093130515765
1588959885.2721307,0.6,-2.3554641591859564,-9.695464159185956,-0.5288888888888889,0.17888888888888888,0.72,-0.0625,0.028349005087770704,0.0625
1588959885.2821307,0.606282229572277,-2.36,-9.687435540855446,-0.5288888888888889,0.17888888888888888,0.72,-0.02323606517326919,0.03926393482673081,0.0625
1588959885.2921307,0.61,-2.356180627369872,-9.657083764219234,-0.5288888888888889,0.17888888888888888,0.72,0.02387107893829714,0.1341132368148914,0.014757842123405723
1588959885.3021307,0.605424251542049,-2.3568636226869266,-9.615424251542048,-0.527872055898233,0.17761784765056918,0.7215252494859836,0.04820078606890327,0.19280314427561307,-0.019602358206709795
1588959885.3121307,0.575850438914923,-2.38,-9.614149561085076,-0.5244444444444445,0.17333333333333334,0.7266666666666667,0.08843475678173059,-0.04421737839086529,0.036565243218269414
1588959885.3221307,0.57,-2.386097961139992,-9.674881650259927,-0.5244444444444445,0.17333333333333334,0.7266666666666667,0.08688774287505069,0.20428579987464512,0.038112257124949304
1588959885.3321307,0.5784527442125391,-2.3773208836811914,-9.71845274421254,-0.5244444444444445,0.17333333333333334,0.7266666666666667,0.009670348671630254,0.6127334309776639,0.1417444769925546
1588959885.3421307,0.5674096285190738,-2.364518074296185,-9.684819257038148,-0.5244444444444445,0.17333333333333334,0.7266666666666667,-0.0625,1.1069277861069464,0.1935240712976845
1588959885.3521307,0.5751095062870186,-2.3649843562447117,-9.635015643755288,-0.530574675700908,0.17333333333333334,0.7339114854243055,-0.12519554694110469,2.0648465632932567,0.21904332041165706
1588959885.3621306,0.6159525601060589,-2.36,-9.628094879787882,-0.5366666666666666,0.17333333333333334,0.7411111111111112,-0.11309299867426278,3.370552509943029,0.46131400265147443
1588959885.3721306,0.6256614264866163,-2.3713228529732326,-9.653968558919697,-0.5366666666666666,0.17333333333333334,0.7411111111111112,0.04365174662405556,3.997687408789463,0.6332678310827037
1588959885.3821306,0.6181294015499887,-2.38,-9.650323503874972,-0.5366666666666666,0.17333333333333334,0.7411111111111112,-0.023382480625140672,4.150404379843715,0.6504043798437148
1588959885.3921306,0.6224685658362232,-2.373765717081888,-9.598828585409443,-0.5366666666666666,0.17333333333333334,0.7411111111111112,-0.16396426823819757,4.008107195285407,0.6639642682381975
1588959885.4021306,0.6226263763002615,-2.3552527526005234,-9.572626376300262,-0.5366666666666666,0.17742979094429912,0.7255445721894411,-0.14141485187663483,4.398351481233652,0.6414148518766348
1588959885.4121306,0.5983151041666667,-2.3644565972222225,-9.598913194444444,-0.5366666666666666,0.17888888888888888,0.72,0.010530598958333331,5.014268663194445,0.6701768663194444
1588959885.4221306,0.6120608031460334,-2.37,-9.735011217827521,-0.5366666666666666,0.17888888888888888,0.72,0.1084600065542363,6.106700131084726,0.7794200131084726
1588959885.4321306,0.6567039406107014,-2.3626592118778595,-9.75797763563358,-0.5366666666666666,0.17888888888888888,0.72,0.2626397772901298,8.410336807825194,1.041899628816883
1588959885.4421306,0.6659970651433363,-2.3519941302866725,-9.693958912006709,-0.5366666666666666,0.17888888888888888,0.72,0.3125,9.725440228499554,1.2500917142707406
1588959885.4521306,0.6605016770609508,-2.3410033541219013,-9.617023478853309,-0.5366666666666666,0.17888888888888888,0.72,0.3125,10.549748440857398,1.4218225918452911
1588959885.4621305,0.71,-2.4001964588891584,-9.61,-0.5244444444444445,0.17333333333333334,0.7122222222222222,0.15563606597138008,11.909728959495514,1.59436393402862
1588959885.4721305,0.7512147300323464,-2.3750470266235384,-9.616869121672057,-0.5244444444444445,0.17333333333333334,0.7122222222222222,-0.10922804180144313,12.222839947748197,1.6875
1588959885.4821305,0.8151267075256009,-2.3443591615593,-9.574873292474399,-0.5244444444444445,0.17333333333333334,0.7122222222222222,-0.04647903898249725,11.596171396184365,1.581734279236873
1588959885.4921305,0.8449231377719182,-2.34,-9.5958454845089,-0.5244444444444445,0.17333333333333334,0.7122222222222222,0.28461272247857616,9.188485497692815,1.2144264996704022
1588959885.5021305,0.8315351459488951,-2.280746021642266,-9.662697281076657,-0.5347903771735726,0.17944683903690906,0.715514109908763,0.5264526689097027,5.398313176320815,0.6200679730835683
1588959885.5121305,0.849853359597286,-2.1925366601006786,-9.691195009848983,-0.5488888888888889,0.18777777777777774,0.72,0.4925311884438608,2.525155942219304,-0.39557342963449327
1588959885.5221305,0.8863926647858426,-2.1936073352141574,-9.723607335214158,-0.5488888888888889,0.18777777777777774,0.72,0.34665138497050524,1.9941972300589894,-2.622339061297769
1588959885.5321305,0.8328713705661533,-2.237846472075385,-9.730717842641539,-0.5488888888888889,0.18777777777777774,0.72,0.486540450471156,0.8732235884471002,-5.3142764115529
1588959885.5421305,0.7787747972050438,-2.320513412577303,-9.66387398602522,-0.5488888888888889,0.18777777777777774,0.72,0.6173424825315236,-1.4120477270901937,-7.178602622279335
1588959885.5521305,0.7571833636334641,-2.4368998181992154,-9.600775045450195,-0.5581453484869426,0.1699768939353668,0.72,0.4823960227091506,-2.0448960227091506,-6.921668181673205
1588959885.5621305,0.7233559115974122,-2.506644088402588,-9.603322044201294,-0.5633333333333334,0.16,0.72,0.3958686118709565,-2.6661022100646954,-6.187817506838609
1588959885.5721304,0.71,-2.538505213292153,-9.671684044307177,-0.5633333333333334,0.16,0.72,0.22078988923205536,-3.886708136915682,-5.306054501544249
1588959885.5821304,0.7151175654202787,-2.544882434579721,-9.720235130840559,-0.5633333333333334,0.16,0.72,0.061030432246515276,-4.501469567753484,-4.267289106341895
1588959885.5921304,0.72,-2.5043074540434986,-9.710170807801944,-0.5633333333333334,0.16,0.72,-0.02478649024757031,-4.0915566852961645,-3.0926242340583125
1588959885.6021304,0.7264011391893902,-2.421194873647744,-9.66719772162122,-0.5587102883632181,0.1628449507508401,0.7153769550298849,-0.18252135980106693,-2.274804201823553,-1.5273825210941319
1588959885.6121304,0.7593727368298097,-2.3716236420978856,-9.609003621072306,-0.5488888888888889,0.1688888888888889,0.7055555555555556,-0.4375,0.0625,-0.125
1588959885.6221304,0.8030937156559097,-2.3769062843440905,-9.658202867419323,-0.5488888888888889,0.1688888888888889,0.7055555555555556,-0.3556642771505645,0.0625,0.038671445698871015
1588959885.6321304,0.7977355006615392,-2.37,-9.714088166446155,-0.5488888888888889,0.1688888888888889,0.7055555555555556,-0.2613979194230797,-3.1058289957690577,-0.3093676849038224
1588959885.6421304,0.78,-2.368482121714421,-9.715446365143263,-0.5488888888888889,0.1688888888888889,0.7055555555555556,-0.19698673928486857,-7.7981786249901335,-0.9627979714263162
1588959885.6521304,0.7464660667416573,-2.3567669666291713,-9.618822022247219,-0.5488888888888889,0.17261488147314918,0.7136285394881196,-0.23527527809023874,-10.014724721909761,-1.4025688195225596
1588959885.6621304,0.5436090437395816,-2.4026649919000773,-9.81252294978048,-0.5488888888888889,0.17555555555555555,0.72,0.11998743925058106,-7.103488249242833,-1.0483500809992252
1588959885.6721303,0.5405564811729424,-2.3941267196648734,-9.846692372383808,-0.5488888888888889,0.17555555555555555,0.72,0.0882919979054601,-1.0799812760825755,-0.2551193253042636
1588959885.6821303,0.6818915037893898,-2.36,-9.720811328280814,-0.5488888888888889,0.17555555555555555,0.72,-0.20101216593538093,5.26688272836059,0.6689170323095333
1588959885.6921303,0.7590597515282982,-2.350940248471702,-9.607350621179256,-0.5488888888888889,0.17555555555555555,0.72,-0.32425310589627293,5.799154506014593,0.8018179353184776
1588959885.7021303,0.7788694620500172,-2.348869462050017,-9.588869462050017,-0.543468662080545,0.17555555555555555,0.72,-0.07663172437478535,3.0587124168722095,0.396197586562178
1588959885.7121303,0.7816011979384315,-2.3725982030923527,-9.566404791753726,-0.5366666666666666,0.17555555555555555,0.72,0.11499251288480289,0.12141097297673764,0.030022461345591306
1588959885.7221303,0.7604553499004498,-2.3931815500331837,-9.554997050365017,-0.5366666666666666,0.17555555555555555,0.72,0.12784593687781137,-1.7556550033183393,-0.24715406312218863
1588959885.7321303,0.7308951486090349,-2.3954475743045176,-9.639104851390966,-0.5366666666666666,0.17555555555555555,0.72,-0.02845266059676574,-1.8684467880646851,-0.3180946788064685
1588959885.7421303,0.7266321095000358,-2.39,-9.643367890499965,-0.5366666666666666,0.17555555555555555,0.72,-0.0625,-0.7108171296849246,-0.14637328906194014
1588959885.7521303,0.7501991818447453,-2.3832005454368366,-9.633399727281583,-0.5340224343365475,0.1732890707011677,0.72,-0.08374829550988605,0.0162687493912535,-0.0012448865296581235
1588959885.7621303,0.7334083482335532,-2.374573956470806,-9.649147912941611,-0.5288888888888889,0.1688888888888889,0.72,-0.125,-1.2379423823910227,-0.2393489117701461
1588959885.7721303,0.6512106173738845,-2.363375978874522,-9.720954744126752,-0.5288888888888889,0.1688888888888889,0.72,-0.02109986796576216,-2.0835998679657624,-0.3403666226552541
1588959885.7821302,0.6061280248190279,-2.3592479834539817,-9.756128024819027,-0.5288888888888889,0.1688888888888889,0.72,-0.05309979317476732,-0.46830274043433295,-0.1102003619441572
1588959885.7921302,0.6161640850186301,-2.3737377264312327,-9.721311367843835,-0.5288888888888889,0.1688888888888889,0.72,-0.1875,2.9711161038595835,0.3352471117568486
1588959885.8021302,0.700408867649011,-2.369897783087747,-9.649591132350988,-0.5288888888888889,0.17225629452630647,0.72,-0.25063885570157973,7.012777114031595,0.9716248506571087
1588959885.8121302,0.7676305836655423,-2.3655261167331085,-9.57131718286824,-0.5288888888888889,0.17555555555555555,0.72,-0.3815764591638557,8.698996984565062,1.3536146887457834
1588959885.8221302,0.8221569989579716,-2.3753594998263288,-9.582875998610628,-0.5288888888888889,0.17555555555555555,0.72,-0.4375,8.560046891281695,1.2700156304272316
1588959885.8321302,0.9368794656147663,-2.3754273965465913,-9.565128758559094,-0.5288888888888889,0.17555555555555555,0.72,-0.2660273704971718,4.638389866775826,0.6677396546591248
1588959885.8421302,0.9881263462692892,-2.3722553762491616,-9.545107524983226,-0.5288888888888889,0.17555555555555555,0.72,0.03617271090080865,-2.1782592958790916,-0.29788304671775134
1588959885.8521302,0.8178009463611003,-2.3796608284190826,-9.69321656838165,-0.5288888888888889,0.17555555555555555,0.72,0.36016124333486355,-10.972233747660582,-1.6864053285779865
1588959885.8621302,0.6503086018574813,-2.3773007819870435,-9.678894526090694,-0.5366666666666666,0.17555555555555555,0.7055555555555556,0.37001954967609385,-15.377734596113125,-2.3025390993521877
1588959885.8721302,0.5386312289697164,-2.3757034129145973,-9.744258532286493,-0.5366666666666666,0.17555555555555555,0.7055555555555556,0.08056100785130588,-10.58531785771511,-1.5632135274795707
1588959885.8821301,0.5038044088971148,-2.3820355620187064,-9.760088905046766,-0.5366666666666666,0.17555555555555555,0.7055555555555556,-0.3866109495323396,0.01927446541296174,-0.05255602009452354
1588959885.8921301,0.5857839124226558,-2.371753768046962,-9.714216087577345,-0.5366666666666666,0.17555555555555555,0.7055555555555556,-0.7423052514675551,7.426098683166746,0.9988378549896875
1588959885.9021301,0.6859797003907946,-2.371340099869735,-9.618350249674338,-0.5332989277271192,0.17555555555555555,0.7118099278718579,-1.1082487516283108,14.494860643725575,2.0914975032566216
1588959885.91213,0.821061020692304,-2.339787795861539,-9.468726775169236,-0.5288888888888889,0.17555555555555555,0.72,-1.18683686206731,15.524950189639444,2.280255293100965
1588959885.92213,0.9369362360832721,-2.2691912917501837,-9.451617416499632,-0.5288888888888889,0.17555555555555555,0.72,-0.8074455734386474,12.105973029827938,1.7640940979181965
1588959885.93213,0.8882772504091653,-2.1704671031096563,-9.59,-0.5288888888888889,0.17555555555555555,0.72,-0.32226268412438624,3.688222176759411,0.6337581833060556
1588959885.94213,0.7566606515897456,-2.0776095953553146,-9.632864876527469,-0.5288888888888889,0.17555555555555555,0.72,-0.3393018260988957,-4.259234695879019,-0.36313820293038857
1588959885.95213,0.7248763476981156,-1.9468547845282658,-9.675123652301885,-0.5353906858197097,0.17555555555555555,0.7129563866582774,-0.49845434622644524,-5.9421369613206645,-0.5335684806603321
1588959885.96213,0.7651566101694915,-1.770389604519774,-9.552811299435028,-0.5422222222222223,0.17555555555555555,0.7055555555555556,-0.5991214689265537,-7.397966101694915,-0.9502005649717514
1588959885.97213,0.79,-1.7,-9.47,-0.5422222222222223,0.17555555555555555,0.7055555555555556,-0.625,-8.5625,-1.3125
1588959885.98213,0.8759114876129183,-1.444826115612763,-9.502118016516109,-0.5422222222222223,0.17555555555555555,0.7055555555555556,0.14778719032295584,-18.315003101616718,-4.340226757259722
1588959885.99213,0.8974406387896617,-1.2174406387896617,-9.46908594242488,-0.5422222222222223,0.17555555555555555,0.7055555555555556,0.7477148560621979,-24.4397851439378,-7.057128598445051
1588959886.00213,0.7432897555506617,-1.0465795111013234,-9.41164487777533,-0.5422222222222223,0.17555555555555555,0.7074122493832599,0.5727804860958178,-22.908882059700893,-10.45572358805982
1588959886.01213,0.705667530473174,-0.9509319512429215,-9.39,-0.5422222222222223,0.17555555555555555,0.7122222222222222,0.40916234763412995,-17.534000383914,-11.355006478548805
1588959886.02213,0.7459237930703523,-0.8865219310874364,-9.39,-0.5422222222222223,0.17555555555555555,0.7122222222222222,0.2078810346482388,-9.784669833957194,-11.656928448027642
1588959886.03213,0.6169522889704462,-1.0369356770330307,-9.5,-0.5422222222222223,0.17555555555555555,0.7122222222222222,0.2621498937608654,2.3017891636082672,-12.63364883136952
1588959886.04213,0.47965988591109676,-1.1902550855666774,-9.499659885911097,-0.5422222222222223,0.17555555555555555,0.7122222222222222,0.31303142826391134,7.44175142611129,-13.184311430416532
1588959886.05213,0.44888771548377077,-1.2333315732256562,-9.45111228451623,-0.5343220306810927,0.17802436541215855,0.7216036996773135,0.375,6.187731014132629,-12.229243671377542
1588959886.06213,0.5223845432601193,-1.2547988110200092,-9.459195244080037,-0.5244444444444445,0.1811111111111111,0.7333333333333333,0.49497027550022943,0.7608025614938057,-11.020118897999083
1588959886.07213,0.7204006416526468,-1.2320570053601472,-9.520362103368676,-0.5244444444444445,0.1811111111111111,0.7333333333333333,0.6832145721663602,-4.088935159826284,-10.84928743299816
1588959886.08213,0.9881041310903608,-1.211358863495985,-9.578372633797187,-0.5244444444444445,0.1811111111111111,0.7333333333333333,0.7972945354794172,-5.724419122188715,-12.795820768084875
1588959886.09213,0.7226042417278518,-1.5044964652267903,-9.496449646522679,-0.5244444444444445,0.1811111111111111,0.7333333333333333,0.6985948546166281,1.5989164410773755,-16.82303859037529
1588959886.10213,0.4623888871188709,-1.747462962372957,-9.523731481186479,-0.5244444444444445,0.1782088479660723,0.7333333333333333,0.48506945550705705,6.8946179947111865,-16.302199158887436
1588959886.11213,0.5044464856230032,-1.8089113418530351,-9.534446485623002,-0.5244444444444445,0.17333333333333334,0.7333333333333333,0.30558107028753995,6.770182707667732,-13.47175019968051
1588959886.12213,0.5022346476164309,-1.87,-9.594357466684983,-0.5244444444444445,0.17333333333333334,0.7333333333333333,0.447800178595961,2.961594999313092,-11.508031666437697
1588959886.13213,0.5224682395644283,-1.8560850401866738,-9.656808400311123,-0.5244444444444445,0.17333333333333334,0.7333333333333333,0.6494684988332902,-3.090970961887477,-9.161962017111746
1588959886.14213,0.6453269123911836,-1.8186682719022043,-9.598002407853306,-0.5244444444444445,0.17333333333333334,0.7333333333333333,0.6611177995925172,-6.641646601222448,-6.6653546953139475
1588959886.15213,0.7969415087073725,-1.795292456463138,-9.532353771768431,-0.5254639415419871,0.1723138362357908,0.7345227466137996,0.4235377176843096,-5.395040862607505,-4.516208656026699
1588959886.1621299,0.7688351431391905,-1.8791411648568608,-9.49085883514314,-0.5311111111111111,0.16666666666666666,0.7411111111111112,-0.018787018756169793,4.329744570582428,-2.8186389437314907
1588959886.1721299,0.5694789952835363,-1.863806076560272,-9.506193923439728,-0.5311111111111111,0.16666666666666666,0.7411111111111112,-0.35424207524404955,6.869618569704947,-1.8122737742678512
1588959886.1821299,0.5679518912323515,-1.7691164565297388,-9.56618480429183,-0.5311111111111111,0.16666666666666666,0.7411111111111112,0.011044293378265839,1.3521524509519107,-0.3491456529738733
1588959886.1921299,0.6410615304165941,-1.760993163287045,-9.623047856990684,-0.5311111111111111,0.16666666666666666,0.7411111111111112,0.11258545891193616,-4.029529322332617,0.4631836712954893
1588959886.2021298,0.7394894018073291,-1.7245288562822243,-9.608036516179107,-0.532079701529926,0.16666666666666666,0.7432097236852102,0.08867785929443942,-7.143238454715133,1.8429328442333635
1588959886.2121298,0.5767183486408072,-1.8020388815996156,-9.437514460480845,-0.5372470365510855,0.16666666666666666,0.7544056162310556,-0.10509720399903907,-1.572205385027627,3.0055832239942344
1588959886.2221298,0.7096992125984252,-1.8306015748031497,-9.649055993000875,-0.5377777777777778,0.16666666666666666,0.7555555555555555,-0.24409995625546807,-0.11962051618547687,4.105419947506562
1588959886.2321298,0.7757511811023622,-1.6984976377952756,-9.612360454943131,-0.5377777777777778,0.16666666666666666,0.7555555555555555,-0.014752843394575721,-2.825916447944007,3.830203412073491
1588959886.2421298,0.6980455981321247,-1.8154886004669688,-9.551351806070594,-0.5377777777777778,0.16666666666666666,0.7555555555555555,-0.02819624708144486,-0.536186864785057,3.0042243939706084
1588959886.2521298,0.7556516961955775,-1.8010870759511057,-9.364131987364372,-0.5377777777777778,0.16666666666666666,0.7555555555555555,-0.1182057753055899,-0.8512202135695646,2.4191624605136655
1588959886.2621298,0.7430475610193183,-1.6239048779613634,-9.451587398301136,-0.5511111111111111,0.15222222222222226,0.7477777777777778,0.019047256370739403,-0.552578760617899,1.5906732733593778
1588959886.2721298,0.7204983692340776,-1.6690032615318446,-9.489169384609871,-0.5511111111111111,0.15222222222222226,0.7477777777777778,-0.1218851922870148,-0.31769134618830863,1.073920961614279
1588959886.2821298,0.7268968498131245,-2.0717220513081283,-9.704484249065622,-0.5511111111111111,0.15222222222222226,0.7477777777777778,-0.04742124532811269,-0.03234249065622538,0.05605311332028173
1588959886.2921298,0.7258201744049022,-2.1054495639877446,-9.652539476785293,-0.5511111111111111,0.15222222222222226,0.7477777777777778,0.10681195498468066,0.33068804501531934,-0.5205043601225547
1588959886.3021297,0.7328701274934423,-2.0854480570975413,-9.606435063746721,-0.5511111111111111,0.15222222222222226,0.7487020205101094,0.0625,0.375,-1.0012581589702922
1588959886.3121297,0.6816982858537181,-2.1963203806502776,-9.580849142926859,-0.5511111111111111,0.15222222222222226,0.7553354073893328,0.0625,0.375,-1.9074261880070762
1588959886.3221297,0.6873147286232641,-2.144446513041661,-9.590279070651038,-0.5511111111111111,0.15222222222222226,0.7555555555555555,0.016782946104599253,0.3871511616862022,-2.295717053895401
1588959886.3321297,0.6811933099691176,-2.334319719629411,-9.701193309969117,-0.5511111111111111,0.15222222222222226,0.7555555555555555,0.047583625386030046,0.26491637461396994,-2.2127090634650752
1588959886.3421297,0.69,-2.366781072622142,-9.680712429048857,-0.5511111111111111,0.15222222222222226,0.7555555555555555,-0.025890536311071036,0.22856214524428414,-1.7544526815553552
1588959886.3521297,0.6893681247573443,-2.193791251455934,-9.606208748544066,-0.5506196525890457,0.1532753476266483,0.755976805717326,0.0625,-0.12894922026659764,-1.280906237867219
1588959886.3621297,0.6927303379596957,-2.232177526856426,-9.565276405551636,-0.5433333333333333,0.1688888888888889,0.7622222222222222,0.014761232651140904,-0.1875,-0.6851966204030424
1588959886.3721297,0.7307414344363092,-2.1414454093119173,-9.61,-0.5433333333333333,0.1688888888888889,0.7622222222222222,-0.12963396522693305,-0.15042827818453564,-0.2846962086384017
1588959886.3821297,0.7386766180449136,-1.7288158616644909,-9.61,-0.5433333333333333,0.1688888888888889,0.7622222222222222,-0.1792288627807102,0.24633090224568172,0.0128731766842613
1588959886.3921297,0.6615803780659272,-1.7957765974066553,-9.575776597406655,-0.5433333333333333,0.1688888888888889,0.7622222222222222,0.0,0.14475472582409,-0.013113185439775035
1588959886.4021297,0.6681329479768786,-1.7368034682080924,-9.516803468208092,-0.5433333333333333,0.1688888888888889,0.7622222222222222,0.0,0.22666184971098266,0.1916546242774566
1588959886.4121296,0.6686231701161031,-1.7517030540131246,-9.503442074709742,-0.5188888888888888,0.17555555555555555,0.7333333333333333,-0.004302593387178193,0.11209221983846543,0.5043025933871782
1588959886.4221296,0.6509793033821303,-1.901675921251893,-9.547551741544675,-0.5188888888888888,0.17555555555555555,0.7333333333333333,-0.05943967693084301,-0.05331903079252903,0.559439676930843
1588959886.4321296,0.656575489168024,-2.106575489168024,-9.668767318890698,-0.5188888888888888,0.17555555555555555,0.7333333333333333,-0.07619893576671649,-0.2910968073001495,1.0136989357667165
1588959886.4421296,0.6844753232249474,-2.1106069326918946,-9.688065804733473,-0.5188888888888888,0.17555555555555555,0.7333333333333333,-0.10635281989605258,-0.4375,1.1184415403118422
1588959886.4521296,0.7091972263428433,-1.9943805843999034,-9.611169489771276,-0.5198700566920803,0.17439599360632926,0.7361876396698903,-0.005017335357229103,-0.4274653292855418,1.4375
1588959886.4621296,0.7,-1.93,-9.51,-0.5311111111111111,0.16111111111111112,0.7688888888888888,-0.0625,-0.3125,1.4375
1588959886.4721296,0.718951551593061,-2.043709309558366,-9.566854654779183,-0.5311111111111111,0.16111111111111112,0.7688888888888888,0.1743943949132628,-0.4309471974566314,0.9044876114451587
1588959886.4821296,0.7214870875504924,-2.07,-9.602564562247537,-0.5311111111111111,0.16111111111111112,0.7688888888888888,0.04391140561884446,-0.23141140561884446,0.3445570280942223
1588959886.4921296,0.7290044720106069,-2.065022360053035,-9.559004472010608,-0.5311111111111111,0.16111111111111112,0.7688888888888888,-0.0625,-0.10633385019888088,-0.27460869907188923
1588959886.5021296,0.72,-2.029396937888614,-9.551252925051816,-0.5307630763744957,0.16145914584772644,0.7693761375201503,-0.06641539078692252,0.07033078157384502,-1.1016539078692251
1588959886.5121295,0.7029668803855107,-2.226777065381631,-9.56716114673092,-0.5255555555555556,0.16666666666666666,0.7766666666666666,-0.08951433413648058,0.25847133172703884,-1.864928329317597
1588959886.5221295,0.6763779360749941,-2.2917498609750284,-9.574558165399996,-0.5255555555555556,0.16666666666666666,0.7766666666666666,0.0,0.4375,-2.3352471334374916
1588959886.5321295,0.7524550179928029,-1.9522750899640144,-9.64,-0.5255555555555556,0.16666666666666666,0.7766666666666666,0.015343862455017994,0.422156137544982,-2.59093862455018
1588959886.5421295,0.7570352337768528,-2.021130045343046,-9.64,-0.5255555555555556,0.16666666666666666,0.7766666666666666,0.07176489444733516,0.41205957778934066,-3.2385329944993684
1588959886.5521295,0.7414465175053891,-2.184811566193414,-9.64,-0.5255555555555556,0.16666666666666666,0.7766666666666666,0.12047963279565896,0.6069185311826358,-4.164113023117521
1588959886.5621295,0.7441450725362682,-2.07480140070035,-9.53447323661831,-0.5188888888888888,0.17333333333333334,0.7766666666666666,0.19613556778389193,0.6143134067033517,-5.211355677838919
1588959886.5721295,0.7651270635317658,-1.9978674337168585,-9.506497248624312,-0.5188888888888888,0.17333333333333334,0.7766666666666666,0.23984804902451226,0.8765882941470735,-5.648480490245123
1588959886.5821295,0.7868284402792388,-1.9152426604188582,-9.633656880558478,-0.5188888888888888,0.17333333333333334,0.7766666666666666,0.36508887587262123,0.7866112412737879,-7.0404558549297125
1588959886.5921295,0.7685618379829927,-1.9849186931224823,-9.602876324034014,-0.5188888888888888,0.17333333333333334,0.7766666666666666,0.3125,1.3035114873937044,-8.447747277338506
1588959886.6021295,0.7610784134527508,-2.5731858892341437,-9.625392067263753,-0.5192483600398058,0.17333333333333334,0.7785838461382237,0.3226101261195394,1.2601101261195393,-9.662070462438312
1588959886.6121294,0.7718142857142858,-3.033207142857143,-9.72204642857143,-0.5255555555555556,0.17333333333333334,0.8122222222222222,0.48720982142857144,1.4886607142857142,-10.261339285714286
1588959886.6221294,0.7402781954887218,-3.2381917293233085,-9.72993045112782,-0.5255555555555556,0.17333333333333334,0.8122222222222222,0.4379346804511278,1.6857612781954887,-10.06423872180451
1588959886.6321294,0.7867553646137928,-2.809850645553106,-9.767404291691033,-0.5255555555555556,0.17333333333333334,0.8122222222222222,0.320611588465518,1.629055794232759,-9.770278971163796
1588959886.6421294,0.7985836720799375,-2.7494000680830615,-9.725751016239812,-0.5255555555555556,0.17333333333333334,0.8122222222222222,0.35729590099921904,1.6786479504996095,-9.624464346502734
1588959886.6521294,0.7901848254870943,-3.1609435511323816,-9.700554476461281,-0.5255555555555556,0.17333333333333334,0.8122222222222222,0.2523103185886782,1.626155159294339,-9.991913884939626
1588959886.6621294,0.8226263355472133,-3.1644412359226104,-9.771615651169506,-0.5311111111111111,0.16,0.8266666666666667,0.4671708056598325,1.3125,-9.950756208489748
1588959886.6721294,0.8286610752037353,-2.831966451222412,-9.725355699185059,-0.5311111111111111,0.16,0.8266666666666667,0.3666317200233458,1.2957634400466915,-9.829236559953308
1588959886.6821294,0.8221394155381325,-2.7666286528866713,-9.757860584461866,-0.5311111111111111,0.16,0.8266666666666667,0.3225285103349964,1.1908428367783321,-9.967585531004989
1588959886.6921294,0.8612326430494665,-2.499183923763339,-9.708906212554803,-0.5311111111111111,0.16,0.8266666666666667,0.5077040190591652,1.296224114354991,-10.607856266828312
1588959886.7021294,0.8671453543284886,-2.3513661417877834,-9.655691811043603,-0.5311111111111111,0.16,0.8266666666666667,0.5446584645530541,1.5179507873183247,-11.125218503742758
1588959886.7121294,0.8618179760872025,-2.361820239127975,-9.59727190434881,-0.5211108596621363,0.14909063478293666,0.8339395768113755,0.5625,1.8806882472749218,-12.500028288009656
1588959886.7221293,0.86,-2.3517947841282503,-9.625256519839688,-0.5188888888888888,0.14666666666666667,0.8355555555555556,0.5625,2.1578532489980438,-13.675483645791783
1588959886.7321293,0.86,-2.232708779443255,-9.65950749464668,-0.5188888888888888,0.14666666666666667,0.8355555555555556,0.6844218415417559,2.25,-14.854991970021413
1588959886.7421293,0.9116451126626468,-2.1219037607108855,-9.596709774674705,-0.5188888888888888,0.14666666666666667,0.8355555555555556,0.6875,2.604436091716915,-16.621766899397016
1588959886.7521293,0.9199644953982863,-2.030390550618851,-9.580071009203428,-0.5188888888888888,0.14666666666666667,0.8355555555555556,0.6875,2.500443807521422,-17.86967430974294
1588959886.7621293,0.9426567998842983,-2.0999259991322377,-9.575313599768597,-0.4844444444444445,0.14666666666666667,0.8777777777777778,1.0541975003615678,2.9291975003615676,-19.8198774887914
1588959886.7721293,0.96,-2.197576495132128,-9.611296940194714,-0.4844444444444445,0.14666666666666667,0.8777777777777778,1.008105876216968,2.980376390820584,-21.726964534075105
1588959886.7821293,0.9652478537801162,-1.9765014308132558,-9.621311963445029,-0.4844444444444445,0.14666666666666667,0.8777777777777778,1.0761662858857195,3.6683671997599925,-23.35386377273147
1588959886.7921293,1.0792779974723796,-1.9009282889640833,-9.648452851726528,-0.4844444444444445,0.14666666666666667,0.8777777777777778,1.375,3.2590250315952547,-25.652075094785765
1588959886.8021293,1.0194302662155001,-1.9778753720086428,-9.520207713318928,-0.4844444444444445,0.14666666666666667,0.8777777777777778,1.375,4.0071216723062495,-27.89636501691875
1588959886.8121293,1.0992370178296886,-1.9039773744234607,-9.503051928681245,-0.4844444444444445,0.13444444444444445,0.8622222222222222,1.4518059156933385,4.167917747080016,-31.478894651093416
1588959886.8221292,1.0896269299582533,-1.7077615797495196,-9.540746140083492,-0.4844444444444445,0.13444444444444445,0.8622222222222222,1.6226683122390828,4.720143628652839,-34.38057451461136
1588959886.8321292,1.0803624676959778,-1.6521748061758663,-9.559275064608045,-0.4844444444444445,0.13444444444444445,0.8622222222222222,1.5647654230998609,5.5307840766019485,-37.623136306407794
1588959886.8421292,1.1101437851004805,-1.7597699438392314,-9.579769943839231,-0.4844444444444445,0.13444444444444445,0.8622222222222222,1.813218925502402,5.8751797313756,-41.133986568780024
1588959886.8521292,1.1456189525678326,-1.7030096758914677,-9.523009675891467,-0.4844444444444445,0.13444444444444445,0.8622222222222222,1.9905947628391636,5.919523690709791,-43.351184535489544
1588959886.8621292,1.1891764155357978,-1.689725471845266,-9.509725471845266,-0.42068857345881217,0.11391289277110521,0.8827537738955614,2.1232841990329123,6.788478786460771,-47.471562548744345
1588959886.8721292,1.2394690894325449,-1.900530910567455,-9.583787635773017,-0.4188888888888889,0.11333333333333333,0.8833333333333333,2.2736727235813623,7.7052545426860215,-51.64983631103441
1588959886.8821292,1.3246238960511625,-1.8153761039488376,-9.617849558420465,-0.4188888888888889,0.11333333333333333,0.8833333333333333,2.486559740127906,7.864919805095929,-54.68347629682266
1588959886.8921292,1.3641161306681318,-1.9568283818619785,-9.502760005071208,-0.4188888888888889,0.11333333333333333,0.8833333333333333,2.7003629083379117,8.148153235008241,-58.92750813506318
1588959886.9021292,1.4527418332417699,-1.6732261336263363,-9.777499683049488,-0.4188888888888889,0.11333333333333333,0.8833333333333333,2.977318228880531,8.646672811984956,-62.74949155855133
1588959886.9121292,1.4268113162827778,-1.5919198034948612,-8.986877248928057,-0.3921535603389043,0.09673899147472223,0.8953181357867747,2.7407134084592015,9.672789047855034,-67.15922814634462
1588959886.9221292,1.6064875674955004,-1.7656766215585629,-9.723238784081062,-0.38666666666666666,0.09333333333333334,0.8977777777777778,3.6452736484234385,10.547294763682421,-74.5017727984801
1588959886.9321291,1.6624078394773683,-1.8146068595426972,-9.492567662155857,-0.38666666666666666,0.09333333333333334,0.8977777777777778,3.8200244983667755,10.416231626224919,-78.8268563345777
1588959886.9421291,1.755118905967303,-1.8569700575377746,-9.670692898241267,-0.38666666666666666,0.09333333333333334,0.8977777777777778,3.8299508157976234,13.120669385992079,-87.23855866245049
1588959886.9521291,1.8303211031605027,-1.6655462828641752,-9.533961630617268,-0.38666666666666666,0.09333333333333334,0.8977777777777778,4.0863219425926225,13.975239808642076,-92.57962380401297
1588959886.962129,1.9813349364315984,-1.6286650635684015,-9.450148326270178,-0.36,0.01888888888888889,0.8755555555555555,4.756489274320271,14.526884136469691,-104.09602370125232
1588959886.972129,2.0729268292682925,-1.5380975609756098,-9.460439024390245,-0.36,0.01888888888888889,0.8755555555555555,5.198475609756097,16.327134146341464,-114.80975609756098
1588959886.982129,2.2904713933138883,-1.4055496971056765,-9.483769575947948,-0.36,0.01888888888888889,0.8755555555555555,6.004254543414853,17.479386358537134,-128.71303707650887
1588959886.992129,2.4994413640722057,-1.3616759077833827,-9.42195522574728,-0.36,0.01888888888888889,0.8755555555555555,6.701465898194855,19.304464397381913,-144.21645839413014
1588959887.002129,2.4819556426397633,-1.4141330720807104,-9.483155250760829,-0.36,0.01888888888888889,0.8755555555555555,7.13860893400592,22.96553732229958,-160.77325087547422
1588959887.012129,2.5040604547020324,-1.548322425077506,-9.425838787461247,-0.4143588050675546,-0.039925555938301355,0.8461483331419605,7.5885075783672065,27.385075783672065,-178.26429555632106
1588959887.022129,2.6800808706499764,-1.9,-9.569949455843766,-0.42777777777777776,-0.054444444444444434,0.8388888888888889,8.375505441562352,31.939711306835292,-199.8919954725341
1588959887.032129,2.7522501828192882,-1.9,-9.524843635737945,-0.42777777777777776,-0.054444444444444434,0.8388888888888889,8.826563642620552,33.91309093646492,-215.0588274831161
1588959887.042129,2.8572443677427826,-2.079448873548557,-9.699528597422574,-0.42777777777777776,-0.054444444444444434,0.8388888888888889,9.524111782250651,37.32378679022304,-233.82029887073477
1588959887.052129,2.8179048565908196,-2.0715809713181637,-9.550038455045113,-0.42777777777777776,-0.054444444444444434,0.8388888888888889,9.86833250483033,41.9461793505787,-244.63866443752462
1588959887.062129,2.7248717297434593,-1.8815016872890888,-9.52,-0.4649369433659502,-0.12403342727320374,0.8301058133862299,10.469551689103378,46.37133967125077,-253.91919041873797
1588959887.072129,2.6863033023404936,-1.6458768836165438,-9.381421930105803,-0.4888888888888889,-0.1688888888888889,0.8244444444444444,11.780508576466817,49.94964331516512,-267.31397282782945
1588959887.082129,2.884638419159179,-1.6329758946106119,-9.505710735327343,-0.4888888888888889,-0.1688888888888889,0.8244444444444444,12.405496706581623,47.168225029979666,-276.04374532925493
1588959887.092129,3.2008999757418937,-1.6839374949462278,-9.581212501010754,-0.4888888888888889,-0.1688888888888889,0.8244444444444444,13.064374949462279,42.863750303226325,-289.0242176760734
1588959887.102129,3.371113069258009,-1.7092426912624556,-9.477372313266903,-0.4888888888888889,-0.1688888888888889,0.8244444444444444,13.285355760520465,44.544535946635925,-296.9672640615993
1588959887.112129,3.7541747447331004,-1.8590513118779888,-9.559051311877989,-0.5207548145275946,-0.33208105352347306,0.750090617954131,13.537950756107017,51.17350878893628,-310.1929607729094
1588959887.122129,3.7102289751144872,-1.8109453654726828,-9.49713443856722,-0.5255555555555556,-0.3566666666666667,0.7388888888888889,13.95093231921616,58.81914515957258,-318.53046345273174
1588959887.132129,3.565927813163482,-1.6002389500096508,-9.54514997104806,-0.5255555555555556,-0.3566666666666667,0.7388888888888889,15.011978865083961,70.33086518046709,-330.7313163481953
1588959887.142129,3.4088708738090245,-1.4766531553567686,-9.436653155356769,-0.5255555555555556,-0.3566666666666667,0.7388888888888889,16.656440002795442,74.35458889510099,-339.9871526079158
1588959887.152129,3.391522638153807,-1.3937037433842592,-9.319794295999486,-0.5255555555555556,-0.3566666666666667,0.7388888888888889,18.07458778846772,74.77443404615484,-348.12962566157404
1588959887.162129,3.39,-1.321010477299185,-9.292626309662397,-0.460011641443539,-0.4418737550122882,0.6921888500840772,19.648981373690336,71.77085273573923,-356.78151920838184
1588959887.172129,3.5798101107687184,-1.1796835179478637,-9.340158241026067,-0.43666666666666665,-0.4722222222222222,0.6755555555555556,21.690467019238778,64.0437088781544,-369.6566482052136
1588959887.182129,3.5274119263762804,-1.0923532106271343,-9.383823394686434,-0.43666666666666665,-0.4722222222222222,0.6755555555555556,22.509188650370618,58.85847188098609,-378.3896789372866
1588959887.192129,3.8993188202247193,-1.0410955056179776,-9.39,-0.43666666666666665,-0.4722222222222222,0.6755555555555556,23.415247542134832,54.295338834269664,-388.6824525983146
1588959887.202129,3.818084806663672,-0.8979492466620391,-9.364932219999183,-0.43666666666666665,-0.4722222222222222,0.6755555555555556,23.64639816667347,55.44088900004083,-395.88336404189295
1588959887.2121289,3.6079977655589386,-0.7759955311178778,-9.269599553111787,-0.3511111111111111,-0.5633333333333334,0.6233333333333333,24.085025137461937,61.37013406646367,-406.1678267870052
1588959887.2221289,3.5620570001533443,-0.684114000306688,-9.26041140003067,-0.3511111111111111,-0.5633333333333334,0.6233333333333333,24.60185874827488,64.12657999079936,-412.8866637275734
1588959887.2321289,3.3739928967710484,-0.549795027739734,-9.26,-0.3511111111111111,-0.5633333333333334,0.6233333333333333,25.148144977831425,63.843109461686666,-417.89580480048284
1588959887.2421288,3.168251205746537,-0.22840820933812217,-9.236031400718318,-0.3511111111111111,-0.5633333333333334,0.6233333333333333,25.337303745510518,61.815116726526426,-420.94646741918933
1588959887.2521288,3.0175932975486996,-0.05271363267126451,-9.194157654142044,-0.3511111111111111,-0.5633333333333334,0.6233333333333333,25.278993716451907,60.41644135355112,-421.24097486580763
1588959887.2621288,2.8460980392156863,0.13443028322440087,-9.147683006535948,-0.30001839748244974,-0.5792998063422901,0.6087354151537158,24.802593954248366,59.25457516339869,-418.38594090413943
1588959887.2721288,2.695814303207373,0.41360351457603817,-9.107907151603687,-0.22666666666666666,-0.6022222222222222,0.5877777777777777,23.97383939504608,57.84593788266128,-410.35941024511806
1588959887.2821288,2.5261019906416053,1.0488547862637798,-9.115105876754699,-0.22666666666666666,-0.6022222222222222,0.5877777777777777,22.965441351415656,53.71504976604013,-397.9629431358553
1588959887.2921288,2.273889097615957,1.2727459184370518,-9.048936573536443,-0.22666666666666666,-0.6022222222222222,0.5877777777777777,22.08571495662272,49.95347509221941,-387.9323489480156
1588959887.3021288,2.067708966319736,1.5114396535005494,-8.989427241579934,-0.22666666666666666,-0.6022222222222222,0.5877777777777777,20.6588620789967,45.16408623699011,-373.088620789967
1588959887.3121288,1.7113285805534377,1.8555595162054686,-8.913610120948633,-0.11601686824772148,-0.5977962302854644,0.5781881285814692,19.191651814229495,38.52179702470484,-357.66963200296703
1588959887.3221288,1.5000126767430522,2.206611734113441,-9.013299528685193,-0.06,-0.5955555555555555,0.5733333333333334,17.38574679018365,29.782794978059485,-338.34727571916136
1588959887.3321288,1.6984645357134767,2.375078721428086,-9.04833858142854,-0.06,-0.5955555555555555,0.5733333333333334,15.24881917857871,22.152215526810593,-320.3967050268446
1588959887.3421288,1.2252723554564044,2.519490346054763,-8.67314583167344,-0.06,-0.5955555555555555,0.5733333333333334,12.749450574987385,31.617641688577272,-298.81952799245744
1588959887.3521287,1.0945957676783031,2.878186485619226,-8.725404232321697,-0.06,-0.5955555555555555,0.5733333333333334,11.248588733512355,43.402267948523075,-283.2682525206465
1588959887.3621287,1.2177977934838822,3.2277977934838824,-8.620846405792104,0.03322099637993449,-0.5717324120362389,0.5857627995173246,10.737289368212377,38.40034853904499,-257.53059009222545
1588959887.3721287,1.2899800483932589,3.3171172050770474,-8.712822940102729,0.04,-0.57,0.5866666666666667,10.214463853631617,29.270636116653222,-239.74654030649063
1588959887.3821287,1.2889422593616486,3.6064435159587838,-8.741057740638352,0.04,-0.57,0.5866666666666667,9.295669452123649,31.365099388979644,-227.08258886497865
1588959887.3921287,1.2594683525020947,3.8761962068702873,-8.714069616878666,0.04,-0.57,0.5866666666666667,8.368354406276183,31.68520546119278,-210.6252761063295
1588959887.4021287,1.2052862754433995,4.010255683847161,-8.63834353053208,0.04,-0.57,0.5866666666666667,7.734470598738246,28.054127484823237,-191.82035323175813
1588959887.4121287,1.108636533084809,4.029659133271202,-8.653901444547996,0.09424231127679403,-0.5571927876152014,0.5828998394946671,7.308239165890028,25.974434995340168,-177.23108108108107
1588959887.4221287,1.0095962199312716,4.149436671575847,-8.652741777123222,0.12,-0.5511111111111111,0.5811111111111111,6.540316642120766,22.98485824742268,-160.0502884143348
1588959887.4321287,0.9383562448595935,4.284481259546469,-8.755675008812124,0.12,-0.5511111111111111,0.5811111111111111,6.052226530372459,21.028867054400187,-145.9539052402773
1588959887.4421287,0.8990429802314449,4.4671679067501975,-8.646171920925779,0.12,-0.5511111111111111,0.5811111111111111,5.767822351735837,19.651611758679184,-135.5284456406725
1588959887.4521286,0.8502532036436622,4.6830378261540835,-8.528354485101127,0.12,-0.5511111111111111,0.5811111111111111,5.215981550100355,18.193830091091556,-120.68039215686275
1588959887.4621286,0.8969525832033713,4.83651723794671,-8.490435345256662,0.15613314014150192,-0.5202916680492418,0.5811111111111111,4.339709078541328,15.595231774894648,-98.04986602846998
1588959887.4721286,0.8667850646829208,4.773570129365842,-8.49,0.15777777777777774,-0.5188888888888888,0.5811111111111111,3.689719962804766,13.631659888414298,-82.93666080807668
1588959887.4821286,0.9336976998904709,4.815273274917853,-8.612829499817451,0.15777777777777774,-0.5188888888888888,0.5811111111111111,3.2938104691493244,11.407557502738225,-70.05848735852501
1588959887.4921286,0.9195798915849251,4.742586473928756,-8.669859963861642,0.15777777777777774,-0.5188888888888888,0.5811111111111111,2.7473743224057823,8.152079568921012,-53.8683571566856
1588959887.5021286,0.8774908417694095,4.765054949383543,-8.559926734155276,0.15777777777777774,-0.5188888888888888,0.5811111111111111,2.2497710442352385,5.600446340646788,-40.439044835939654
1588959887.5121286,0.9249553544675495,4.974866063402649,-8.506869419308444,0.19288814313204555,-0.5104929319563466,0.5933234121038999,1.289690327800084,1.682129052555882,-15.391184005513274
1588959887.5221286,0.9310461384152457,5.113179538615848,-8.472092276830491,0.2088888888888889,-0.5066666666666667,0.5988888888888889,0.9375,0.3125,-6.3125
1588959887.5321286,0.92,5.028053705562145,-8.571946294437854,0.2088888888888889,-0.5066666666666667,0.5988888888888889,0.13050246327889792,-3.363822111729465,16.911095778973937
1588959887.5421286,0.8577196161843536,4.942631769710612,-8.588859808092177,0.2088888888888889,-0.5066666666666667,0.5988888888888889,-0.5767523988477901,-6.7587619942389505,36.92264192785334
1588959887.5521286,0.8008839759950335,4.8626519279851,-8.573823204800993,0.2088888888888889,-0.5066666666666667,0.5988888888888889,-0.9797652100434573,-9.442886890391115,50.97914439194316
1588959887.5621285,0.7722974493623406,4.703373968492123,-8.570810202550637,0.2109310660998583,-0.5081982995748937,0.5988888888888889,-1.4510268192048013,-12.592952925731433,67.88714366091523
1588959887.5721285,0.7263458646616541,4.165740064446831,-8.654973147153598,0.21777777777777774,-0.5133333333333333,0.5988888888888889,-2.5082438238453277,-18.64081632653061,100.73360633727175
1588959887.5821285,0.71,4.07,-8.69,0.21777777777777774,-0.5133333333333333,0.5988888888888889,-2.625,-19.75,105.8125
1588959887.5921285,0.921992343541944,4.027416985685752,-8.752250957057257,0.21777777777777774,-0.5133333333333333,0.5988888888888889,-4.442109739097869,-20.79543811376498,134.55970684920106
1588959887.6021285,1.1870964590964592,4.037931623931623,-8.72743833943834,0.21777777777777774,-0.5133333333333333,0.5988888888888889,-6.394093406593407,-18.595467032967033,155.48136446886446
1588959887.6121285,1.4026902082881747,3.954752005044633,-8.682690208288175,0.19964107347341822,-0.5283608883283741,0.599407080440442,-6.608462076575956,-23.544030927936628,174.90001009911916
1588959887.6221285,1.4671850961538462,3.8204162087912086,-8.650208104395604,0.17888888888888888,-0.5455555555555556,0.6,-6.885405219780219,-27.1634035885989,189.35987079326924
1588959887.6321285,1.5952618708711999,3.738952516515201,-8.72062849009088,0.17888888888888888,-0.5455555555555556,0.6,-7.438154677177999,-29.11044426803898,202.0312716704989
1588959887.6421285,1.5910795210795212,3.564806754806755,-8.785784095784095,0.17888888888888888,-0.5455555555555556,0.6,-7.897656585156585,-31.808168558168557,215.4929751179751
1588959887.6521285,1.8082118410984966,3.503561842132473,-8.744932894927311,0.17888888888888888,-0.5455555555555556,0.6,-8.469169406704303,-34.033347033521515,229.85246706784955
1588959887.6621284,1.987197683299389,3.476401158350306,-8.696401158350305,0.12906911207286717,-0.5735245530663046,0.5877635635890472,-9.018314027494908,-35.94327782904786,244.3370294201884
1588959887.6721284,2.224234085971957,3.315355802777961,-8.767322098611018,0.11555555555555555,-0.5811111111111111,0.5844444444444444,-9.704915739582647,-37.55481041406096,256.7477412612731
1588959887.6821284,2.35887775114404,3.2136454763366946,-8.83383129618257,0.11555555555555555,-0.5811111111111111,0.5844444444444444,-10.109810515263773,-38.7984718893005,266.4345049426494
1588959887.6921284,2.4591881598421312,3.116258904785397,-8.882764676862358,0.11555555555555555,-0.5811111111111111,0.5844444444444444,-10.449190922545634,-39.910072767636905,274.9675678342378
1588959887.7021284,2.5861503607987917,2.983849639201208,-8.861871119315321,0.11555555555555555,-0.5811111111111111,0.5844444444444444,-10.963238378922638,-40.825537002852826,284.4736428091962
1588959887.7121284,2.7631939208526597,2.814909898351919,-8.79,0.08494112744936785,-0.5941672642740441,0.5907474149368949,-11.552271045100168,-41.98603079048653,294.99265395243265
1588959887.7221284,2.8240389873580596,2.5988467848296715,-8.816586354424679,0.04,-0.6133333333333333,0.6,-12.049878164506064,-43.083835284845755,305.20550189789947
1588959887.7321284,2.7439517745167756,2.376747042472041,-8.938136488029823,0.04,-0.6133333333333333,0.6,-12.834286853276446,-42.01892629344711,317.30064833969016
1588959887.7421284,2.786705705596988,2.1418738686554195,-9.026588588806023,0.04,-0.6133333333333333,0.6,-13.785322840489465,-40.09626497900224,328.2127629244805
1588959887.7521284,2.771609062486616,1.750774765514583,-9.042097734378345,0.04,-0.6133333333333333,0.6,-15.228992676345882,-37.062127928390936,341.5438750053535
1588959887.7621284,2.787008175633183,1.2415282145103197,-9.076861814647533,0.0011996010646745311,-0.6461644401247626,0.5858229311582465,-18.157420244697274,-32.57296609684981,364.3865952489852
1588959887.7721283,2.8651385116784356,0.8994459532862575,-9.069323058120586,-0.017777777777777778,-0.6622222222222223,0.5788888888888889,-20.488270640956003,-33.08115494296578,378.24885422324826
1588959887.7821283,3.077201933786762,0.40553878237789415,-9.146915183543854,-0.017777777777777778,-0.6622222222222223,0.5788888888888889,-22.315725940232717,-37.97075917719269,388.30899116050904
1588959887.7921283,3.2677279082774047,0.047120152870991805,-9.255151938851602,-0.017777777777777778,-0.6622222222222223,0.5788888888888889,-23.60795931208054,-42.93467736297539,396.89113476416856
1588959887.8021283,3.220011937595192,-0.24553101716543863,-9.223341291730128,-0.017777777777777778,-0.6622222222222223,0.5788888888888889,-24.798515776149507,-46.555302710657394,404.3189138846581
1588959887.8121283,3.07028502009158,-0.7649126249883188,-9.20802635267732,-0.00017298487161116968,-0.7368665441443687,0.5056529503992357,-26.269326464816373,-51.656527427343235,413.3016774133259
1588959887.8221283,3.1370606316500593,-1.1331400101334235,-9.286079378483365,0.01,-0.78,0.4633333333333333,-27.100496115521025,-56.77946503968924,420.80276980239825
1588959887.8321283,3.1892835551368117,-1.4725792015074786,-9.390716444863187,0.01,-0.78,0.4633333333333333,-27.75447778039493,-61.68266890433007,429.247502257292
1588959887.8421283,3.249892808176493,-1.827921689428607,-9.49756289952102,0.01,-0.78,0.4633333333333333,-28.422268122006376,-63.72894335036769,437.39786172788945
1588959887.8521283,3.5006180193596426,-2.148985687101845,-9.537448498386697,0.01,-0.78,0.4633333333333333,-28.95919169355506,-63.38837180441797,442.8144804335236
1588959887.8621283,3.641360953237805,-2.443214983213008,-9.506272190647561,-0.05202936077768757,-0.9782905795352308,-0.19102557913292822,-29.45019721972307,-63.16839245353405,445.02120317745937
1588959887.8721282,3.6726448056801195,-2.5836403836571997,-9.44708769307424,-0.12555555555555556,-1.2133333333333334,-0.9666666666666668,-29.4863485612855,-65.68991342800199,442.738485612855
1588959887.8821282,3.621514028949715,-2.815607463812856,-9.564672886510714,-0.12555555555555556,-1.2133333333333334,-0.9666666666666668,-28.887149562095537,-67.89252332441518,437.6745329400197
1588959887.8921282,3.5107511236383027,-2.97491404484396,-9.666416292120566,-0.12555555555555556,-1.2133333333333334,-0.9666666666666668,-28.34428721972525,-68.1296945227394,432.29654846245654
1588959887.9021282,3.49434407072452,-3.0509033634793212,-9.630408495071638,-0.12555555555555556,-1.2133333333333334,-0.9666666666666668,-27.72795574636724,-67.63830530433899,426.23090260136166
1588959887.9121282,3.4392273512712914,-3.09,-9.625386324364355,-0.740468745714364,-0.7316983460873858,-0.03512959763021484,-26.938672549987658,-66.36051283633671,418.0813996544063
1588959887.9221282,3.1317523727934713,-3.205370967378317,-9.687505692449896,-1.0944444444444446,-0.4544444444444444,0.5011111111111111,-26.00884725071578,-65.43075782852763,409.22695685010257
1588959887.9321282,2.9083947349764867,-3.2272838339201737,-9.729629699647896,-1.0944444444444446,-0.4544444444444444,0.5011111111111111,-25.03317667840348,-66.92670351159109,401.5902607108254
1588959887.9421282,3.0126617297750453,-3.1591127567416515,-9.701834567556238,-1.0944444444444446,-0.4544444444444444,0.5011111111111111,-24.051409459270644,-68.80639146988962,395.325468073215
1588959887.9521282,3.1,-3.1874993172010706,-9.70395804883378,-1.0944444444444446,-0.4544444444444444,0.5011111111111111,-23.178391462282185,-67.81772682580434,387.91672925656854
1588959887.9621282,3.0139946265448683,-3.245221923696937,-9.701331542181624,-0.9558802316556213,-0.3095094632515374,0.5834002029971939,-22.08746641590543,-63.28801719505642,376.09545271359485
1588959887.9721282,2.866357830085431,-3.24,-9.67,-0.8044444444444444,-0.1511111111111111,0.6733333333333333,-21.164736438033945,-57.98034821705679,363.9056512275601
1588959887.9821281,2.7409273457466226,-3.200618230497749,-9.692972698876313,-0.8044444444444444,-0.1511111111111111,0.6733333333333333,-20.462841264046084,-54.6141485132449,352.693584945844
1588959887.9921281,2.4498523470989824,-3.0662691622417837,-9.713134581120892,-0.8044444444444444,-0.1511111111111111,0.6733333333333333,-19.53918226401115,-53.08862150934077,337.8452048088627
1588959888.0021281,2.1353982300884957,-2.95385216033316,-9.615393024466425,-0.8044444444444444,-0.1511111111111111,0.6733333333333333,-18.83657600208225,-53.06246746486205,326.7937597605414
1588959888.012128,1.8439566255058628,-2.775275500674484,-9.522307149527862,-0.7542129754534029,-0.08136824507396262,0.6866176887689807,-17.58036344298018,-54.769218895921966,314.2727067552143
1588959888.022128,1.7412198581560283,-2.7597517730496453,-9.649510638297873,-0.67,0.03555555555555556,0.7088888888888889,-15.95886524822695,-57.86733156028369,303.4117464539007
1588959888.032128,1.5469878698808923,-2.888192765798767,-9.741325319704314,-0.67,0.03555555555555556,0.7088888888888889,-14.375752648665248,-60.00225931694049,293.0587326438395
1588959888.042128,1.3210219197277548,-2.850888799919928,-9.793288960064057,-0.67,0.03555555555555556,0.7088888888888889,-13.121108998098288,-60.25555499949955,284.4419289860875
1588959888.052128,1.2147795846785443,-2.8501259516122603,-9.739559169357088,-0.67,0.03555555555555556,0.7088888888888889,-12.090404410299334,-58.86712802423373,276.5357352823947
1588959888.062128,1.142538064678495,-2.902110230275576,-9.739572165597082,-0.6182668512226837,0.10572235504662834,0.7267279057086532,-11.161122121555303,-55.48431798162829,267.83044702403424
1588959888.072128,0.9307615576744844,-2.9556054917607884,-9.73598627059803,-0.5733333333333334,0.16666666666666666,0.7422222222222222,-10.705810450996717,-48.34386732433749,260.52343443189494
1588959888.082128,0.6531337523870147,-2.9856627943984724,-9.691203453214513,-0.5733333333333334,0.16666666666666666,0.7422222222222222,-10.576053767504774,-39.29825747931254,254.3110478994271
1588959888.092128,0.46661302631865853,-2.9360264712936917,-9.815733193781208,-0.5733333333333334,0.16666666666666666,0.7422222222222222,-10.351998430038595,-33.4026732953926,244.19080891171149
1588959888.102128,0.33846183851254713,-2.7648723616348114,-9.742307892341698,-0.5733333333333334,0.16666666666666666,0.7422222222222222,-9.789263966540979,-35.64342521561999,236.20995048324883
1588959888.112128,0.2392340351411962,-2.5723120468549285,-9.706936140564784,-0.5439212214021159,0.19607877859788417,0.7456422352374801,-9.298049707156698,-37.28368786605413,228.37890276296022
1588959888.122128,0.2139249124627156,-2.6219405178748976,-9.708820083862879,-0.4777777777777778,0.26222222222222225,0.7533333333333333,-9.097574352656379,-36.00530221977262,220.7189175096183
1588959888.132128,0.08762141636605278,-2.622544142775774,-9.488603759255744,-0.4777777777777778,0.26222222222222225,0.7533333333333333,-8.930842984621227,-30.369377729257643,211.54466726789443
1588959888.142128,0.2707376958641693,-2.265437173559718,-9.686027330251054,-0.4777777777777778,0.26222222222222225,0.7533333333333333,-8.433811520679154,-29.31342211983021,198.07237112019314
1588959888.152128,0.3699440235847296,-2.100049259245438,-9.600017912452886,-0.4777777777777778,0.26222222222222225,0.7533333333333333,-7.937332070754189,-29.43657638914804,188.18335774527
1588959888.162128,0.18036803705271548,-2.25585896063149,-9.642269976842053,-0.45304365148534576,0.2886332384327852,0.7499795534970713,-6.810199768420528,-24.204180569735303,162.188657897358
1588959888.172128,0.1820042432424986,-2.1919981814675005,-9.626664646075001,-0.4122222222222222,0.3322222222222222,0.7444444444444445,-5.80834975064062,-20.566744964593724,139.517112459703
1588959888.182128,0.18227134146341464,-2.225030487804878,-9.713681402439024,-0.4122222222222222,0.3322222222222222,0.7444444444444445,-4.977372332317073,-17.541015625,119.0255811737805
1588959888.192128,0.37559574525091766,-2.229097875304772,-9.734187230394127,-0.4122222222222222,0.3322222222222222,0.7444444444444445,-4.207579776545294,-15.433882927417411,101.36683479355894
1588959888.202128,0.8523076118778753,-2.5772749372647428,-9.466096560016728,-0.4122222222222222,0.3322222222222222,0.7444444444444445,-2.8001228565453786,-11.839914000418235,68.34809899100794
1588959888.212128,2.545982069554366,-3.1667856556434932,-9.765982069554365,-0.3744138670870141,0.3545428174225258,0.7444444444444445,1.4310819020721817,-14.878626728186266,14.546184854356177
1588959888.222128,2.836880986614285,-3.4305787651120876,-9.920932342398899,-0.32,0.38666666666666666,0.7444444444444445,7.23834572001377,-13.15514190680626,-60.909994481683235
1588959888.232128,2.3329397340889275,-3.581219485614647,-9.69197689625109,-0.32,0.38666666666666666,0.7444444444444445,8.748556015693113,4.5138779152136,-136.96228612685266
1588959888.242128,3.8292623814541624,-1.9587144362486828,-10.223435194942045,-0.32,0.38666666666666666,0.7444444444444445,-6.235906217070601,-7.068624868282402,-127.39034510010538
1588959888.252128,5.776682761408551,2.6025105551563064,-5.955633084800574,-0.32,0.38666666666666666,0.7444444444444445,-21.176126538357888,-71.2356466717571,-44.11689554886813
1588959888.2621279,2.9669702628932626,4.703766084511667,1.961868573891272,-0.32348499462994507,0.3959599856798535,0.7467677741977412,-9.867559310033451,-82.38299351488908,-56.57677083547109
1588959888.2721279,-1.9372200772200774,-2.025940430226145,-2.0825041367898507,-0.3333333333333333,0.4222222222222222,0.7533333333333333,13.125586045228902,57.78874793160507,-197.09300882515168
1588959888.2821279,-1.4364202236685966,-2.787768707972239,-3.797596461577187,-0.3333333333333333,0.4222222222222222,0.7533333333333333,12.913703746988386,124.99200798302708,-140.16495334244308
1588959888.2921278,-2.976510456466478,-1.1870544110537562,-17.80500007797514,-0.3333333333333333,0.4222222222222222,0.7533333333333333,2.080512257692248,183.4544995555417,-67.05222872448263
1588959888.3021278,-0.09191943608377606,-0.25168816181401366,-12.15355644620495,-0.3333333333333333,0.4222222222222222,0.7533333333333333,-5.523426656581881,173.72472825663178,-15.21462365297944
1588959888.3121278,0.0264868429316083,-0.5980358600766187,-4.2492247063995485,-0.363621386254684,0.4024890968340695,0.764347170759279,17.09420924134899,58.195161872762675,14.778761461408026
1588959888.3221278,1.1142781780751416,-1.1040800308800822,-9.284055584148225,-0.4066666666666667,0.3744444444444445,0.78,-6.3396165723108595,-36.53833472722594,2.7685762995367984
1588959888.3321278,1.1494961070292795,-1.5080244544357932,-11.281444237306722,-0.4066666666666667,0.3744444444444445,0.78,-16.415533501480425,-92.00918412106591,-4.999828654457725
1588959888.3421278,0.6635158688865764,-1.6863592611862643,-11.03234391259105,-0.4066666666666667,0.3744444444444445,0.78,-10.236431776795005,-119.86425273152966,-6.8064963254422475
1588959888.3521278,-0.6783064862762758,-4.4206426919376955,-10.817865198436252,-0.4066666666666667,0.3744444444444445,0.78,-1.5129229179032686,-99.977963751356,-1.9530914198579525
1588959888.3621278,-2.0048500710869845,-5.303181142561717,-10.056413338503296,-0.42293104562491923,0.3813116266712623,0.7778314161388997,3.0150857890655294,-25.455225297272843,1.4767230515703762
1588959888.3721278,-0.5799314324196091,1.3614948650841023,-9.076502135084255,-0.4566666666666666,0.3955555555555556,0.7733333333333333,1.588820270290953,37.47805320874849,-0.26114510155042336
1588959888.3821278,-0.7789355189249583,-2.040833065491223,-9.86609899444419,-0.4566666666666666,0.3955555555555556,0.7733333333333333,1.2678459372178092,48.511545908137805,2.8282328542785864
1588959888.3921278,-0.3939366836395838,-1.9999849457604604,-9.744645561213193,-0.4566666666666666,0.3955555555555556,0.7733333333333333,0.07852557006862965,23.24057172902369,3.628016382554793
1588959888.4021277,-0.7680335832980393,-2.2282353820473855,-9.771226986222874,-0.4566666666666666,0.3955555555555556,0.7733333333333333,-0.6436975260968136,4.954835073120905,0.8785719624305539
1588959888.4121277,-0.86,-2.024896216246096,-9.501632072082032,-0.4487692435256073,0.3934953582144097,0.7781404604626737,-0.19097039882811423,-3.7172255465575854,-0.6147995494873
1588959888.4221277,-0.8302224509779307,-2.1274606442541866,-9.592539355745814,-0.4311111111111111,0.3888888888888889,0.7888888888888889,0.36706451329433326,-0.836712885083733,-0.23273870797659996
1588959888.4321277,-0.8103630884961426,-2.143307118586113,-9.633709529203086,-0.4311111111111111,0.3888888888888889,0.7888888888888889,0.06023069689910884,0.1597768362789306,-0.125
1588959888.4421277,-0.8065961298817333,-2.1731710987279866,-9.636723096094613,-0.4311111111111111,0.3888888888888889,0.7888888888888889,-0.3337741882391667,0.00013225647175001132,-0.10412258117608333
1588959888.4521277,-0.7479795711105035,-2.041278856294676,-9.666061286668489,-0.4311111111111111,0.3888888888888889,0.7888888888888889,-0.6003830416780594,0.29124106480215617,0.020620532401078084
1588959888.4621277,-0.7714054995003385,-2.1014054995003386,-9.597189000999323,-0.43267277722259834,0.3888888888888889,0.7916998878895658,-0.09965628122884498,0.4864688436865349,0.21486251249153798
1588959888.4721277,-0.7905057402781915,-2.1415172208345745,-9.576498086573936,-0.44222222222222224,0.3888888888888889,0.8088888888888889,0.5469347945644951,-0.6653738628291208,0.021886958912899015
1588959888.4821277,-0.81,-2.175019055897299,-9.57908397967371,-0.44222222222222224,0.3888888888888889,0.8088888888888889,0.5370942263974325,-0.09637436480342337,0.03411256351965766
1588959888.4921277,-0.81,-2.097897332174378,-9.60712824284568,-0.44222222222222224,0.3888888888888889,0.8088888888888889,-0.12019319169564058,-0.9727575889275208,-0.05352575889275206
1588959888.5021276,-0.76,-2.0785201776625555,-9.663430488572027,-0.44222222222222224,0.3888888888888889,0.8088888888888889,-0.379063887988715,0.567685001620313,-0.0625
1588959888.5121276,-0.7604729389779343,-2.11,-9.745980018687558,-0.44237986854820033,0.3888888888888889,0.8082583035849765,-0.6028309854093294,0.12204413138791059,-0.059544131387910586
1588959888.5221276,-0.7874455754888128,-2.112481858496271,-9.562626990526104,-0.4488888888888889,0.3888888888888889,0.7822222222222223,0.3125,-0.12409292481354565,0.0625
1588959888.5321276,-0.8085819391251764,-2.1195273130417256,-9.513308808707922,-0.4488888888888889,0.3888888888888889,0.7822222222222223,0.3125,-0.4763656520862729,0.0625
1588959888.5421276,-0.8148461945795022,-2.122884513551244,-9.63061522168199,-0.4488888888888889,0.3888888888888889,0.7822222222222223,0.24230972897511194,0.042549222548500465,0.046394358060944496
1588959888.5521276,-0.7957208101285338,-2.142883240514135,-9.6835812151928,-0.4488888888888889,0.3888888888888889,0.7822222222222223,-0.44651012660667144,-0.2011579114716821,0.013372468348332145
1588959888.5621276,-0.7795298770667265,-2.0816454302664575,-9.659529877066726,-0.4487321812444644,0.3891761862370005,0.7821699863407474,-0.2514691341664798,0.416932121669283,0.061030865833520215
1588959888.5721276,-0.7624280850543312,-2.141501702309841,-9.642428085054332,-0.4430315839069993,0.3996272813556865,0.780269787228259,-0.30491223420521496,-0.33127127887300967,0.007587765794785019
1588959888.5821276,-0.8139641243837978,-2.123017937808101,-9.559053813424303,-0.44222222222222224,0.4011111111111111,0.78,0.31989208262263125,-0.3531810556503158,-0.12647841652452624
1588959888.5921276,-0.79,-2.2098560411311055,-9.689904027420736,-0.44222222222222224,0.4011111111111111,0.78,0.18740002856326765,-0.49930019994287345,-0.12480005712653527
1588959888.6021276,-0.7856686911254338,-2.122887539249711,-9.635775078499423,-0.44222222222222224,0.4011111111111111,0.78,0.04378795860188399,-0.044452879689307556,-0.009023560155346224
1588959888.6121275,-0.7604851103224811,-2.139029779355038,-9.669191482795865,-0.4420425517324144,0.40102127586620717,0.7801437363918463,-0.4324467674741552,0.06755323252584478,-0.06047870698966209
1588959888.6221275,-0.7939358497946412,-2.093775474281244,-9.62,-0.4311111111111111,0.3955555555555556,0.7888888888888889,-0.08810140817523959,0.2889032857422257,0.03790093878349306
1588959888.6321275,-0.8102219516525886,-2.151109758262943,-9.620887806610353,-0.4311111111111111,0.3955555555555556,0.7888888888888889,0.06943598914339345,-0.06527439565735738,-0.0625
1588959888.6421275,-0.8168394103956556,-2.191571761055082,-9.656839410395655,-0.4311111111111111,0.3955555555555556,0.7888888888888889,0.3289080682699767,-0.14140806826997673,-0.06908456167571761
1588959888.6521275,-0.7924244273115536,-2.1175755726884464,-9.627575572688446,-0.4311111111111111,0.3955555555555556,0.7888888888888889,-0.18372136557768043,0.2196946586055799,-0.14015267069721005
1588959888.6621275,-0.7987468072035954,-2.1106265963982023,-9.622193087393708,-0.43191176206436965,0.39534669008948814,0.7884015361347315,-0.5527094312780885,0.13870679621067605,-0.18358377251123542
1588959888.6721275,-0.7680681378242354,-2.140085172280294,-9.679914827719706,-0.4566666666666666,0.3888888888888889,0.7733333333333333,-0.19957413859852885,0.39861595044521875,-0.04989353464963221
1588959888.6821275,-0.7963083034557054,-2.175385379319632,-9.644614620680368,-0.4566666666666666,0.3888888888888889,0.7733333333333333,-0.023073103401841488,-0.17501241394401523,-0.005768275850460372
1588959888.6921275,-0.7958833098625747,-2.12392220657505,-9.656272276987325,-0.4566666666666666,0.3888888888888889,0.7733333333333333,0.36395862671781676,-0.2732982688292138,-0.037986208905938915
1588959888.7021275,-0.813013839462238,-2.133013839462238,-9.60174654013444,-0.4566666666666666,0.3888888888888889,0.7733333333333333,0.018836496638987746,-0.450345986555951,0.029752372479240806
1588959888.7121274,-0.78,-2.100236437830053,-9.610118218915026,-0.4565812863391475,0.3888888888888889,0.7734581199658612,-0.18897773643783006,0.37278339534325494,-0.125
1588959888.7221274,-0.78,-2.1311937240793486,-9.632201568980163,-0.44222222222222224,0.3888888888888889,0.7944444444444444,-0.3274215509918553,0.05503922450407235,-0.11124019387398192
1588959888.7321274,-0.7819663868626517,-2.1098319343132586,-9.65179832117591,-0.44222222222222224,0.3888888888888889,0.7944444444444444,0.09936975367471867,0.13939073897584398,-0.0625
1588959888.7421274,-0.7896536050731279,-2.148268025365639,-9.697921630438767,-0.44222222222222224,0.3888888888888889,0.7944444444444444,0.2435050951211466,-0.2930152853634398,-0.0625
1588959888.7521274,-0.8216052508204407,-2.145036849507736,-9.576715799343647,-0.44222222222222224,0.3888888888888889,0.7944444444444444,0.2390459446788561,-0.11450656352555087,-0.07299343647444913
1588959888.7621274,-0.782277543366151,-2.1686334739803095,-9.608177965307078,-0.44222222222222224,0.3888888888888889,0.7944444444444444,-0.10507149554617906,-0.0653469292076887,-0.1221530707923113
1588959888.7721274,-0.77801660153992,-2.12801660153992,-9.61,-0.43666666666666665,0.3888888888888889,0.7944444444444444,-0.35020751924899995,0.25051879812249994,0.01239624037550001
1588959888.7821274,-0.775665463422235,-2.1237769756148235,-9.623219414651881,-0.43666666666666665,0.3888888888888889,0.7944444444444444,-0.15557560962941802,-0.023606097592645495,0.027090853611031758
1588959888.7921274,-0.8,-2.1490102446515347,-9.668737194185582,-0.43666666666666665,0.3888888888888889,0.7944444444444444,0.2922355218040684,-0.16723552180406842,-0.125
1588959888.8021274,-0.8007442550900121,-2.1755344694599277,-9.627022979639952,-0.43666666666666665,0.3888888888888889,0.7944444444444444,0.4235452170622735,-0.2985452170622735,-0.125
1588959888.8121274,-0.8068483401976337,-2.138909958814198,-9.602606639209466,-0.43666666666666665,0.3888888888888889,0.7944444444444444,0.30909362129436935,-0.18409362129436932,-0.125
1588959888.8221273,-0.793538623823434,-2.1117693119117167,-9.606461376176565,-0.45861516823542137,0.3770001172058135,0.8017606116340293,-0.21297620496592012,0.28653440441415123,-0.02211639889646219
1588959888.8321273,-0.79,-2.117436237361246,-9.624872474722492,-0.4633333333333333,0.3744444444444445,0.8033333333333333,-0.21954703298442785,0.04966461544549755,-0.18590593403114428
1588959888.8421273,-0.7715903408744436,-2.1305301136248143,-9.726819318251113,-0.4633333333333333,0.3744444444444445,0.8033333333333333,0.07243963046527227,-0.19743963046527227,0.05918678984490924
1588959888.8521273,-0.7971669004207574,-2.139055633473586,-9.675666199158485,-0.4633333333333333,0.3744444444444445,0.8033333333333333,0.2322931276297335,-0.35729312762973353,0.005902290790088825
1588959888.8621273,-0.8089056829035339,-2.14,-9.572037488061127,-0.4633333333333333,0.3744444444444445,0.8033333333333333,0.13867896370582616,0.014623627029608455,0.0
1588959888.8721273,-0.8021104869704777,-2.1321104869704777,-9.583668539088567,-0.4633333333333333,0.39110008306232497,0.8033333333333333,-0.07223782573805804,0.16111891286902902,-0.04930945643451451
1588959888.8821273,-0.79,-2.121190441284269,-9.6154757366955,-0.4633333333333333,0.3955555555555556,0.8033333333333333,-0.1651792259199531,0.1651792259199531,0.04761948394663539
1588959888.8921273,-0.79,-2.12887681425011,-9.71539858525143,-0.4633333333333333,0.3955555555555556,0.8033333333333333,-0.021059732810438353,0.021059732810438353,-0.04846017812637443
1588959888.9021273,-0.7832851571461344,-2.141095052382045,-9.624524738089777,-0.4633333333333333,0.3955555555555556,0.8033333333333333,0.3125,-0.04790854171446051,0.0
1588959888.9121273,-0.8073405597614132,-2.149113519920471,-9.584432400397645,-0.4633333333333333,0.3955555555555556,0.8033333333333333,0.3125,-0.39871649652060875,0.0
1588959888.9221272,-0.7811957014600526,-2.1728257912396844,-9.617174208760314,-0.4633333333333333,0.3888888888888889,0.7888888888888889,-0.09239253650131496,0.11752686587467126,-0.022419402375986216
1588959888.9321272,-0.79,-2.12,-9.674185983887979,-0.4633333333333333,0.3888888888888889,0.7888888888888889,-0.2950584004667549,0.07122079976662253,-0.17005840046675494
1588959888.9421272,-0.7901197267585633,-2.1201197267585634,-9.72928163944862,-0.4633333333333333,0.3888888888888889,0.7888888888888889,-0.058758538794897536,0.18375853879489754,0.06025512327693852
1588959888.9521272,-0.8006712949923956,-2.1304475299949304,-9.667314820030418,-0.4633333333333333,0.3888888888888889,0.7888888888888889,0.25,-0.12639853123415762,-0.12080440629752717
1588959888.9621272,-0.8183906945305018,-2.1422604630203343,-9.596437221877993,-0.4633333333333333,0.3888888888888889,0.7888888888888889,0.25,-0.1633139469385456,-0.010058159184363202
1588959888.9721272,-0.800532985615908,-2.132319791369545,-9.55589340287682,-0.4443434796191408,0.3928178241401012,0.8006756946425256,0.2131662320198851,-0.1506662320198851,-0.011167535960229819
1588959888.9821272,-0.7865560447699778,-2.1331120895399556,-9.566556044769978,-0.4311111111111111,0.3955555555555556,0.8088888888888889,0.023598880750555523,0.07987639906180563,-0.10347527981236113
1588959888.9921272,-0.79,-2.1200015869237485,-9.729987304610013,-0.4311111111111111,0.3955555555555556,0.8088888888888889,-0.24998512258985955,0.1875,-0.06250495913671347
1588959889.0021272,-0.7910444090009416,-2.132088818001883,-9.644777954995293,-0.4311111111111111,0.3955555555555556,0.8088888888888889,0.13805511251177002,0.03638977497645997,0.049444887488229984
1588959889.0121272,-0.7991043256019524,-2.1482086512039045,-9.604478371990238,-0.4311111111111111,0.3955555555555556,0.8088888888888889,0.23880407002440476,-0.16510814004880953,-0.05130407002440476
1588959889.0221272,-0.8076408501219438,-2.15,-9.561795749390281,-0.4311111111111111,0.3955555555555556,0.81568075566395,0.20224468673785173,-0.13974468673785173,-0.1580106265242965
1588959889.0321271,-0.8173642675191048,-2.1391214225063684,-9.574057239898108,-0.4311111111111111,0.3955555555555556,0.8177777777777778,-0.08446443734079218,0.07348221867039609,-0.11950889066480196
1588959889.0421271,-0.7964147644972779,-2.1321382548324257,-9.685787922681186,-0.4311111111111111,0.3955555555555556,0.8177777777777778,-0.2590436291893512,0.1607718145946756,-0.0758640927026622
1588959889.0521271,-0.7812326632682505,-2.12,-9.684453015292872,-0.4311111111111111,0.3955555555555556,0.8177777777777778,-0.04709170914686929,0.050943781860151964,-0.18364792728671733
1588959889.062127,-0.7973692411272483,-2.12,-9.611838414927382,-0.4311111111111111,0.3955555555555556,0.8177777777777778,0.1546155140906031,-0.1003366355679523,-0.1332211214773492
1588959889.072127,-0.7950625879043601,-2.12987482419128,-9.61481223628692,-0.43385411783091105,0.3955555555555556,0.795833724019378,0.06406469760900141,-0.032423523206751056,-0.032423523206751056
1588959889.082127,-0.7877173558476447,-2.1388586779238223,-9.637989254533245,-0.43666666666666665,0.3955555555555556,0.7733333333333333,-0.09816631488055262,0.06963326297611053,0.041100211071668426
1588959889.092127,-0.7716210304135086,-2.130810515206754,-9.69432639355272,-0.43666666666666665,0.3955555555555556,0.7733333333333333,-0.3496713997889283,0.11993427995778566,-0.10980283987335698
1588959889.102127,-0.8,-2.131972644788516,-9.710794324320258,-0.43666666666666665,0.3955555555555556,0.7733333333333333,-0.16695161678628928,-0.050170970071773575,-0.058390323357257856
1588959889.112127,-0.8,-2.1509059721031014,-9.622438796852196,-0.43666666666666665,0.3955555555555556,0.7733333333333333,0.03027054274063709,0.06816232564438227,-0.01894589145187258
1588959889.122127,-0.8,-2.151959496846066,-9.555878490538198,-0.43666666666666665,0.3955555555555556,0.7858407826838975,0.22550628942417647,-0.07601257884835294,-0.10050628942417647
1588959889.132127,-0.78,-2.1389002950329385,-9.575498524835307,-0.43666666666666665,0.3955555555555556,0.7888888888888889,0.23854473992644384,0.06479105201471123,0.12270894798528877
1588959889.142127,-0.78,-2.1134731035040213,-9.702634482479894,-0.43666666666666665,0.3955555555555556,0.7888888888888889,-0.026321838499777706,0.11776436769995555,0.06973563230004445
1588959889.152127,-0.79,-2.12,-9.649155758030103,-0.43666666666666665,0.3955555555555556,0.7888888888888889,-0.05722348768813794,-0.0660176748745747,0.11972348768813794
1588959889.162127,-0.79,-2.12,-9.624968571593334,-0.43666666666666665,0.3955555555555556,0.7888888888888889,0.09394642754166427,-0.1667976183611095,-0.03144642754166427
1588959889.172127,-0.79,-2.1428230648069944,-9.58196155865501,-0.43244017318388994,0.38541197119689147,0.7888888888888889,0.22009610336247631,-0.13995194831876184,0.03259610336247633
1588959889.182127,-0.8,-2.1495230479774223,-9.61190780809031,-0.4311111111111111,0.38222222222222224,0.7888888888888889,0.1205285747883349,-0.059519049858889936,-0.06399047507055504
1588959889.192127,-0.8,-2.136370649106303,-9.664517403574788,-0.4311111111111111,0.38222222222222224,0.7888888888888889,-0.002775164628410154,0.02268344308560677,-0.10509172154280338
1588959889.202127,-0.7768058484967648,-2.13,-9.682268616165588,-0.4311111111111111,0.38222222222222224,0.7888888888888889,-0.15914229793014692,0.0625,-0.02835770206985308
1588959889.212127,-0.7819998651586914,-2.1180001348413087,-9.632000539365235,-0.4311111111111111,0.38222222222222224,0.7888888888888889,-0.11250084275817898,-0.012499157241821018,-0.07499915724182102
1588959889.222127,-0.8109876685490377,-2.123991779032692,-9.586008220967308,-0.44354824802905934,0.3767809748206199,0.7989940626347218,0.11239723790864736,0.02494861895432368,-0.08127569052283816
1588959889.232127,-0.8061794248683678,-2.1369102875658164,-9.600730862697448,-0.4488888888888889,0.3744444444444445,0.8033333333333333,0.14431070271364926,-0.0238785945727015,-0.01931070271364925
1588959889.242127,-0.8095272485056706,-2.1296848323371136,-9.669684832337113,-0.4488888888888889,0.3744444444444445,0.8033333333333333,-0.003939595786078634,-0.06348489894651965,-0.06151510105348034
1588959889.252127,-0.7874709460288524,-2.1149806306859014,-9.654980630685902,-0.4488888888888889,0.3744444444444445,0.8033333333333333,-0.18774211642623007,-0.10943552910655752,-0.015564470893442484
1588959889.262127,-0.7870408448201457,-2.1240816896402914,-9.621836620719417,-0.4488888888888889,0.3744444444444445,0.8033333333333333,-0.16198943974817862,0.007015840377732091,0.04400528012591069
1588959889.272127,-0.7970176332923976,-2.13,-9.602982366707602,-0.45434704811630916,0.3931581332241712,0.7970954370734243,0.006580624232453591,-0.06908062423245359,-0.025220416154969075
1588959889.282127,-0.78,-2.1301352069041823,-9.571487275946007,-0.4566666666666666,0.4011111111111111,0.7944444444444444,0.12330991369772074,-0.12415495684886037,-0.06334504315113963
1588959889.292127,-0.78,-2.139416685107325,-9.67358353618057,-0.4566666666666666,0.4011111111111111,0.7944444444444444,0.007291436158442133,-0.06614571807922107,-0.12135428192077893
1588959889.302127,-0.7990399379980141,-2.14,-9.660960062001987,-0.4566666666666666,0.4011111111111111,0.7944444444444444,-0.059499806243793744,0.05649961248758749,-0.06550019375620625
1588959889.3121269,-0.8076696159530162,-2.124660768093968,-9.652330384046984,-0.4566666666666666,0.4011111111111111,0.7944444444444444,-0.15837019941270175,0.11043509970635088,-0.0625
1588959889.3221269,-0.81,-2.126857898975952,-9.608852606144287,-0.4513327452409261,0.3927292345849474,0.7845385903680692,-0.14463813140029916,-0.003585605799102498,-0.019638131400299158
1588959889.3321269,-0.81,-2.149056889757149,-9.599528444878574,-0.4488888888888889,0.3888888888888889,0.78,0.11321112196436389,-0.12205278049109097,-0.11910556098218195
1588959889.3421268,-0.803527308140556,-2.1564726918594443,-9.66472691859444,-0.4488888888888889,0.3888888888888889,0.78,0.1654543241215256,-0.125,-0.08454567587847439
1588959889.3521268,-0.8,-2.16,-9.660452281330942,-0.4488888888888889,0.3888888888888889,0.78,-0.059673241681609895,0.0727385933452879,-0.11193464833632197
1588959889.3621268,-0.7867846660784702,-2.1335693321569407,-9.630176999117705,-0.4488888888888889,0.3888888888888889,0.78,-0.0837020814952194,0.1662979185047806,-0.0011062444856582143
1588959889.3721268,-0.78,-2.12,-9.62,-0.45589434697855746,0.4069029239766082,0.7940109161793373,0.050087719298245625,0.018618421052631562,0.006206140350877187
1588959889.3821268,-0.8067963542375187,-2.140097265678139,-9.59990273432186,-0.4566666666666666,0.4088888888888889,0.7955555555555556,0.0625,-0.04186930349612297,0.0
1588959889.3921268,-0.7938255111524164,-2.15,-9.668523466542752,-0.4566666666666666,0.4088888888888889,0.7955555555555556,0.007969814900867407,-0.1170301850991326,-0.05453018509913259
1588959889.4021268,-0.7983950563652555,-2.1248148309042336,-9.629629661808465,-0.4566666666666666,0.4088888888888889,0.7955555555555556,0.10493820456569429,0.032407306848541456,-0.0625
1588959889.4121268,-0.8,-2.1269123207105562,-9.62,-0.4566666666666666,0.4088888888888889,0.7955555555555556,-0.047808017763908056,0.10570200444097702,-0.019297995559022986
1588959889.4221268,-0.7940094915254238,-2.124009491525424,-9.614009491525422,-0.4480137099811676,0.39690787193973637,0.7948899435028248,-0.050118644067796606,0.012677966101694915,0.0374406779661017
1588959889.4321268,-0.79,-2.1382277622956996,-9.619113881147848,-0.44222222222222224,0.3888888888888889,0.7944444444444444,0.1139235143481208,-0.1194617571740604,0.0055382428259396
1588959889.4421268,-0.79,-2.1493267056162835,-9.703940350546551,-0.44222222222222224,0.3888888888888889,0.7944444444444444,0.125,-0.3581676404070863,0.0
1588959889.4521267,-0.7992473856054513,-2.15,-9.654515686367294,-0.44222222222222224,0.3888888888888889,0.7944444444444444,0.06720383996593006,-0.08601919982965034,0.05779616003406994
1588959889.4621267,-0.7926028129234175,-2.135205625846835,-9.62041125169367,-0.44222222222222224,0.3888888888888889,0.7944444444444444,-0.029964838457281345,0.12242967691456269,0.016267580771359327
1588959889.4721267,-0.771800996624337,-2.1390995016878316,-9.591800996624336,-0.45536594688242327,0.3888888888888889,0.7954555001875369,-0.005628114451052879,0.1875,0.0
1588959889.4821267,-0.777927333117304,-2.132072666882696,-9.605854666234608,-0.4566666666666666,0.3888888888888889,0.7955555555555556,0.19818332793259882,-0.10977499189889828,0.0
1588959889.4921267,-0.7992234010306154,-2.1203882994846923,-9.68689360412246,-0.4566666666666666,0.3888888888888889,0.7955555555555556,0.06978061533798122,-0.12742687177932707,0.0
1588959889.5021267,-0.7833540067546823,-2.1366459932453177,-9.631739023641387,-0.4566666666666666,0.3888888888888889,0.7955555555555556,0.01048127110838195,0.031056186674854158,0.0
1588959889.5121267,-0.7854290126435672,-2.1508580252871345,-9.603712962069299,-0.4566666666666666,0.3888888888888889,0.7955555555555556,-0.03393132902229514,0.16429398706688542,0.0
1588959889.5221267,-0.7953449502133713,-2.1439651493598864,-9.600689900426742,-0.4459767662399241,0.39245218903113643,0.7836778884147305,-0.0625,0.08297030583214796,0.0
1588959889.5321267,-0.8,-2.135479417214693,-9.59356174835592,-0.43666666666666665,0.3955555555555556,0.7733333333333333,0.04023907277549685,-0.0625,-0.03424635759183229
1588959889.5421267,-0.8,-2.1534960443037976,-9.647480221518988,-0.43666666666666665,0.3955555555555556,0.7733333333333333,0.125,-0.020324861550632914,0.021850276898734172
1588959889.5521266,-0.8,-2.141389967071982,-9.648983278453303,-0.43666666666666665,0.3955555555555556,0.7733333333333333,0.08622909806662865,-0.03877090193337135,0.10127090193337135
1588959889.5621266,-0.7940841941575031,-2.135915805842497,-9.624084194157502,-0.43666666666666665,0.3955555555555556,0.7733333333333333,0.025526213484394093,-0.025526213484394093,0.0880262134843941
1588959889.5721266,-0.7957635332458628,-2.1227094002624116,-9.614236466754136,-0.43346470375229845,0.3955555555555556,0.7906239330709217,-0.0360220827866424,0.0360220827866424,0.0264779172133576
1588959889.5821266,-0.8,-2.11,-9.61,-0.4311111111111111,0.3955555555555556,0.8033333333333333,-0.012707129619535594,-0.13667148152185762,0.09958574076092881
1588959889.5921266,-0.8086861348754959,-2.1273722697509916,-9.679489079003966,-0.4311111111111111,0.3955555555555556,0.8033333333333333,0.05428834297184916,-0.07892331405630168,-0.037865028915547466
1588959889.6021266,-0.81,-2.13,-9.662856256206554,-0.4311111111111111,0.3955555555555556,0.8033333333333333,0.0625,-0.005950533763654418,-0.005950533763654418
1588959889.6121266,-0.8035931405514459,-2.136406859448554,-9.615151983860121,-0.4311111111111111,0.3955555555555556,0.8033333333333333,0.0625,0.04004287155346335,0.0800857431069267
1588959889.6221266,-0.8,-2.1326767532929867,-9.604646493414027,-0.4351795815038962,0.38579122661287135,0.7813635932122938,-0.07481087575649698,0.10827029191883232,0.03345941616233536
1588959889.6321266,-0.7917525575600758,-2.13,-9.601752557560076,-0.43666666666666665,0.38222222222222224,0.7733333333333333,-0.07345348475047317,0.125,0.10309303049905365
1588959889.6421266,-0.8147974601962141,-2.1134683598691906,-9.666126560523237,-0.43666666666666665,0.38222222222222224,0.7733333333333333,0.09248412622633853,0.02167724918244099,0.125
1588959889.6521266,-0.7906504168253565,-2.1246747915873216,-9.643313021031696,-0.43666666666666665,0.38222222222222224,0.7733333333333333,0.17085872371038044,-0.09171744742076086,0.07914127628961956
1588959889.6621265,-0.7888873753197415,-2.134443687659871,-9.616668937020387,-0.43666666666666665,0.38222222222222224,0.7733333333333333,0.10418085637742361,-0.06945390425161574,0.006953904251615732
1588959889.6721265,-0.7958940761082778,-2.14,-9.593841114162416,-0.4391758423782747,0.38222222222222224,0.7765268296935617,0.012831012161632013,0.012831012161632013,-0.07533101216163202
1588959889.6821265,-0.7943217540615507,-2.1256782459384493,-9.605804385153876,-0.4488888888888889,0.38222222222222224,0.7888888888888889,0.01774451855765421,0.10725548144234578,-0.08024451855765422
1588959889.6921265,-0.7915595099478561,-2.103119019895712,-9.712845390573584,-0.4488888888888889,0.38222222222222224,0.7888888888888889,0.052753062825899866,0.01949387434820027,-0.009746937174100134
1588959889.7021265,-0.795581431624265,-2.116744294872795,-9.679767115381615,-0.4488888888888889,0.38222222222222224,0.7888888888888889,0.02761605234834423,-0.03488394765165577,0.0
1588959889.7121265,-0.8,-2.1386081871345026,-9.622783625730994,-0.4488888888888889,0.38222222222222224,0.7888888888888889,-0.05380116959064327,-0.0625,0.08070175438596491
1588959889.7221265,-0.8,-2.135937812261212,-9.59062520817414,-0.45565957187423123,0.38222222222222224,0.7956595718742312,-0.0957037755441917,-0.033203775544191697,0.1582037755441917
1588959889.7321265,-0.8,-2.125314695340502,-9.601258781362008,-0.4633333333333333,0.38222222222222224,0.8033333333333333,-0.029283154121863803,0.0,0.025349462365591394
1588959889.7421265,-0.8,-2.13,-9.678388654346891,-0.4633333333333333,0.38222222222222224,0.8033333333333333,0.0,0.0,-0.0625
1588959889.7521265,-0.7837169201917067,-2.13,-9.643009220670974,-0.4633333333333333,0.38222222222222224,0.8033333333333333,0.10176924880183372,0.0,0.03926924880183372
1588959889.7621264,-0.78,-2.136569778415311,-9.597151107923446,-0.4633333333333333,0.38222222222222224,0.8033333333333333,0.0018166547129213756,0.04106111509569288,0.02143888490430712
1588959889.7721264,-0.78,-2.1246388987624005,-9.572319449381201,-0.4522392046617335,0.3873425893014222,0.7871188375825336,-0.014496558632500725,0.014496558632500725,0.048003441367499275
1588959889.7821264,-0.7862681427257812,-2.126268142725781,-9.576268142725782,-0.4488888888888889,0.3888888888888889,0.7822222222222223,-0.0783517840722644,0.0783517840722644,-0.015851784072264397
1588959889.7921264,-0.79,-2.1367903602135074,-9.668274682775595,-0.4488888888888889,0.3888888888888889,0.7822222222222223,0.04475900533768018,-0.08719875667210022,0.06481925400326013
1588959889.8021264,-0.7965726471073018,-2.146572647107302,-9.67056411735619,-0.4488888888888889,0.3888888888888889,0.7822222222222223,0.125,-0.0642628667380913,0.0017628667380912982
1588959889.8121264,-0.7947476340694006,-2.1447476340694007,-9.628990536277602,-0.4488888888888889,0.3888888888888889,0.7822222222222223,0.125,-0.032827287066246054,0.003154574132492108
1588959889.8221264,-0.7939924201180955,-2.14,-9.586045479291428,-0.4391296397113224,0.3888888888888889,0.7822222222222223,0.125,-0.037547374261903764,0.0625
1588959889.8321264,-0.7897303161810292,-2.14,-9.570539367637942,-0.4244444444444445,0.3888888888888889,0.7822222222222223,0.09290723806571606,0.06418552386856788,0.15877828580285183
1588959889.8421264,-0.8109687277708986,-2.1322578180572753,-9.65967963748452,-0.4244444444444445,0.3888888888888889,0.7822222222222223,0.014111362857970856,0.125,0.1532227257159417
1588959889.8521264,-0.8089333974433373,-2.1410666025566627,-9.685533301278332,-0.4244444444444445,0.3888888888888889,0.7822222222222223,0.03458313298957107,0.09041686701042892,0.09041686701042892
1588959889.8621264,-0.7918390992167103,-2.13367819843342,-9.65735639686684,-0.4244444444444445,0.3888888888888889,0.7822222222222223,0.03699718505221932,0.03699718505221932,0.08800281494778067
1588959889.8721263,-0.7839791752943265,-2.1259167011773057,-9.602041649411346,-0.43417131738613135,0.3888888888888889,0.7822222222222223,0.0,0.04973969117908064,0.07526030882091936
1588959889.8821263,-0.7944520734990053,-2.1410958530019895,-9.59,-0.4488888888888889,0.3888888888888889,0.7822222222222223,0.05565091873756486,0.125,0.02782545936878243
1588959889.8921263,-0.8,-2.13,-9.632723723415186,-0.4488888888888889,0.3888888888888889,0.7822222222222223,0.09533074762834344,-0.023346261858282813,0.03283074762834344
1588959889.9021263,-0.8,-2.1385807851947756,-9.671419214805224,-0.4488888888888889,0.3888888888888889,0.7822222222222223,0.0625,-0.1606850462663265,0.05362990746734702
1588959889.9121263,-0.8,-2.15,-9.636722752949712,-0.4488888888888889,0.3888888888888889,0.7822222222222223,0.09159655881285954,-0.06680688237428092,0.06680688237428092
1588959889.9221263,-0.8113061196534366,-2.15,-9.598693880346563,-0.4463764178547919,0.3863764178547919,0.7901783804968627,0.07789116811068114,-0.07066324783397829,0.02355441594465943
1588959889.9321263,-0.8160128011308975,-2.1406752007539316,-9.593987198869103,-0.44222222222222224,0.38222222222222224,0.8033333333333333,-0.05827999528792728,-0.041800011780181806,-0.024919992931890914
1588959889.9421263,-0.8,-2.1360755897731485,-9.664680307958335,-0.44222222222222224,0.38222222222222224,0.8033333333333333,-0.08702756391782288,0.049055127835645765,-0.08702756391782288
1588959889.9521263,-0.8,-2.1201305787150564,-9.666884297858427,-0.44222222222222224,0.38222222222222224,0.8033333333333333,-0.10389462767696583,-0.041394627676965834,-0.10389462767696583
1588959889.9621263,-0.8,-2.1198624502861576,-9.625343874284606,-0.44222222222222224,0.38222222222222224,0.8033333333333333,-0.06335968571151421,-0.12414031428848579,-0.06335968571151421
1588959889.9721262,-0.7966896898153962,-2.1333103101846036,-9.590069069446189,-0.44442909567862476,0.38222222222222224,0.7985517741777945,-0.020689438653773703,-0.1668105613462263,0.020689438653773703
1588959889.9821262,-0.793384996269416,-2.143384996269416,-9.573384996269416,-0.4488888888888889,0.38222222222222224,0.7888888888888889,-0.020187546632300074,-0.06153131994845011,0.04134377331615004
1588959889.9921262,-0.8,-2.15,-9.654179293624992,-0.4488888888888889,0.38222222222222224,0.7888888888888889,-0.09204019505206898,0.0625,0.0
1588959890.0021262,-0.7908701376810416,-2.1363052065215626,-9.663480550724167,-0.4488888888888889,0.38222222222222224,0.7888888888888889,-0.13043836050651017,0.0625,-0.02853081974674491
1588959890.0121262,-0.7853643156666772,-2.1226821578333386,-9.614635684333322,-0.4488888888888889,0.38222222222222224,0.7888888888888889,-0.0625,0.028973027083267648,-0.07926348645836617
1588959890.0221262,-0.8,-2.135421369450715,-9.594578630549284,-0.4452746425884124,0.37800560153833296,0.7804556475211103,0.005267118133935295,-0.09638355906696765,-0.09111644093303235
1588959890.0321262,-0.8,-2.14,-9.574108450104434,-0.44222222222222224,0.3744444444444445,0.7733333333333333,-0.003714791231521103,-0.09189260438423945,-0.0625
1588959890.0421262,-0.8060609586605902,-2.14,-9.638792462587672,-0.44222222222222224,0.3744444444444445,0.7733333333333333,-0.024619008371311292,-0.024619008371311292,-0.0625
1588959890.0521262,-0.7901741216186204,-2.1333913738728736,-9.656956869364368,-0.44222222222222224,0.3744444444444445,0.7733333333333333,-0.04130391329454093,0.0,-0.0625
1588959890.0621262,-0.7882975844208365,-2.13,-9.64414879221042,-0.44222222222222224,0.3744444444444445,0.7733333333333333,-0.010640097369771818,0.05185990263022818,-0.0625
1588959890.0721262,-0.8,-2.131493387659266,-9.639546286385139,-0.44321781399506616,0.37842681153582025,0.7756563808033025,0.04383265425917614,0.0969989813887642,-0.07183367287041194
1588959890.0821261,-0.8036692248982361,-2.14,-9.591007674694708,-0.4488888888888889,0.4011111111111111,0.7888888888888889,-0.0625,-0.10836531122795115,-0.17086531122795115
1588959890.0921261,-0.8057587671569488,-2.1357587671569487,-9.648171095587461,-0.4488888888888889,0.4011111111111111,0.7888888888888889,-0.0625,-0.1344845894618598,-0.14396917892371958
1588959890.1021261,-0.8,-2.1252659189915657,-9.69053183798313,-0.4488888888888889,0.4011111111111111,0.7888888888888889,-0.03291199369728427,-0.03291199369728427,0.02958800630271573
1588959890.112126,-0.7934002925402244,-2.1298995611896636,-9.660200877620673,-0.4488888888888889,0.4011111111111111,0.7888888888888889,0.0,0.0,0.04187591418820088
1588959890.122126,-0.782889257453441,-2.15,-9.617110742546558,-0.4469627172532616,0.39757979644579433,0.7843944884057584,-0.018057859084006075,0.0,-0.05417357725201822
1588959890.132126,-0.79,-2.1434444597195492,-9.60344445971955,-0.44222222222222224,0.3888888888888889,0.7733333333333333,-0.0625,-0.013657375584272753,-0.13287049766290898
1588959890.142126,-0.7941869236303386,-2.1367476945213544,-9.626056159933723,-0.44222222222222224,0.3888888888888889,0.7733333333333333,-0.08866827268961608,-0.08866827268961608,0.0625
1588959890.152126,-0.7853237064549181,-2.145323706454918,-9.670431608606558,-0.44222222222222224,0.3888888888888889,0.7733333333333333,-0.125,-0.0026975537909836034,-0.02922683465676229
1588959890.162126,-0.7796591964916193,-2.12517040175419,-9.640340803508382,-0.44222222222222224,0.3888888888888889,0.7733333333333333,-0.125,0.004260043854758977,-0.09481501096368974
1588959890.172126,-0.79,-2.124978490832158,-9.620043018335684,-0.44222222222222224,0.3855698950007836,0.7910346340698949,-0.125,-0.06276886459802539,-0.12473113540197461
1588959890.182126,-0.7945147411137731,-2.13,-9.619029482227546,-0.44222222222222224,0.38222222222222224,0.8088888888888889,-0.125,0.0,-0.07463147215567398
1588959890.192126,-0.803040845535616,-2.1360816910712317,-9.64520422767808,-0.44222222222222224,0.38222222222222224,0.8088888888888889,-0.10599471540240009,0.0,0.024489430804800177
1588959890.202126,-0.8014654980316424,-2.145732749015821,-9.667198247047464,-0.44222222222222224,0.38222222222222224,0.8088888888888889,-0.08917031865111788,0.05334063730223576,-0.0625
1588959890.212126,-0.79,-2.1419369456059627,-9.636441380758262,-0.44222222222222224,0.38222222222222224,0.8088888888888889,-0.08868226988820267,0.10078817992546844,-0.0625
1588959890.222126,-0.79,-2.149275154399286,-9.585073919204996,-0.44222222222222224,0.38222222222222224,0.8088888888888889,0.048909144986615805,0.009060570008922783,-0.0625
1588959890.232126,-0.7939472507822978,-2.1159208761734467,-9.598026374608851,-0.4488888888888889,0.3955555555555556,0.7733333333333333,-0.012335158694680376,-0.07483515869468038,0.0
1588959890.242126,-0.8003057084320894,-2.14,-9.609388583135821,-0.4488888888888889,0.3955555555555556,0.7733333333333333,-0.0625,-0.1098526694251396,-0.030294661149720802
1588959890.252126,-0.7869621927471802,-2.14,-9.648797259066024,-0.4488888888888889,0.3955555555555556,0.7733333333333333,-0.009493147665062276,-0.03599657383253114,-0.09849657383253113
1588959890.262126,-0.8047609744033635,-2.14,-9.612141461605045,-0.4488888888888889,0.3955555555555556,0.7733333333333333,0.013384135031532088,0.04911586496846791,-0.0625
1588959890.272126,-0.79,-2.14,-9.597862759113653,-0.447141609085855,0.3970116220580838,0.7774103195404124,-0.10861925184655706,0.15473850369311412,-0.0625
1588959890.282126,-0.7932571026839255,-2.146514205367851,-9.610228691948222,-0.44222222222222224,0.4011111111111111,0.7888888888888889,-0.08285689177453373,0.042143108225466276,-0.0625
1588959890.292126,-0.8,-2.16,-9.651077229609736,-0.44222222222222224,0.4011111111111111,0.7888888888888889,-0.0555940572616624,0.0347029713691688,-0.0277970286308312
1588959890.302126,-0.8,-2.13946373752878,-9.664061540675364,-0.44222222222222224,0.4011111111111111,0.7888888888888889,0.032087910111281655,0.0625,0.0
1588959890.312126,-0.803728305785124,-2.1274566115702482,-9.622543388429753,-0.44222222222222224,0.4011111111111111,0.7888888888888889,0.03919808884297521,0.08580191115702479,-0.04660382231404958
1588959890.322126,-0.8036792056520909,-2.137893068550697,-9.605786137101394,-0.4452655676489933,0.39853597267307406,0.7870160609339528,-0.013168321558143976,0.125,-0.09866335688371206
1588959890.332126,-0.7843666105660687,-2.13,-9.598733221132138,-0.4566666666666666,0.3888888888888889,0.78,-0.035208683962070525,0.125,-0.05458263207585896
1588959890.342126,-0.7982454992747647,-2.1258772503626178,-9.642981997099058,-0.4566666666666666,0.3888888888888889,0.78,-0.025767185233639543,-0.0038359261681976953,-0.04769844429908136
1588959890.352126,-0.81,-2.1280015041835103,-9.673996991632979,-0.4566666666666666,0.3888888888888889,0.78,-0.037495299426530036,-0.16249529942653004,0.012490598853060073
1588959890.3621259,-0.8075416421712719,-2.1350832843425436,-9.642624926513815,-0.4566666666666666,0.3888888888888889,0.78,-0.015364736429551244,-0.125,-0.047135263570448754
1588959890.3721259,-0.7976706064149683,-2.1246587871700635,-9.613011819244905,-0.4548549161005308,0.3888888888888889,0.7784470709433122,-0.09161741981289676,-0.125,-0.02911741981289676
1588959890.3821259,-0.7922685709309414,-2.1422685709309417,-9.58886571453453,-0.4488888888888889,0.3888888888888889,0.7733333333333333,-0.1733214316816163,-0.11791071584080814,-0.1108214316816163
1588959890.3921258,-0.8086853533359654,-2.159561784445322,-9.583943939992105,-0.4488888888888889,0.3888888888888889,0.7733333333333333,-0.05428345834978287,-0.0625,0.0027388472167390447
1588959890.4021258,-0.7841241475970998,-2.15,-9.6617517048058,-0.4488888888888889,0.3888888888888889,0.7733333333333333,0.07344815503625239,-0.11405184496374761,0.0625
1588959890.4121258,-0.7860940469265076,-2.138282140779523,-9.63437618770603,-0.4488888888888889,0.3888888888888889,0.7733333333333333,-0.024412206709327127,-0.04102675974403722,-0.03514882683730851
1588959890.4221258,-0.7863276972140322,-2.124218464809355,-9.603672302785968,-0.44631093817206097,0.39029504382534047,0.776614361518387,-0.08886540505846721,0.13476918988306558,-0.14795189241229917
1588959890.4321258,-0.8089285567222566,-2.1389285567222567,-9.586428659666462,-0.43666666666666665,0.3955555555555556,0.7888888888888889,-0.17410695902820672,-0.04910695902820671,0.0
1588959890.4421258,-0.7964391795701004,-2.137121640859799,-9.664925743009299,-0.43666666666666665,0.3955555555555556,0.7888888888888889,-0.04024487231312723,0.0625,0.0
1588959890.4521258,-0.79,-2.148127338180278,-9.69876402908167,-0.43666666666666665,0.3955555555555556,0.7888888888888889,0.035112409119785415,0.0742041363732618,-0.011704136373261806
1588959890.4621258,-0.7965800459194323,-2.136709977040284,-9.626969839281987,-0.43666666666666665,0.3955555555555556,0.7888888888888889,0.0846867825088708,0.125,-0.04193735650177416
1588959890.4721258,-0.8073710313586129,-2.1313144843206935,-9.58,-0.43739693573371863,0.3927805331007581,0.7877204583816058,-0.10856894599133049,0.125,0.008215527004334753
1588959890.4821258,-0.7948652920113595,-2.1302694159772813,-9.58486529201136,-0.44222222222222224,0.3744444444444445,0.78,0.0,0.06418384985800715,0.09290807507099642
1588959890.4921257,-0.8049619932432432,-2.124961993243243,-9.639619932432431,-0.44222222222222224,0.3744444444444445,0.78,0.03101245777027027,-0.03101245777027027,0.06297508445945946
1588959890.5021257,-0.8014614662634268,-2.1257307331317135,-9.668653665658567,-0.44222222222222224,0.3744444444444445,0.78,0.035817082073208883,-0.035817082073208883,0.0
1588959890.5121257,-0.79,-2.126084195474809,-9.633915804525191,-0.44222222222222224,0.3744444444444445,0.78,-0.01901311085877702,0.0,0.0
1588959890.5221257,-0.79,-2.1381416337838974,-9.610708168919485,-0.44015737087099693,0.3783676620117726,0.7853686135131858,-0.0625,0.011614788850642262,0.0
1588959890.5321257,-0.7892647607499301,-2.13,-9.57073523925007,-0.4311111111111111,0.3955555555555556,0.8088888888888889,-0.05790475468706277,0.06709524531293723,0.009190490625874452
