time,acc_x,acc_y,acc_z,mag_x,mag_y,mag_z,gyr_x,gyr_y,gyr_z
1588959923.557296,0.82,-2.34,-9.68,-0.5522222222222222,0.10777777777777778,0.6666666666666666,0.1875,-0.1875,0.0
1588959923.567296,0.85,-2.333254026763175,-9.593254026763175,-0.5500528710467723,0.11898609218426925,0.6666666666666666,0.0421623327301566,-0.8298636708889038,-0.0625
1588959923.577296,0.8279946794559556,-2.3355989358911913,-9.608802128217617,-0.5455555555555556,0.14222222222222222,0.6666666666666666,0.0,-1.125,-0.03499334931994455
1588959923.587296,0.8077037206117326,-2.33,-9.697037206117326,-0.5455555555555556,0.14222222222222222,0.6666666666666666,-0.048148253823328005,-1.076851746176672,-0.048148253823328005
1588959923.597296,0.7798463180837578,-2.3375384204790604,-9.70492315904188,-0.5455555555555556,0.14222222222222222,0.6666666666666666,-0.015384872005871492,-0.9682697440117429,-0.0625
1588959923.607296,0.7816489652700485,-2.334175517364976,-9.682526552094927,-0.5455555555555556,0.14222222222222222,0.6666666666666666,-0.03640301646890151,-0.6462758682487879,-0.0625
1588959923.617296,0.7961144550421335,-2.33,-9.6516566348736,-0.5455555555555556,0.14493975779650378,0.6884069512609192,-0.0625,-0.36106931197333086,-0.0625
1588959923.627296,0.8155853464295195,-2.3222073267852403,-9.663378019644279,-0.5455555555555556,0.14666666666666667,0.7022222222222222,0.034908415184496944,-0.6047252455534908,-0.0625
1588959923.637296,0.8348882100323194,-2.349776420064639,-9.714664630096959,-0.5455555555555556,0.14666666666666667,0.7022222222222222,0.01597434364900164,-0.9201282817549918,-0.0625
1588959923.647296,0.8164025928657377,-2.342301944649303,-9.682805185731477,-0.5455555555555556,0.14666666666666667,0.7022222222222222,-0.07374189729456973,-1.036870948647285,-0.0625
1588959923.657296,0.8032547302580141,-2.33,-9.640235809225958,-0.5455555555555556,0.14666666666666667,0.7022222222222222,-0.10465793588741204,-0.9404476153244723,-0.0625
1588959923.667296,0.809813448006255,-2.33,-9.620559655981234,-0.5455555555555556,0.14666666666666667,0.7022222222222222,-0.06366594996090696,-0.6944956997654417,-0.0625
1588959923.677296,0.8161130891528889,-2.3207420594352595,-9.62148411887052,-0.5333333333333333,0.14222222222222222,0.6944444444444444,0.03356893573518525,0.9074651002925935,0.19213787147037048
1588959923.687296,0.805415857846797,-2.33,-9.701460355383007,-0.5333333333333333,0.14222222222222222,0.6944444444444444,0.10091272211437957,0.5826582798267881,0.09634911154248171
1588959923.697296,0.79,-2.338400387017328,-9.718999032456681,-0.5333333333333333,0.14222222222222222,0.6944444444444444,0.09874879057085056,-0.006256047145747207,-0.026251209429149443
1588959923.707296,0.7987134673269249,-2.3441910217820503,-9.6667640871282,-0.5333333333333333,0.14222222222222222,0.6944444444444444,0.0625,-0.15119388613781273,-0.044346943068906367
1588959923.717296,0.8159578420287514,-2.33,-9.622126473913745,-0.5409685206123584,0.14222222222222222,0.7011813743965254,0.08776348732030367,-0.011973025359392667,0.025263487320303667
1588959923.7272959,0.8232493962210542,-2.338832930814036,-9.626750603778946,-0.5522222222222222,0.14222222222222222,0.7111111111111111,0.125,0.20051454396931384,0.03489709120613724
1588959923.7372959,0.8114232781168265,-2.3404744260389423,-9.652865082824759,-0.5522222222222222,0.14222222222222222,0.7111111111111111,0.125,0.4643022558849172,0.08930225588491718
1588959923.7472959,0.775435426024583,-2.33,-9.672612556147499,-0.5522222222222222,0.14222222222222222,0.7111111111111111,0.09647141265364392,0.9333716355026289,0.15897141265364392
1588959923.7572958,0.7758121261615203,-2.33,-9.63418787383848,-0.5522222222222222,0.14222222222222222,0.7111111111111111,0.13515157701900368,2.4284478667755534,0.3429547310570111
1588959923.7672958,0.8136108753548538,-2.33,-9.643444350141943,-0.5477407721749084,0.15043821397563092,0.6999074859928265,0.22951359419356726,3.6916631303228074,0.5420135941935673
1588959923.7772958,0.8433973939948577,-2.336698696997429,-9.663397393994858,-0.5455555555555556,0.15444444444444444,0.6944444444444444,0.20813314376606964,3.1838965877892536,0.5206331437660696
1588959923.7872958,0.8570086588013708,-2.332991341198629,-9.726069270410965,-0.5455555555555556,0.15444444444444444,0.6944444444444444,0.0998917649828655,2.286850589897193,0.4561958824914327
1588959923.7972958,0.8670078559286994,-2.3370078559286993,-9.714960720356503,-0.5455555555555556,0.15444444444444444,0.6944444444444444,0.1062990995543713,1.7559063031194009,0.2623036017825148
1588959923.8072958,0.8623991641367346,-2.3438004179316327,-9.669596656546938,-0.5455555555555556,0.15444444444444444,0.6944444444444444,0.07749477585459133,1.4587317154910697,0.13999477585459133
1588959923.8172958,0.8513744430863857,-2.3493127784568073,-9.625497772345541,-0.5455555555555556,0.15444444444444444,0.6944444444444444,0.00859026928991051,1.2175659425146867,0.07109026928991051
1588959923.8272958,0.8428474200110967,-2.324288144997226,-9.625711855002775,-0.5522222222222222,0.16666666666666666,0.6888888888888889,-0.026800906232661362,-0.4735181246532273,0.03569909376733864
1588959923.8372958,0.8007223394195098,-2.342851773720327,-9.684258868601635,-0.5522222222222222,0.16666666666666666,0.6888888888888889,-0.0625,-1.3079853786280644,-0.04016179287602144
1588959923.8472958,0.7998866073051063,-2.345056696347447,-9.695283481737235,-0.5522222222222222,0.16666666666666666,0.6888888888888889,-0.031604352171542796,-1.1278348173723423,-0.0933956478284572
1588959923.8572958,0.8273958050920563,-2.34,-9.663041677963177,-0.5522222222222222,0.16666666666666666,0.6888888888888889,0.0,-0.7445314618095777,-0.125
1588959923.8672957,0.8538627987159672,-2.3369313993579834,-9.631588396147901,-0.5484717103264244,0.15677895348683601,0.6905936670233425,0.05753626203780763,-0.48082124598739745,-0.08664249197479491
1588959923.8772957,0.8426823067144342,-2.335364613428869,-9.606093840286606,-0.54,0.13444444444444445,0.6944444444444444,0.1875,-0.40397116606957123,0.03352883393042875
1588959923.8872957,0.8374675040961223,-2.3416450027307483,-9.675064991807757,-0.54,0.13444444444444445,0.6944444444444444,0.08306253413435281,-0.181953167667941,0.09889063353358821
1588959923.8972957,0.822677491330412,-2.3326774913304122,-9.704645017339177,-0.54,0.13444444444444445,0.6944444444444444,-0.04576567918492433,0.016734320815075674,0.0625
1588959923.9072957,0.8227669831275518,-2.34,-9.66468444094643,-0.54,0.13444444444444445,0.6944444444444444,0.022603177726400706,0.0625,0.0625
1588959923.9172957,0.81,-2.34,-9.615154995303172,-0.5330016598823605,0.1403661168516779,0.6987511152860688,0.032218720644828946,0.18362511742068421,0.032218720644828946
1588959923.9272957,0.8186819194873938,-2.331318080512606,-9.62302287923109,-0.5255555555555556,0.14666666666666667,0.7033333333333334,-0.027130998398105583,0.39389299519431675,0.054261996796211166
1588959923.9372957,0.83,-2.323314727049324,-9.669832543443919,-0.5255555555555556,0.14666666666666667,0.7033333333333334,-0.021065911883447426,0.5621511321748288,0.1457170440582763
1588959923.9472957,0.8391262329381289,-2.3345631164690643,-9.693495068247485,-0.5255555555555556,0.14666666666666667,0.7033333333333334,0.0625,0.7730584337949586,0.21601947793165288
1588959923.9572957,0.85,-2.337462125802933,-9.634772754817599,-0.5255555555555556,0.14666666666666667,0.7033333333333334,0.09422342746333778,0.8274148588049933,0.18655314507332443
1588959923.9672956,0.85,-2.3302001488997006,-9.591200893398202,-0.5255555555555556,0.14666666666666667,0.7033333333333334,0.18499813875374416,0.6912527918693838,0.005003722492511714
1588959923.9772956,0.84,-2.3365736107453254,-9.58685277850935,-0.5255555555555556,0.14666666666666667,0.73,0.2508723992625757,0.14815973136686858,0.125
1588959923.9872956,0.8357332356609712,-2.341466471321943,-9.62826822942446,-0.5255555555555556,0.14666666666666667,0.73,0.0983327228810707,-0.2941691084757172,0.0716654457621414
1588959923.9972956,0.8239962086184576,-2.33,-9.704990521546144,-0.5255555555555556,0.14666666666666667,0.73,0.0062144557980395795,-0.3999763038653597,0.03752369613464028
1588959924.0072956,0.8157442358325746,-2.33,-9.661383646251139,-0.5255555555555556,0.14666666666666667,0.73,-0.07114778906961293,-0.24069705209281725,0.05319705209281725
1588959924.0172956,0.83,-2.33,-9.64,-0.5304207649590275,0.14558550902145068,0.723513054128704,0.0625,-0.0929075587716996,-0.0945924412283004
1588959924.0272956,0.8306326727112252,-2.3293673272887747,-9.639367327288776,-0.5455555555555556,0.14222222222222222,0.7033333333333334,0.0625,-0.199362613335473,-0.003954204445157667
1588959924.0372956,0.84,-2.3167298053078667,-9.662701946921333,-0.5455555555555556,0.14222222222222222,0.7033333333333334,0.08293871682583231,-0.375,-0.04206128317416768
1588959924.0472956,0.855832974601808,-2.2822922944468362,-9.723402927249246,-0.5455555555555556,0.14222222222222222,0.7033333333333334,0.10850731812311666,-0.35850731812311665,-0.05772438656909169
1588959924.0572956,0.8857828411405295,-2.238753818737271,-9.67031950101833,-0.5455555555555556,0.14222222222222222,0.7033333333333334,0.0,-0.06849064409368635,-0.6190093559063137
1588959924.0672956,0.7396725025746653,-2.515491246138002,-9.648387916237557,-0.5466302780638517,0.14419254682076516,0.7019003699889385,0.020151047030552694,0.4031797116374871,-0.9294713353930656
1588959924.0772955,0.806052993490419,-2.3982622169249104,-9.630368203905748,-0.5522222222222222,0.15444444444444444,0.6944444444444444,0.0848675162739525,0.634205097643715,-0.46216879068488126
1588959924.0872955,0.8418962591592749,-2.300518704203625,-9.627066332433474,-0.5522222222222222,0.15444444444444444,0.6944444444444444,0.01185161974546857,0.05389028152718858,-0.23814838025453144
1588959924.0972955,0.8608621942358925,-2.238275611528215,-9.67465488011625,-0.5522222222222222,0.15444444444444444,0.6944444444444444,0.017240857350448044,-0.4084069992734318,-0.23275914264955194
1588959924.1072955,0.8785404004032838,-2.2043787987901484,-9.625621201209853,-0.5522222222222222,0.15444444444444444,0.6944444444444444,-0.05337750252052427,-0.7422349848768544,-0.3125
1588959924.1172955,0.87,-2.23,-9.59712471644723,-0.5503053665203755,0.15093020899105883,0.6944444444444444,-0.017970522204812798,-1.1343820888192513,-0.42032313322887677
1588959924.1272955,0.8629658004412846,-2.2546196984555036,-9.618136798234861,-0.5455555555555556,0.14222222222222222,0.6944444444444444,-0.018536252758028934,-1.598264357072812,-0.731463747241971
1588959924.1372955,0.8457229857624886,-2.312831042712534,-9.70421611390009,-0.5455555555555556,0.14222222222222222,0.6944444444444444,-0.01769401695333718,-2.3655820508600116,-0.9194253559377829
1588959924.1472955,0.8363477249224405,-2.3336522750775592,-9.735390899689763,-0.5455555555555556,0.14222222222222222,0.6944444444444444,-0.17065343846949327,-2.8472870346432266,-1.1081534384694933
1588959924.1572955,0.8119859948620204,-2.332794397944808,-9.702794397944809,-0.5455555555555556,0.14222222222222222,0.6944444444444444,-0.20496498715505096,-3.215070025689898,-1.2100175064224745
1588959924.1672955,0.7839674429444773,-2.3180162785277614,-9.67413022822209,-0.5415881126110783,0.14222222222222222,0.6977506468981756,-0.1497965184029832,-3.3254069631940335,-1.2252034815970168
1588959924.1772954,0.7990064361139497,-2.310496781943025,-9.6139742555442,-0.5265491194416059,0.14222222222222222,0.7102831412060692,-0.24379022571218562,-3.137419548575629,-1.1312097742878144
1588959924.1872954,0.8062480774938615,-2.3112557675184155,-9.641868271228514,-0.5255555555555556,0.14222222222222222,0.7111111111111111,-0.0625,-3.5156009686732683,-0.8320252421683171
1588959924.1972954,0.82,-2.2666961722968226,-9.666873206077758,-0.5255555555555556,0.14222222222222222,0.7111111111111111,-0.0831489231448586,-3.893989231448586,-0.9162978462897172
1588959924.2072954,0.82,-2.2641979113165553,-9.617901044341721,-0.5255555555555556,0.14222222222222222,0.7111111111111111,-0.13811847286423556,-4.417447782913885,-1.0262369457284712
1588959924.2172954,0.8137767159553173,-2.2457719377542453,-9.597553431910635,-0.5317788396002382,0.15432305230910512,0.7041963510614637,-0.16805223736036676,-4.618022373603668,-1.1638955252792664
1588959924.2272954,0.7869584203531422,-2.204777545724954,-9.57,-0.5455555555555556,0.1811111111111111,0.6888888888888889,-0.1521699575976204,-2.964851908107082,-1.1413201696095183
1588959924.2372954,0.7977577360071207,-2.2341384365673593,-9.621550081156082,-0.5455555555555556,0.1811111111111111,0.6888888888888889,-0.1875,-1.3502163071364992,-0.9752163071364993
1588959924.2472954,0.850531049091382,-2.2135103496971276,-9.689468950908617,-0.5455555555555556,0.1811111111111111,0.6888888888888889,-0.14362062878590806,-1.1589222007506783,-1.0033190568211379
1588959924.2572954,0.8752857429819716,-2.2147142570180285,-9.67,-0.5455555555555556,0.1811111111111111,0.6888888888888889,-0.07351196454577412,-0.8970239290915483,-1.2571435745492894
1588959924.2672954,0.8950823732098633,-2.2047528803704104,-9.67,-0.5425503391838054,0.17154905901917855,0.6902548963305936,-0.1557351674383547,-1.0,-2.1208813395068375
1588959924.2772954,0.9069211441824507,-2.188465956154398,-9.685383510961401,-0.5333333333333333,0.14222222222222222,0.6944444444444444,-0.39422041526312884,-1.360551038157822,-3.331697981666575
1588959924.2872953,1.085910379641795,-1.913316506465666,-9.74171242191642,-0.5333333333333333,0.14222222222222222,0.6944444444444444,-0.568370675149252,-2.900198522462716,-4.826995885485098
1588959924.2972953,1.340504347826087,-1.6140208695652174,-9.703071304347825,-0.5333333333333333,0.14222222222222222,0.6944444444444444,-0.5565652173913044,-5.306934782608696,-7.362108695652174
1588959924.3072953,1.5436091347726528,-1.5832593228655545,-9.540810639515865,-0.5333333333333333,0.14222222222222222,0.6944444444444444,-0.4978136755806346,-5.667823080225712,-11.70360289908407
1588959924.3172953,1.4795103204611664,-1.78623504617864,-9.36782371536602,-0.5382341921665048,0.14222222222222222,0.7064738252167745,-0.4378060497117709,0.05991601066137786,-18.445457292506042
1588959924.3272953,0.9481094198605478,-1.3476969876498202,-9.2548468759969,-0.5455555555555556,0.14222222222222222,0.7244444444444444,0.08355455042610394,6.060585949961263,-27.20955002734357
1588959924.3372953,0.73,-0.8,-9.25,-0.5455555555555556,0.14222222222222222,0.7244444444444444,0.75,6.0,-30.875
1588959924.3472953,0.5592919365646638,-0.7844810851422422,-9.343113489146546,-0.5455555555555556,0.14222222222222222,0.7244444444444444,1.4289525250269053,4.49660512315471,-34.70623210550897
1588959924.3572953,0.6148607757434973,-0.3737806033560534,-9.387839655225113,-0.5455555555555556,0.14222222222222222,0.7244444444444444,0.89187769355381,10.314135235504478,-40.25142510010087
1588959924.3672953,0.7026667798748241,-0.4960023773713066,-9.368667459123769,-0.5440740111806532,0.14222222222222222,0.7244444444444444,1.3208389937412062,11.704177987482412,-47.06672256319441
1588959924.3772953,0.7078571297905424,-0.6864287935607793,-9.430714351047287,-0.54,0.14222222222222222,0.7244444444444444,1.7678576328546602,12.53125057166377,-51.437504573310164
1588959924.3872952,0.7001843958657276,-0.8168652702826305,-9.469078020671363,-0.54,0.14222222222222222,0.7244444444444444,2.0555851550352147,12.866932680874417,-54.12296144699533
1588959924.3972952,0.8401667836219135,-0.8675625438582176,-9.54722897661439,-0.54,0.14222222222222222,0.7244444444444444,2.07773410088614,10.96588340649836,-55.86237189320626
1588959924.4072952,0.8949253390342217,-0.8880970021378332,-9.458246324069389,-0.54,0.14222222222222222,0.7244444444444444,1.949393736638543,10.024720735349316,-56.84631468577117
1588959924.4172952,0.9018873529768401,-0.9666327149266399,-9.43494907238996,-0.542057785322609,0.13773250879107554,0.7244444444444444,2.5408178731659996,11.99266020977325,-59.002546380502004
1588959924.4272952,1.0109978581327959,-0.949501070933602,-9.408752677334006,-0.5522222222222222,0.11555555555555555,0.7244444444444444,2.132795766662467,13.538978833312335,-60.309247826634746
1588959924.4372952,1.0563493989828943,-0.9278835336723686,-9.385397595931575,-0.5522222222222222,0.11555555555555555,0.7244444444444444,2.477183743643088,15.088955829095392,-63.2996236419325
1588959924.4472952,1.0844034604797483,-0.919199370821864,-9.481200943767204,-0.5522222222222222,0.11555555555555555,0.7244444444444444,2.6325058985450256,15.132456744003147,-65.95761403853716
1588959924.4572952,1.2074625468164795,-0.9279400749063671,-9.499522471910112,-0.5522222222222222,0.11555555555555555,0.7244444444444444,2.9216409176029963,13.572389981273409,-70.57256554307116
1588959924.4672952,1.2557200948830904,-0.9983401106969388,-9.466899920930759,-0.557462253849919,0.10856884671862645,0.7226977672352122,3.157750197673105,13.354251383711736,-73.47350474415452
1588959924.4772952,1.303190128339656,-1.0308592299620631,-9.404478973282751,-0.5722222222222222,0.08888888888888889,0.7177777777777777,3.289876604245702,14.63802566793123,-76.7442300125111
1588959924.4872952,1.324803003328431,-1.0005735738060222,-9.381720721418066,-0.5722222222222222,0.08888888888888889,0.7177777777777777,3.4675187708026938,16.475810821270997,-79.70049926464897
1588959924.4972951,1.4008523599056495,-1.0504261799528247,-9.481754185082556,-0.5722222222222222,0.08888888888888889,0.7177777777777777,3.796209093823711,18.62469084205464,-83.27366346440104
1588959924.5072951,1.4673678790074953,-1.0928937882631167,-9.431841969751874,-0.5722222222222222,0.08888888888888889,0.7177777777777777,3.807561554746057,19.92925852993344,-86.7137632788511
1588959924.5172951,1.4993652852211394,-1.1488892491369938,-9.439841321305284,-0.5722222222222222,0.08888888888888889,0.7177777777777777,4.057541290790152,20.979173421318634,-89.81351200579788
1588959924.527295,1.5234553649537865,-1.1343630900308088,-9.455636909969192,-0.5930714355144768,0.07325197891969791,0.699534716147055,4.355692061922331,22.026172216728156,-93.19784336845308
1588959924.537295,1.542698783130522,-1.022060343390565,-9.498096349391565,-0.5988888888888889,0.06888888888888889,0.6944444444444444,4.874020670111685,22.590285880980165,-96.74412402067011
1588959924.547295,1.5599260312944525,-0.900443812233286,-9.529926031294451,-0.5988888888888889,0.06888888888888889,0.6944444444444444,5.311113086770981,22.439811522048362,-101.662073257468
1588959924.557295,1.5761435722983552,-0.9484307168950654,-9.489641069254112,-0.5988888888888889,0.06888888888888889,0.6944444444444444,5.514294653729439,21.731218711946962,-104.56307381564451
1588959924.567295,1.6604428120280104,-0.9906642180420157,-9.359335781957984,-0.5991594962393397,0.06829847285154164,0.6951086624864601,5.754151362762598,21.076337875875325,-108.16928120280105
1588959924.577295,1.6858445901924162,-0.9849324588455024,-9.318310819615167,-0.6111111111111112,0.042222222222222223,0.7244444444444444,5.955764344351301,22.016258198323417,-110.61813729748512
1588959924.587295,1.7040662565484859,-0.8979668717257571,-9.32456318066213,-0.6111111111111112,0.042222222222222223,0.7244444444444444,5.987292948285981,23.142883344564485,-112.10476218942243
1588959924.597295,1.7260750050213767,-0.8717749849358699,-9.46,-0.6111111111111112,0.042222222222222223,0.7244444444444444,5.965976586037703,24.60835951622622,-113.34492195345901
1588959924.607295,1.7555241141287652,-0.7610482282575306,-9.455524114128766,-0.6111111111111112,0.042222222222222223,0.7244444444444444,6.180948573390434,25.688384290128475,-114.0568328635189
1588959924.617295,1.7403660938544658,-0.7307321877089319,-9.440366093854465,-0.6111111111111112,0.042222222222222223,0.7244444444444444,6.3704238268191755,26.114703610343145,-114.67262743716232
1588959924.627295,1.764274531865306,-0.6878627340673471,-9.415725468134694,-0.6111111111111112,-0.01,0.6888888888888889,6.763357912079081,26.121199670497468,-115.65600538455357
1588959924.637295,1.7777577754560798,-0.6811211122719601,-9.40224222454392,-0.6111111111111112,-0.01,0.6888888888888889,6.805493048300249,25.320632082295266,-115.95095133810175
1588959924.647295,1.941258920357063,-0.7545035681428252,-9.408741079642937,-0.6111111111111112,-0.01,0.6888888888888889,7.306294601785314,23.282689845090385,-116.15314730089266
1588959924.657295,1.9958120338556942,-0.7858120338556943,-9.354187966144305,-0.6111111111111112,-0.01,0.6888888888888889,7.457646337886533,23.032357747423113,-116.27823577474231
1588959924.667295,2.0560336545723694,-0.8460336545723693,-9.295474759070723,-0.6119491186906069,-0.016704060635966016,0.6932465283022667,7.331355170538655,23.981144829461346,-116.38442758526932
1588959924.677295,2.105959164840235,-0.8640408351597647,-9.276383665936093,-0.6166666666666667,-0.054444444444444434,0.7177777777777777,7.457448956050294,23.19673549429,-116.29785730764794
1588959924.687295,2.1517301305758925,-0.8182698694241075,-9.322844365612498,-0.6166666666666667,-0.054444444444444434,0.7177777777777777,7.470674673560269,20.987541512566985,-115.76539738848214
1588959924.697295,2.1947732846990755,-0.7813018049179297,-9.430433934972642,-0.6166666666666667,-0.054444444444444434,0.7177777777777777,7.366863719262939,18.429485566945473,-114.97287906420979
1588959924.707295,2.328554841661741,-0.8121965262816725,-9.424624316028293,-0.6166666666666667,-0.054444444444444434,0.7177777777777777,7.132586842958189,17.204478942250862,-114.10043421479095
1588959924.717295,2.4303352528461746,-0.8196647471538258,-9.368323735769128,-0.6175606742564645,-0.05649321183773129,0.7177777777777777,6.9375,18.442050569234844,-113.06423542163093
1588959924.727295,2.454053123896929,-0.8071893752206143,-9.308757500882457,-0.6433333333333333,-0.11555555555555555,0.7177777777777777,7.025332024355807,20.51553123896929,-111.03143752206142
1588959924.737295,2.5159061069572726,-0.7939044454218183,-9.292191109156363,-0.6433333333333333,-0.11555555555555555,0.7177777777777777,7.278572912085227,20.608319487204547,-110.26487847985796
1588959924.747295,2.6320557428855333,-0.766575119321051,-9.346849761357898,-0.6433333333333333,-0.11555555555555555,0.7177777777777777,7.4066791281825735,19.41266147029598,-110.05136811969571
1588959924.757295,2.7227331887201736,-0.7981778741865511,-9.34817787418655,-0.6433333333333333,-0.11555555555555555,0.7177777777777777,7.573888286334056,17.005694143167027,-110.23861171366595
1588959924.767295,2.754649936352064,-0.7784500212159787,-9.326125053039947,-0.6426444538737682,-0.11968883231294579,0.7200166360213641,7.6826563162999335,17.183592092501666,-110.0668757955992
1588959924.7772949,2.8372441903731014,-0.7483239184115279,-9.291676081588472,-0.6344444444444445,-0.1688888888888889,0.7466666666666667,7.625,18.69797550992795,-109.33851224503603
1588959924.7872949,2.9365578594865207,-0.7057609173629198,-9.33423908263708,-0.6344444444444445,-0.1688888888888889,0.7466666666666667,7.625,18.963994266481752,-109.20550286675912
1588959924.7972949,2.96813575093049,-0.7218642490695101,-9.36440725279147,-0.6344444444444445,-0.1688888888888889,0.7466666666666667,7.613348443315561,19.824151556684438,-109.55825778342219
1588959924.8072948,3.0200189734170317,-0.7377443836667138,-9.328383424499929,-0.6344444444444445,-0.1688888888888889,0.7466666666666667,7.5382988010415195,19.959704196354682,-109.6309910078114
1588959924.8172948,3.270569777752353,-0.7688604444952948,-9.279430222247647,-0.634760987640196,-0.16996513575444383,0.7470465185015684,7.444622221904408,20.3125,-108.82514444666914
1588959924.8272948,3.2537985401459855,-0.7275416058394161,-9.260642335766423,-0.64,-0.18777777777777774,0.7533333333333333,7.632682481751825,20.663412408759125,-107.76605839416058
1588959924.8372948,3.146175299841299,-0.63,-9.224631474880974,-0.64,-0.18777777777777774,0.7533333333333333,7.932675546998985,22.192324453001014,-106.67280875198377
1588959924.8472948,3.2376699920587653,-0.621968185427834,-9.28,-0.64,-0.18777777777777774,0.7533333333333333,7.885039768215208,21.988966026404604,-105.50904556283503
1588959924.8572948,3.3194186198037867,-0.5618604910922054,-9.272441871288418,-0.64,-0.18777777777777774,0.7533333333333333,7.946947660889476,20.36046549509466,-104.04215146043153
1588959924.8672948,3.264761621088296,-0.46816277900850756,-9.233401157920213,-0.64,-0.18777777777777774,0.7533333333333333,7.995748552599736,18.994040527207403,-102.96853184280582
1588959924.8772948,3.4182573136206353,-0.47580371185907516,-9.163079584775087,-0.6288888888888889,-0.22666666666666666,0.8033333333333333,7.92438659955961,16.34961859075181,-101.71457219251337
1588959924.8872948,3.6,-0.46,-9.25,-0.6288888888888889,-0.22666666666666666,0.8033333333333333,7.875,15.3125,-100.875
1588959924.8972948,3.5310650589152264,-0.42553252945761316,-9.232766264728808,-0.6288888888888889,-0.22666666666666666,0.8033333333333333,7.803192769703361,16.999969911971025,-100.22873492733025
1588959924.9072948,3.454438775510204,-0.35739795918367345,-9.194438775510203,-0.6288888888888889,-0.22666666666666666,0.8033333333333333,7.6967474489795915,19.68781887755102,-98.63169642857143
1588959924.9172947,3.303648831369519,-0.2768244156847595,-9.130129067378439,-0.6288888888888889,-0.22666666666666666,0.8033333333333333,7.604345926914499,19.189113342230495,-97.273342976803
1588959924.9272947,3.719215965787598,-0.31247643937594044,-9.208714659063912,-0.5835911142789261,-0.21559387731756466,0.9060082891159156,7.166144472162825,15.528411340777698,-94.42261126950186
1588959924.9372947,3.77,-0.2684312046173897,-9.22,-0.5788888888888889,-0.21444444444444444,0.9166666666666666,6.89478216347049,14.634977192329176,-92.20762660584622
1588959924.9472947,3.21666149068323,-0.03188007644529384,-9.163760152890587,-0.5788888888888889,-0.21444444444444444,0.9166666666666666,7.175749522216914,18.372872372193026,-87.76661042761586
1588959924.9572947,3.552500725870007,-0.03916711601476627,-9.18666721971048,-0.5788888888888889,-0.21444444444444444,0.9166666666666666,7.031251296196441,17.458345431166784,-84.005221079265
1588959924.9672947,3.369829731635489,0.07391492803517358,-9.047489319341324,-0.5788888888888889,-0.21444444444444444,0.9166666666666666,6.70505309220623,14.41382886059148,-80.7976054066946
1588959924.9772947,3.292459420937307,0.1390980066798562,-8.997787138085817,-0.4606928755291765,-0.20131155407114307,1.0020304540931255,6.6875,13.880637458250899,-77.03690673729444
1588959924.9872947,3.627114179954442,0.12288582004555809,-9.138926181662871,-0.4388888888888889,-0.1988888888888889,1.0177777777777777,6.631711364607061,12.716861385962414,-72.32508631121868
1588959924.9972947,3.537543422551253,0.21245657744874716,-9.131461951879272,-0.4388888888888889,-0.1988888888888889,1.0177777777777777,6.678362800754556,13.789844417354784,-69.80590875925398
1588959925.0072947,3.333693802786677,0.26855638498444184,-8.95080657275556,-0.4388888888888889,-0.1988888888888889,1.0177777777777777,6.529989730069437,15.635884976777694,-66.0069034626527
1588959925.0172946,3.6037172550161714,0.19783595701957418,-9.07938916905532,-0.4388888888888889,-0.1988888888888889,1.0177777777777777,6.329079423351063,13.385689541531907,-64.1183465795
1588959925.0272946,3.4957287278854254,0.25384528039265963,-9.092735430936596,-0.26602269351143015,-0.35105254589778967,0.8842464053005792,5.6095152192227395,9.996286766052526,-61.1041903226988
1588959925.0372946,3.3429080811332903,0.32451384417256923,-9.057743077913717,-0.2533333333333333,-0.3622222222222222,0.8744444444444445,5.260091355441082,8.854872625563425,-57.913413554410816
1588959925.0472946,3.5822134456221866,0.2742933062291274,-9.237733410773922,-0.2533333333333333,-0.3622222222222222,0.8744444444444445,4.483499709597793,6.395665747059677,-52.904831566719906
1588959925.0572946,3.515719424460432,0.31597122302158276,-9.17338129496403,-0.2533333333333333,-0.3622222222222222,0.8744444444444445,4.245953237410072,6.680980215827338,-48.315197841726615
1588959925.0672946,3.452629532053695,0.372709106224349,-9.09127497894152,-0.2533333333333333,-0.3622222222222222,0.8744444444444445,4.020667553811137,8.414091483413086,-43.496518630033876
1588959925.0772946,3.481156315422191,0.421119330076762,-9.023321004884856,-0.2712478095681166,-0.4721800418702024,0.768810808715205,3.7012604675505933,8.943802337752967,-37.79665910676901
1588959925.0872946,3.5731757056302644,0.4423359158943613,-8.997664084105638,-0.2855555555555556,-0.56,0.6844444444444444,3.292651839810847,6.553811564525322,-32.796269712259075
1588959925.0972946,3.7250183920126116,0.45,-9.124635191398198,-0.2855555555555556,-0.56,0.6844444444444444,2.884580015360362,3.2761151420833503,-28.355380168963983
1588959925.1072946,3.73,0.4987478595890411,-9.052003424657535,-0.2855555555555556,-0.56,0.6844444444444444,2.570325877568493,3.6140437714041096,-25.629802547089042
1588959925.1172945,3.7547793152206848,0.5082597717402283,-9.066519543480457,-0.2855555555555556,-0.56,0.6844444444444444,2.459252853247147,3.9347414402585597,-23.962169225330776
1588959925.1272945,3.627963095975232,0.5197453869969041,-8.95305535603715,-0.2888888888888889,-0.5822222222222222,0.5966666666666667,2.115452012383901,3.897716718266254,-22.9968173374613
1588959925.1372945,3.5408350466222247,0.51,-9.071617344713726,-0.2888888888888889,-0.5822222222222222,0.5966666666666667,1.7432610636928125,2.364891595539219,-22.773915955392187
1588959925.1472945,3.392758914294021,0.51,-9.09774842688929,-0.2888888888888889,-0.5822222222222222,0.5966666666666667,1.6343815546279568,2.201572331941935,-21.14072331941935
1588959925.1572945,3.5581077261306535,0.500283841080402,-9.089148476758794,-0.2888888888888889,-0.5822222222222222,0.5966666666666667,1.3720433220791457,2.566639349089196,-17.00691445508794
1588959925.1672945,3.3934445665829145,0.5249833150125628,-9.01505005496231,-0.2888888888888889,-0.5822222222222222,0.5966666666666667,1.114757135285804,2.926840010599874,-12.169934143373116
1588959925.1772945,3.3618830265659048,0.5183024247762993,-9.061131716815801,-0.3533333333333333,-0.5466666666666666,0.5433333333333333,0.6037803097037415,1.615608628123696,-5.9599975659511335
1588959925.1872945,3.5592016573405663,0.4915966853188672,-9.082661142198113,-0.3533333333333333,-0.5466666666666666,0.5433333333333333,0.23835750288326002,-0.6449585664858399,-0.9570153987441801
1588959925.1972945,3.5323277519114944,0.5453444961770109,-9.172240826961684,-0.3533333333333333,-0.5466666666666666,0.5433333333333333,-0.1535536179573705,-1.3168062022126352,4.6977022019563455
1588959925.2072945,3.511576416273925,0.4947292488217755,-9.078670289506588,-0.3533333333333333,-0.5466666666666666,0.5433333333333333,-0.4177947965759353,-1.2598526017120324,9.96611702895066
1588959925.2172945,3.51,0.5215548935996572,-9.038445106400342,-0.3533333333333333,-0.5466666666666666,0.5433333333333333,-0.782631648746251,-1.940263297492502,15.256147603696977
1588959925.2272944,3.4580804387568556,0.536489945155393,-9.01053016453382,-0.3807353239894373,-0.5192646760105627,0.55270769855779,-1.158935100548446,-2.0033135283363803,19.28016453382084
1588959925.2372944,3.341335936106542,0.5301484373451714,-9.014777343982242,-0.3955555555555556,-0.5044444444444445,0.5577777777777778,-1.5895751996670564,-2.70715333240849,23.274462930299848
1588959925.2472944,3.3559274654869955,0.4576897261841202,-9.123465410723819,-0.3955555555555556,-0.5044444444444445,0.5577777777777778,-2.1476074479444742,-4.824093318587446,29.53572858668294
1588959925.2572944,3.4476985813764625,0.42,-9.174460283724708,-0.3955555555555556,-0.5044444444444445,0.5577777777777778,-2.5894858137646226,-4.620926425103243,35.593178165984135
1588959925.2672944,3.2765431769722815,0.4629904051172708,-9.046402585287845,-0.3955555555555556,-0.5044444444444445,0.5577777777777778,-3.014017523987207,-4.652156349946695,42.012539145788914
1588959925.2772944,3.2348116410292427,0.46715483130809393,-9.025397438598956,-0.4262110463346679,-0.4869270211420946,0.538800569200232,-3.8033469129732387,-7.92050057362272,48.81642024302873
1588959925.2872944,3.2720609514708894,0.32893078970718725,-9.10725206470548,-0.44222222222222224,-0.4777777777777778,0.5288888888888889,-4.416031755511569,-8.318698382362978,58.15079388778923
1588959925.2972944,3.316309458720612,0.2869218151995626,-9.18938764352105,-0.44222222222222224,-0.4777777777777778,0.5288888888888889,-4.809629579004921,-7.712479496992892,63.85596637506834
1588959925.3072944,3.2423257925399107,0.27,-9.148604827116593,-0.44222222222222224,-0.4777777777777778,0.5288888888888889,-5.661335779677688,-9.370635355980934,72.4520220170992
1588959925.3172944,3.1989035345957344,0.19967844865244727,-9.094839224326224,-0.44222222222222224,-0.4777777777777778,0.5288888888888889,-6.208058726329984,-13.768087263299842,78.25154792881426
1588959925.3272943,3.423943742459839,0.06973839608864055,-9.23039240586704,-0.4747144086749776,-0.45549742135303123,0.5548826380510933,-7.106074195186996,-15.907476268334497,86.65244817131247
1588959925.3372943,3.2202339124526835,0.09460108706202078,-9.072675434339514,-0.4811111111111111,-0.4511111111111111,0.56,-7.584508152965156,-13.323934776278755,94.62766305930312
1588959925.3472943,2.9806393671475107,0.11744671940437412,-9.111063517915309,-0.4811111111111111,-0.4511111111111111,0.56,-8.27925197766403,-15.453444916240112,100.99864181014425
1588959925.3572943,3.483548615537143,-0.13816868493732737,-9.249084342468663,-0.4811111111111111,-0.4511111111111111,0.56,-8.751495998866936,-16.726847425819702,106.81451827066071
1588959925.3672943,3.38871814623257,-0.17433494206976782,-9.179359073116284,-0.4811111111111111,-0.4511111111111111,0.56,-8.954126448255805,-15.564955353633806,110.98862814607537
1588959925.3772943,3.1938457529963524,-0.1450425568872677,-9.066324474552717,-0.5053752919151564,-0.43031324185050085,0.5641595738521221,-9.374468038909153,-16.55129624804586,116.44820435990968
1588959925.3872943,3.34297895177758,-0.28683910152364,-9.24911880203152,-0.52,-0.4177777777777778,0.5666666666666667,-9.725874064087124,-20.636275132205874,119.87569866223363
1588959925.3972943,3.3910821582433432,-0.3732464747300298,-9.294054772162228,-0.52,-0.4177777777777778,0.5666666666666667,-9.75,-20.00839208783284,122.1453734983204
1588959925.4072943,3.2903735078937237,-0.4505968425105892,-9.274701578744706,-0.52,-0.4177777777777778,0.5666666666666667,-10.066230265691182,-17.13806796303427,126.84746823257605
1588959925.4172943,3.2097194095400754,-0.47507014761498106,-9.217254483347565,-0.52,-0.4177777777777778,0.5666666666666667,-10.266282633890448,-17.299724746858608,130.1997758326217
1588959925.4272943,3.20099800840894,-0.6174751051117504,-9.23849302943129,-0.5389410144820633,-0.39883676329571444,0.57827567554277,-10.44997510511175,-18.66853839344988,133.4339455631777
1588959925.4372942,3.0837399193548385,-0.7489390120967742,-9.263686995967742,-0.5544444444444444,-0.38333333333333336,0.5877777777777777,-10.996519027217742,-20.098475302419356,138.88660849294354
1588959925.4472942,2.9086976744186046,-0.7825116279069768,-9.333162790697674,-0.5544444444444444,-0.38333333333333336,0.5877777777777777,-11.53139534883721,-20.93779069767442,145.12325581395348
1588959925.4572942,2.783809070121951,-0.8989805640243902,-9.271223323170732,-0.5544444444444444,-0.38333333333333336,0.5877777777777777,-12.492354230182928,-22.612257050304876,154.2725919397866
1588959925.4672942,3.0013204482702616,-1.0626162091927887,-9.231450706512913,-0.5544444444444444,-0.38333333333333336,0.5877777777777777,-13.210167289264252,-26.46760597693682,161.06637363975963
1588959925.4772942,3.3658603297769156,-1.2950789524733268,-9.359102230843842,-0.5619488306929625,-0.370633602758918,0.5923958616230197,-13.662354510184286,-30.289068865179438,167.00758486905917
1588959925.4872942,3.3287966097177426,-1.3884863669074334,-9.381215917268584,-0.5688888888888889,-0.3588888888888889,0.5966666666666667,-13.960220155121405,-26.57219508782217,173.24224392974227
1588959925.4972942,3.28,-1.4492894280762565,-9.368661178509532,-0.5688888888888889,-0.3588888888888889,0.5966666666666667,-14.10826473136915,-23.363734835355285,176.79422118717505
1588959925.5072942,3.318729086398902,-1.5439130205309548,-9.382909695466301,-0.5688888888888889,-0.3588888888888889,0.5966666666666667,-14.125,-25.886495883253286,176.46132963002057
1588959925.5172942,3.33358473902676,-1.737551002384527,-9.454152609732404,-0.5688888888888889,-0.3588888888888889,0.5966666666666667,-13.92452309458624,-28.399789145986045,174.8997339486002
1588959925.5272942,3.300882163050496,-1.7792350282706944,-9.402646489151488,-0.5747124562787898,-0.38865378888171526,0.5669017666738403,-13.70330811143936,-28.64632163050496,173.26727300295423
1588959925.5372941,3.0205739027750442,-1.9202483763038771,-9.3805353276914,-0.5788888888888889,-0.41,0.5455555555555556,-13.422323361543004,-28.893522436528244,170.73841025388703
1588959925.5472941,2.797630083078268,-2.023143856580673,-9.46216440752077,-0.5788888888888889,-0.41,0.5455555555555556,-13.318621556624398,-30.183947310887625,169.748715566244
1588959925.5572941,2.713062305502218,-2.004898364563332,-9.495101635436669,-0.5788888888888889,-0.41,0.5455555555555556,-13.364795073826393,-31.881352214791765,169.94897536913197
1588959925.5672941,2.511273139879389,-2.0653285285032883,-9.5,-0.5788888888888889,-0.41,0.5455555555555556,-13.329632966317162,-34.41048465045912,170.58977143787692
1588959925.577294,2.3203813292711195,-1.9033948736629465,-9.404305063416896,-0.55443351620654,-0.6439209560920327,0.2526227219039419,-13.22278599695334,-36.83494738715766,171.35078401827997
1588959925.587294,2.267083717669631,-1.7539586023687415,-9.357812788252224,-0.5277777777777778,-0.8988888888888888,-0.06666666666666668,-12.980468029369442,-40.24870632402317,171.74479070582592
1588959925.597294,2.39,-1.8210846798324358,-9.520932450628365,-0.5277777777777778,-0.8988888888888888,-0.06666666666666668,-12.513558497905446,-43.32171744090365,170.25529248952722
1588959925.607294,2.223548242126733,-1.7429308258720226,-9.58097694195734,-0.5277777777777778,-0.8988888888888888,-0.06666666666666668,-11.774423548933523,-42.97718826701697,167.33242947765063
1588959925.617294,2.018275722168127,-1.7060691333982474,-9.551310288867251,-0.5277777777777778,-0.8988888888888888,-0.06666666666666668,-10.815514443362545,-40.14265964784161,164.367664719247
1588959925.627294,2.0003425156682697,-1.8020550940096196,-9.55034251566827,-0.7561749987854055,-0.5483925245752967,0.012051369252943353,-10.153038915609969,-35.54247740854103,162.16609277073312
1588959925.637294,1.8512957317073169,-1.8154039634146342,-9.518864329268292,-1.4111111111111112,0.4566666666666666,0.23777777777777775,-9.669254954268293,-25.75266768292683,159.3131669207317
1588959925.647294,1.6432084345244977,-1.691124089279519,-9.517915654755022,-1.4111111111111112,0.4566666666666666,0.23777777777777775,-9.479947284221888,-18.872952083574265,156.23492492579314
1588959925.657294,1.576875704093128,-1.7429542894206806,-9.55,-1.4111111111111112,0.4566666666666666,0.23777777777777775,-9.535866077219813,-18.14452684941795,153.80612475676782
1588959925.667294,1.5143951835284024,-1.749596789018935,-9.513588761566274,-1.4111111111111112,0.4566666666666666,0.23777777777777775,-9.497479931368344,-19.835431475580613,151.6471789018935
1588959925.677294,1.4117931810554163,-1.7918863640850493,-9.485188636408505,-1.1032520175398188,0.2675696953344871,0.4620421736564907,-9.469928977553156,-23.038309675636192,149.16333805500167
1588959925.687294,1.2251175838605706,-1.826015677848076,-9.49,-0.8177777777777778,0.09222222222222222,0.67,-9.412597986550475,-27.653065437109547,146.6137738251562
1588959925.697294,1.0998209122283369,-1.8280179087771664,-9.57819699654883,-0.8177777777777778,0.09222222222222222,0.67,-9.274776140285422,-32.28261123029568,146.87667894785935
1588959925.707294,1.2949007312209175,-2.2079288721471304,-9.666693330378905,-0.8177777777777778,0.09222222222222222,0.67,-9.018425936184356,-34.69970363394638,147.43301850210503
1588959925.717294,1.4827173913043479,-2.446086956521739,-9.670108695652173,-0.8177777777777778,0.09222222222222222,0.67,-8.730298913043478,-33.55095108695652,146.6508152173913
1588959925.727294,1.5880213291558716,-2.427968006266193,-9.611978670844127,-0.6879423322822733,0.07621511250359839,0.7037927871837615,-8.124777821293005,-27.48518934144725,142.18572257034404
1588959925.737294,1.5886695113734801,-2.4496567101928197,-9.60566524431326,-0.6555555555555556,0.07222222222222223,0.7122222222222222,-7.716737784337002,-22.328052311591644,136.2658190028554
1588959925.747294,1.535014772978514,-2.396027576226559,-9.618997045404297,-0.6555555555555556,0.07222222222222223,0.7122222222222222,-7.275073864892569,-17.894236277209416,129.10736412879626
1588959925.757294,1.420310669028478,-2.195155334514239,-9.623043670799836,-0.6555555555555556,0.07222222222222223,0.7122222222222222,-6.628883362855975,-14.225545884997956,118.12930491211337
1588959925.767294,1.3647461538461538,-2.186313461538462,-9.573156730769231,-0.6555555555555556,0.07222222222222223,0.7122222222222222,-6.013245192307692,-14.193846153846154,104.45875
1588959925.777294,1.310973076923077,-2.1997567307692307,-9.579878365384616,-0.6555555555555556,0.07222222222222223,0.7122222222222222,-5.509122596153846,-15.538173076923076,95.720625
1588959925.787294,1.2172546514742546,-2.2142307296066597,-9.601737374569879,-0.5777777777777777,0.11888888888888888,0.7333333333333333,-4.587533224816105,-19.55760899800136,79.00083062040261
1588959925.797294,1.160485403351183,-2.365598548972189,-9.720485403351184,-0.5777777777777777,0.11888888888888888,0.7333333333333333,-3.9923130074278803,-21.88268699257212,66.85577172223182
1588959925.807294,1.14,-2.1825341796875,-9.666679687499999,-0.5777777777777777,0.11888888888888888,0.7333333333333333,-3.203216552734375,-20.901641845703125,54.319488525390625
1588959925.817294,1.0646291418272562,-2.1052225149036463,-9.62,-0.5777777777777777,0.11888888888888888,0.7333333333333333,-2.615912675031194,-16.347553895743797,44.28672405725773
1588959925.8272939,0.8941323737702407,-2.143305899016193,-9.62,-0.5579018064115487,0.12959133500916603,0.7399586571220763,-1.9868291352448035,-8.87759349998086,34.723926233587264
1588959925.8372939,0.7792349321669508,-2.1354462895692787,-9.589617466083475,-0.5344444444444445,0.14222222222222222,0.7477777777777778,-1.5284606901920084,-0.7939408962858625,27.68248897249611
1588959925.8472939,0.634691434673554,-2.034928104899794,-9.623981423994834,-0.5344444444444445,0.14222222222222222,0.7477777777777778,-1.3125,5.328508766483721,22.209107333548562
1588959925.8572938,0.4460196191065353,-1.9733052008307188,-9.603136405815032,-0.5344444444444445,0.14222222222222222,0.7477777777777778,-1.019602536343953,5.99894503115196,19.786040166143785
1588959925.8672938,0.32413394526602074,-1.97,-9.58,-0.5344444444444445,0.14222222222222222,0.7477777777777778,-1.1974956973482918,3.94002581591025,19.37582998682645
1588959925.8772938,0.30451660026560423,-1.8901586985391767,-9.587258300132802,-0.4973464659879002,0.15754530028036004,0.7235834440017707,-1.4828643758300133,-0.26722692563080974,21.014160026560425
1588959925.8872938,0.3843106110743437,-2.0086212221486877,-9.826442853418365,-0.4833333333333333,0.16333333333333333,0.7144444444444444,-1.7955535667729579,-1.9458290716563384,23.54693109118986
1588959925.8972938,0.3947172681107867,-2.2506584402521894,-9.857831121360057,-0.4833333333333333,0.16333333333333333,0.7144444444444444,-1.7794829256924172,-0.07726522827073579,26.51471769742168
1588959925.9072938,0.357550510310352,-2.1086679858362842,-9.61356696521558,-0.4833333333333333,0.16333333333333333,0.7144444444444444,-1.75765465528015,1.9241238804415746,29.44136638200375
1588959925.9172938,4.22821052631579,-16.513219814241488,-19.260080495356036,-0.4833333333333333,0.16333333333333333,0.7144444444444444,15.154914860681114,18.28653250773994,-13.470588235294116
1588959925.9272938,3.758013434299184,-19.16779606566952,-18.045532469699815,-0.4871959956702431,0.17250715638349406,0.7120302804838758,123.86665049961407,67.24860363602228,-213.13974200513172
1588959925.9372938,-2.3808407462531584,-3.1940375895607627,-2.4658654944446368,-0.4922222222222222,0.18444444444444444,0.7088888888888889,213.7596937627635,62.042100048457996,-375.753919905853
1588959925.9472938,-0.9241238834795205,-0.7750476784421019,-2.9124104771867705,-0.4922222222222222,0.18444444444444444,0.7088888888888889,172.1412838476704,4.409849772672407,-290.93972926893053
1588959925.9572937,0.744792447391179,0.7795928221389449,-4.235904439319689,-0.4922222222222222,0.18444444444444444,0.7088888888888889,124.69856676996253,7.848519926491784,-243.01365667339292
1588959925.9672937,1.1442892621397294,0.38992549506568197,-4.199028494869617,-0.4922222222222222,0.18444444444444444,0.7088888888888889,31.44476872426639,40.16876347951114,-227.32807700477093
1588959925.9772937,2.441268131276211,0.9727313300757954,-8.105854334192605,-0.5105916577960747,0.1886541067634523,0.6866924875704838,-91.00264514639683,86.51126110961486,-239.54014851294679
1588959925.9872937,3.718592858817095,1.2321247753730757,-14.603696773185405,-0.5455555555555556,0.19666666666666666,0.6444444444444445,-152.75857244706617,101.11405187905305,-256.2233499687476
1588959925.9972937,5.2674668708796695,1.462902044349737,-16.595924618765398,-0.5455555555555556,0.19666666666666666,0.6444444444444445,-180.00603274622094,2.5286966438036984,-271.249246687088
1588959926.0072937,9.172985006815082,4.424603589277601,-22.41396865061336,-0.5455555555555556,0.19666666666666666,0.6444444444444445,-86.46475323716493,-137.0221182606391,-234.23935143116765
1588959926.0172937,2.678094357789332,-1.928041209320239,-2.955248218756017,-0.5455555555555556,0.19666666666666666,0.6444444444444445,26.053495089543617,-127.1876347968419,-149.91425717311765
1588959926.0272937,3.403848153926157,-0.6133393335733429,-10.695098203928156,-0.5770843278175571,0.12999106630931906,0.6511636909920842,16.130690227609104,-17.97633655346214,-116.23297931917277
1588959926.0372937,3.3214208554752154,-1.2739940325812353,-9.47588661904347,-0.6133333333333333,0.05333333333333334,0.6588888888888889,-9.019353275546651,44.13420294668525,-83.45578474823591
1588959926.0472937,3.7192345306059753,-0.3834935101507898,-9.063020147973681,-0.6133333333333333,0.05333333333333334,0.6588888888888889,-0.3128056117354898,30.667148818514633,-52.99608784977343
1588959926.0572937,3.10196349727292,0.43146223408023043,-9.251910372346705,-0.6133333333333333,0.05333333333333334,0.6588888888888889,2.5128060586026963,6.995394364035606,-34.865124666493514
1588959926.0672936,2.498095329654483,-0.6596712107519852,-9.082200388394316,-0.6133333333333333,0.05333333333333334,0.6588888888888889,0.9820403680132284,1.6515807360264567,-21.63393114653233
1588959926.0772936,2.152202941731887,-1.894933590717388,-9.263963154913029,-0.5990602684347832,0.03588847623510542,0.6632501031634458,0.9193266224637529,-0.36948818691118146,-9.329865555299104
1588959926.0872936,1.996554754616372,-2.0262838616240413,-10.001755044271091,-0.5733333333333334,0.004444444444444445,0.6711111111111111,1.330241351502584,-2.7090327836476744,-0.7854827030051676
1588959926.0972936,2.059649426334001,-2.02,-9.60938080495356,-0.5733333333333334,0.004444444444444445,0.6711111111111111,0.7099059825168458,-0.5589658076853032,0.06502686213804407
1588959926.1072936,2.121255089100981,-1.978218647800841,-9.349797437095374,-0.5733333333333334,0.004444444444444445,0.6711111111111111,0.23886654875525598,0.9448385253287058,0.08147775812587599
1588959926.1172936,2.038352520073522,-1.9027841733578408,-9.759582728709168,-0.5733333333333334,0.004444444444444445,0.6711111111111111,-0.3080036116216826,-0.5160971107026538,-0.011600722324336525
1588959926.1272936,2.1226996911287483,-1.9326996911287484,-9.565399382257498,-0.5748331617381937,-0.0024547662179127943,0.6735108365588875,-0.6725231653438636,-0.02875386089064394,-0.0743807913359659
1588959926.1372936,2.1267831287378027,-1.956084356310985,-9.581608435631098,-0.5788888888888889,-0.021111111111111112,0.68,-0.05463094113943971,0.0826054453887315,0.07255272269436575
1588959926.1472936,2.1146937761506277,-1.978980910041841,-9.561837343096235,-0.5788888888888889,-0.021111111111111112,0.68,0.37117220188284517,0.27550830282426775,0.125
1588959926.1572936,2.08918929907302,-1.9628183444462513,-9.574015287038543,-0.5788888888888889,-0.021111111111111112,0.68,0.1624044560091072,0.15492356480728572,0.09749044560091072
1588959926.1672935,2.0657893005919754,-2.0173685595264197,-9.588947818460865,-0.5788888888888889,-0.021111111111111112,0.68,-0.24670987721990792,-0.1644732514799386,0.0032901227800920876
1588959926.1772935,2.0855261206606,-1.9791445904954499,-9.572369396697,-0.5865278807624611,-0.023523424334344456,0.6691445904954499,-0.375,-0.18215369059656217,-0.07976912706437478
1588959926.1872935,2.0912192805413747,-1.9443903597293126,-9.590732518105188,-0.6,-0.027777777777777776,0.65,-0.13109937077050932,0.13262050338359255,0.0
1588959926.1972935,2.1283175383175386,-1.948037908037908,-9.485421785421785,-0.6,-0.027777777777777776,0.65,0.2938092313092313,0.3790876915876916,-0.014603077103077101
1588959926.2072935,2.1014264479753972,-2.0095294720656076,-9.631441312147617,-0.6,-0.027777777777777776,0.65,0.3184745002562788,0.1875,-0.014889800102511529
1588959926.2172935,2.1124859754009853,-1.961502804919803,-9.539536463957438,-0.6,-0.027777777777777776,0.65,0.04985975400985014,0.09357469251231268,0.07189253074876874
1588959926.2272935,2.0766,-1.9502,-9.6148,-0.5970666666666666,-0.02631111111111111,0.6519555555555556,-0.41625,-0.39625,0.125
1588959926.2372935,2.0897436932391527,-1.908204843592331,-9.536153380423814,-0.5866666666666667,-0.021111111111111112,0.6588888888888889,-0.4182706861755802,-0.25,0.10897452068617558
1588959926.2472935,2.074113127001067,-1.99,-9.646478121664888,-0.5866666666666667,-0.021111111111111112,0.6588888888888889,0.14701173959445038,0.07342582710779078,0.03309765208110993
1588959926.2572935,2.09690317812269,-1.9934515890613451,-9.59929046563193,-0.5866666666666667,-0.021111111111111112,0.6588888888888889,0.2909275683665928,0.3080654101995566,-0.06471729490022173
1588959926.2672935,2.1112548073097632,-1.9912163488316579,-9.553725963451186,-0.5866666666666667,-0.021111111111111112,0.6588888888888889,0.2029447258838819,0.0625,-0.16397236294194095
1588959926.2772934,2.113120003067661,-1.9403199953985082,-9.523759993864678,-0.5853288894853785,-0.019773333929822993,0.6588888888888889,-0.17874997603389764,-0.04499995206779531,-0.010749995206779531
1588959926.2872934,2.0809532756868685,-1.9885700864696974,-9.588093448626262,-0.5790742480502244,-0.013518692494668874,0.6588888888888889,-0.4300525336963399,-0.5476050673926798,-0.06101050673926798
1588959926.2972934,2.102177350198306,-1.966236466931075,-9.665645299603387,-0.5788888888888889,-0.013333333333333334,0.6588888888888889,0.052586357058634375,0.0,0.0
1588959926.3072934,2.124207592135501,-1.99,-9.596339262915993,-0.5788888888888889,-0.013333333333333334,0.6588888888888889,0.39139235254064175,0.15778470508128353,0.026297450846880586
1588959926.3172934,2.13,-1.99,-9.520505893745618,-0.5788888888888889,-0.013333333333333334,0.6588888888888889,0.37710789060673855,0.3135539453033693,0.0625
1588959926.3272934,2.13,-1.99,-9.436471432864728,-0.5788888888888889,-0.013333333333333334,0.6588888888888889,0.02696430360303198,0.138482151801516,0.0625
1588959926.3372934,2.072452536452005,-1.9450949270959903,-9.63037970838396,-0.5866666666666667,-0.013333333333333334,0.6588888888888889,-0.23467164717496963,-0.09434329434993925,-0.015328352825030376
1588959926.3472934,2.083309270947504,-1.9316546354737518,-9.576618541895007,-0.5866666666666667,-0.013333333333333334,0.6588888888888889,-0.15647558486715296,0.010341471710949016,-0.0625
1588959926.3572934,2.1170125764900773,-1.9589622705297678,-9.605188647351161,-0.5866666666666667,-0.013333333333333334,0.6588888888888889,0.28085698468508064,0.1810141908110484,-0.043828603062983876
1588959926.3672934,2.11,-1.9801202194398508,-9.500721316639105,-0.5866666666666667,-0.013333333333333334,0.6588888888888889,0.4947403995065228,0.31099725700186365,0.0015027429981363362
1588959926.3772933,2.1091018738783855,-1.9882037477567713,-9.558203747756771,-0.5859681241276333,-0.01463062662010953,0.6595874314279222,0.04566013521973206,0.16504684695964275,0.11377342347982138
1588959926.3872933,2.100349526313593,-1.970699052627186,-9.540699052627184,-0.57916074268835,-0.027272906435921333,0.6663948128672055,-0.11844638162013271,-0.05376184216017696,0.00436907891991152
1588959926.3972933,2.0668539752448933,-1.9431460247551067,-9.623426987622446,-0.5788888888888889,-0.027777777777777776,0.6666666666666666,-0.22506929151795885,-0.18574398207912524,0.021418672640291594
1588959926.4072933,2.0837713354895064,-1.9526280129370381,-9.626228664510494,-0.5788888888888889,-0.027777777777777776,0.6666666666666666,0.20392508085648858,-0.038929153190585236,0.08607084680941476
1588959926.4172933,2.093048393416928,-1.9869516065830721,-9.586467672413793,-0.5788888888888889,-0.027777777777777776,0.6666666666666666,0.45655245885579937,0.0762098354231975,0.06784262343260189
1588959926.4272933,2.1,-1.9774216973227468,-9.512578302677253,-0.5798915621522652,-0.025915670288650376,0.6691017303062948,0.42748523720225035,0.1935996289350836,-0.05444280413358337
1588959926.4372933,2.1,-1.9606866695926266,-9.529313330407373,-0.5863996284917563,-0.013829261372452531,0.6849070342736305,-0.04318741770737744,-0.17247910266129352,-0.0021458424769580653
1588959926.4472933,2.08,-1.9445703561235885,-9.594277670926914,-0.5866666666666667,-0.013333333333333334,0.6855555555555556,-0.22143527422757164,-0.09643527422757166,-0.04821763711378583
1588959926.4572933,2.08,-1.9575815858046903,-9.69186189353518,-0.5866666666666667,-0.013333333333333334,0.6855555555555556,-0.14011508872068495,-0.015115088720684941,-0.0075575443603424705
1588959926.4672933,2.0915660628907684,-2.015301811327694,-9.57903755976462,-0.5866666666666667,-0.013333333333333334,0.6855555555555556,0.2070757861346083,0.26356053466347923,0.019575786134608312
1588959926.4772933,2.1,-1.99,-9.514968545425514,-0.587784767683219,-0.017060336721840794,0.6808968013199213,0.2810534089094683,0.0,0.11451780296982277
1588959926.4872932,2.0946657709103125,-1.9793315418206248,-9.508669801813907,-0.5933333333333334,-0.03555555555555556,0.6577777777777778,0.02498320456835741,-0.03333893181054753,0.04583053409472623
1588959926.4972932,2.080576755122607,-1.9511535102452133,-9.557981357070878,-0.5933333333333334,-0.03555555555555556,0.6577777777777778,-0.23918584145112526,-0.12139528048370843,0.0018023597581457856
1588959926.5072932,2.0842896649530225,-1.9678551675234888,-9.66498617266442,-0.5933333333333334,-0.03555555555555556,0.6577777777777778,-0.21866357915263251,-0.049094797021804644,0.026810405956390712
1588959926.5172932,2.099160432547421,-1.9604197837262896,-9.612938486084028,-0.5933333333333334,-0.03555555555555556,0.6577777777777778,0.10663446197482718,-0.0026236482893104013,0.1197527034213792
1588959926.5272932,2.1,-1.97134475607968,-9.547982865880481,-0.5933333333333334,-0.033762547449315644,0.6583754471465244,0.30409527450200036,0.058297637251000185,0.12079763725100019
1588959926.5372932,2.1,-1.9889158165937035,-9.521626275109444,-0.5933333333333334,-0.010334466763950854,0.6661848073749793,0.19427614628935297,0.0033880731446764775,0.06588807314467648
1588959926.5472932,2.101647267401526,-1.9527842441994911,-9.61505819779542,-0.5933333333333334,-0.008888888888888889,0.6666666666666666,-0.13210610498728126,-0.08700763123410159,0.07279542125953904
1588959926.5572932,2.081375,-1.96,-9.677249999999999,-0.5933333333333334,-0.008888888888888889,0.6666666666666666,-0.28671875,-0.26953125,-0.07109375
1588959926.5672932,2.092542806315321,-1.9676284189459639,-9.624400711585501,-0.5933333333333334,-0.008888888888888889,0.6666666666666666,-0.07732238158772514,0.06357015788303313,-0.125
1588959926.5772932,2.1011802664446297,-1.99,-9.518229600333056,-0.5933333333333334,-0.010003584975483393,0.6661421038023869,0.06987666527893423,0.2426233347210658,-0.1213116673605329
1588959926.5872931,2.113150463337416,-1.983150463337416,-9.493424768331293,-0.5933333333333334,-0.027777777777777776,0.6577777777777778,0.10188079171769926,0.10359519792942481,-0.041095197929424815
1588959926.5972931,2.0879354290569245,-1.966983857264231,-9.557306711979608,-0.5933333333333334,-0.027777777777777776,0.6577777777777778,-0.1002017841971113,0.0247982158028887,-0.0377017841971113
1588959926.6072931,2.066956361667569,-1.962318787222523,-9.666812127774769,-0.5933333333333334,-0.027777777777777776,0.6577777777777778,-0.14402273957769357,-0.03351515971846237,-0.11050757985923118
1588959926.6172931,2.0910173619294525,-1.9720347238589049,-9.584913190352738,-0.5933333333333334,-0.027777777777777776,0.6577777777777778,0.006358512059077696,0.0561414879409223,-0.0561414879409223
1588959926.627293,2.0976075104093015,-1.9852150208186032,-9.55196244795349,-0.5933333333333334,-0.027777777777777776,0.6577777777777778,0.047546940058134965,0.014953059941865035,-0.014953059941865035
1588959926.637293,2.1,-1.99,-9.500353194331083,-0.5867255323885138,-0.02116997683295821,0.6665881790375372,0.24834440157305038,0.061948133857683454,0.24779253543073382
1588959926.647293,2.0826702125449295,-1.99,-9.569319149820283,-0.5866666666666667,-0.021111111111111112,0.6666666666666666,0.14168882840580915,-0.04581117159419085,0.14168882840580915
1588959926.657293,2.0974141885033273,-1.9487070942516636,-9.647414188503328,-0.5866666666666667,-0.021111111111111112,0.6666666666666666,-0.1875,-0.24191933907289748,-0.008080660927102521
1588959926.667293,2.0816455505846085,-1.9408227752923042,-9.63164555058461,-0.5866666666666667,-0.021111111111111112,0.6666666666666666,-0.1875,-0.1926423455769014,-0.057357654423098606
1588959926.677293,2.099731078312937,-1.9498655391564683,-9.57080676506119,-0.5866666666666667,-0.021111111111111112,0.6666666666666666,0.059138478911707565,-0.06418076054414622,0.06081923945585378
1588959926.687293,2.1,-1.98,-9.497071265291769,-0.5933333333333334,-0.021111111111111112,0.6666666666666666,0.24116091838528975,0.10732183677057952,0.05366091838528976
1588959926.697293,2.1,-1.9764214601769912,-9.556103429203539,-0.5933333333333334,-0.021111111111111112,0.6666666666666666,0.14276825221238937,0.011182936946902654,0.0
1588959926.707293,2.1,-1.961630182249987,-9.626739635500027,-0.5933333333333334,-0.021111111111111112,0.6666666666666666,-0.08287727812483867,0.03193408281274201,0.01018863906241933
1588959926.717293,2.1,-1.9662827020695042,-9.60070675517376,-0.5933333333333334,-0.021111111111111112,0.6666666666666666,-0.15265033190160093,-0.125,0.05088344396720031
1588959926.727293,2.0999192234817006,-1.950242329554898,-9.559676893926802,-0.5932794823211338,-0.021111111111111112,0.6666038404857672,0.00151455971811322,-0.12449514676062892,0.0005048532393710734
1588959926.737293,2.0849854988399072,-1.9850145011600928,-9.51247824825986,-0.5866666666666667,-0.021111111111111112,0.6588888888888889,0.1875,0.00018126450116008608,0.07817031612529002
1588959926.747293,2.072994813278008,-1.9925129668049792,-9.513958506224066,-0.5866666666666667,-0.021111111111111112,0.6588888888888889,0.15006483402489626,0.17814120850622406,0.11564120850622407
1588959926.757293,2.0939342642320082,-1.9539342642320086,-9.640164339419979,-0.5866666666666667,-0.021111111111111112,0.6588888888888889,-0.07479457572502685,0.06352712137486574,0.07479457572502685
1588959926.767293,2.1080906153394228,-1.9687270768929486,-9.6,-0.5866666666666667,-0.021111111111111112,0.6588888888888889,-0.125,-0.1875,0.125
1588959926.777293,2.0904894459287444,-1.9569929639524961,-9.6,-0.5866666666666667,-0.021111111111111112,0.6588888888888889,-0.125,-0.1875,0.125
1588959926.787293,2.094007521593586,-1.978015043187172,-9.536966152828862,-0.6100125359893099,-0.02578028497563977,0.6643362583975057,0.09386752489978095,-0.0999529900400876,0.08122649502004381
1588959926.797293,2.091311762790814,-1.99,-9.518688237209185,-0.62,-0.027777777777777776,0.6666666666666666,0.24180148255741152,-0.0625,-0.046102965114823063
1588959926.807293,2.1131322299895685,-1.973735540020863,-9.628433885005217,-0.62,-0.027777777777777776,0.6666666666666666,-0.1347882187174018,-0.019576437434803595,0.07228821871740179
1588959926.817293,2.126192685547027,-1.947614628905946,-9.621903657226486,-0.62,-0.027777777777777776,0.6666666666666666,-0.17560214233445953,-0.10120428466891904,0.11310214233445952
1588959926.827293,2.0929891642794867,-1.9585054178602566,-9.601494582139743,-0.62,-0.027777777777777776,0.6666666666666666,-0.01401170756009465,-0.18282943081330177,0.009341138373396438
1588959926.837293,2.0974791473586656,-1.9674791473586655,-9.570083410565339,-0.6000556070435589,-0.033594892390073114,0.6608495520543713,0.046744670991658945,-0.0005213160333642219,0.046744670991658945
1588959926.847293,2.1,-1.9893631812054688,-9.507005006739842,-0.5933333333333334,-0.03555555555555556,0.6588888888888889,0.125,0.24203976506836125,-0.10907953013672252
1588959926.857293,2.1,-1.9812863470055844,-9.595850182938571,-0.5933333333333334,-0.03555555555555556,0.6588888888888889,0.125,0.1410793375698055,0.09284132486038896
1588959926.867293,2.093016504349119,-1.96,-9.583966991301763,-0.5933333333333334,-0.03555555555555556,0.6588888888888889,-0.07192657609099695,-0.0625,0.034220271727009144
1588959926.8772929,2.1086075384729757,-1.96,-9.552784923054048,-0.5933333333333334,-0.03555555555555556,0.6588888888888889,-0.12064855772804996,-0.0625,-0.11194567318414989
1588959926.8872929,2.0915001100407995,-1.9530002200815995,-9.5684998899592,-0.5866666666666667,-0.008888888888888889,0.6733333333333333,-0.024997248980006437,-0.07812156122500805,0.10624862449000322
1588959926.8972929,2.0986007889078873,-1.9672015778157748,-9.561399211092112,-0.5866666666666667,-0.008888888888888889,0.6733333333333333,0.15251972269718464,0.14377465337148082,0.01749013865140768
1588959926.9072928,2.1,-1.977211923400566,-9.634423846801132,-0.5866666666666667,-0.008888888888888889,0.6733333333333333,0.098861781880307,0.34886178188030703,-0.116287260626769
1588959926.9172928,2.0985513985643056,-1.9628972028713887,-9.598551398564306,-0.5866666666666667,-0.008888888888888889,0.6733333333333333,-0.07155375897308958,0.1512849641076417,-0.053446241026910424
1588959926.9272928,2.0911354715513277,-1.9777290568973442,-9.591135471551327,-0.5866666666666667,-0.008888888888888889,0.6733333333333333,-0.117903302804201,-0.034113211216803996,-0.007096697195799001
1588959926.9372928,2.0829043148222133,-1.98,-9.561617259288854,-0.5961275802370488,-0.030964353886447374,0.6686028765481422,-0.1693480323611666,-0.0625,0.0886960647223332
1588959926.9472928,2.0989249787067514,-1.9736916737644161,-9.543691673764416,-0.6,-0.04,0.6666666666666666,0.009635194861996738,0.016354077944798692,0.04614592205520131
1588959926.9572928,2.1003752414920496,-1.9603752414920492,-9.607373309555655,-0.6,-0.04,0.6666666666666666,0.18515474067469162,0.12265474067469163,0.0
1588959926.9672928,2.1,-1.9748520527566626,-9.595147947243337,-0.6,-0.04,0.6666666666666666,0.1875,0.17141266486457069,-0.09282532972914136
1588959926.9772928,2.092095069921107,-1.956285209763322,-9.582095069921108,-0.6,-0.04,0.6666666666666666,0.03928256102076272,0.1875,-0.026188374013841817
1588959926.9872928,2.098456418965438,-1.968456418965438,-9.548456418965438,-0.5866666666666667,-0.013333333333333334,0.6311111111111111,0.125,0.1875,-0.125
1588959926.9972928,2.0909536019764547,-1.9619072039529095,-9.549536019764547,-0.5866666666666667,-0.013333333333333334,0.6311111111111111,0.125,0.1815399876471579,-0.10711996294147373
1588959927.0072927,2.0988038331243333,-1.9776076662486664,-9.628038331243333,-0.5866666666666667,-0.013333333333333334,0.6311111111111111,0.125,0.13247604297291732,0.04007187108124802
1588959927.0172927,2.0996270310192022,-1.99,-9.579254062038405,-0.5866666666666667,-0.013333333333333334,0.6311111111111111,-0.0625,0.05550683161004431,-0.24067577548005908
1588959927.0272927,2.0910222796651894,-1.99,-9.56204455933038,-0.5866666666666667,-0.013333333333333334,0.6311111111111111,-0.0625,-0.10583225627769574,-0.025556991629739068
1588959927.0372927,2.1,-1.95,-9.551962390675165,-0.6133333333333333,-0.03555555555555556,0.6666666666666666,0.00613247085989024,0.01839741257967072,-0.0625
1588959927.0472927,2.1,-1.95,-9.565229404229072,-0.6133333333333333,-0.03555555555555556,0.6666666666666666,0.047591888215850316,0.14277566464755095,-0.0625
1588959927.0572927,2.0803352977781033,-1.9794970533328453,-9.628994106665692,-0.6133333333333333,-0.03555555555555556,0.6666666666666666,0.12395219444342764,0.12604780555657236,-0.0625
1588959927.0672927,2.09023139664403,-1.98,-9.60861162013582,-0.6133333333333333,-0.03555555555555556,0.6666666666666666,0.11921508389924904,-0.05816131292443678,-0.0028924580503754804
1588959927.0772927,2.097766699004707,-1.98,-9.563399805971759,-0.6133333333333333,-0.03555555555555556,0.6666666666666666,-0.06916747511767454,0.08312560633825589,-0.09708373755883727
1588959927.0872927,2.1,-1.9671090047393365,-9.530663507109004,-0.5911321748288573,-0.026245392311743027,0.6709636650868879,-0.125,0.125,-0.04443127962085308
1588959927.0972927,2.1091543920967224,-1.9691543920967225,-9.55661756838689,-0.5788888888888889,-0.021111111111111112,0.6733333333333333,0.10385980241806053,0.18221495060451515,-0.05721495060451513
1588959927.1072927,2.0924533865425117,-1.97,-9.630186453829953,-0.5788888888888889,-0.021111111111111112,0.6733333333333333,0.015333665890699469,0.1875,-0.0625
1588959927.1172926,2.1,-1.9704963043189117,-9.56,-0.5788888888888889,-0.021111111111111112,0.6733333333333333,-0.0031019019931976667,-0.0031019019931976667,0.0
1588959927.1272926,2.1,-1.9784658648273765,-9.56,-0.5788888888888889,-0.021111111111111112,0.6733333333333333,-0.05291165517110338,-0.05291165517110338,0.0
1588959927.1372926,2.0998624318004677,-1.9598624318004676,-9.540687840997661,-0.6133333333333333,-0.0011111111111111113,0.6588888888888889,-0.0625,0.0,-0.0625
1588959927.1472926,2.091689594699922,-1.951689594699922,-9.58155202650039,-0.6133333333333333,-0.0011111111111111113,0.6588888888888889,-0.0625,0.0,-0.0625
1588959927.1572926,2.09,-1.9563978463609268,-9.621989231804635,-0.6133333333333333,-0.0011111111111111113,0.6588888888888889,0.01747307951158543,0.07997307951158543,-0.022513460244207285
1588959927.1672926,2.106712269585253,-1.96,-9.606575460829493,-0.6133333333333333,-0.0011111111111111113,0.6588888888888889,0.11472584245391705,0.07277415754608295,0.0
1588959927.1772926,2.103735418342719,-1.9662645816572808,-9.556147928399033,-0.6133333333333333,-0.0011111111111111113,0.6588888888888889,0.04669272928399035,-0.015807270716009653,-0.039153635358004826
1588959927.1872926,2.0933292608430056,-1.9766707391569944,-9.516658521686011,-0.5999918550193444,-0.0011111111111111113,0.6640772415665512,-0.08338423946243127,-0.0625,-0.0625
1588959927.1972926,2.0840691042654904,-1.9681382085309806,-9.52186179146902,-0.5933333333333334,-0.0011111111111111113,0.6666666666666666,-0.1620680983406855,0.011636196681371017,-0.0625
1588959927.2072926,2.0938423542507305,-1.9253941143731736,-9.57152706275219,-0.5933333333333334,-0.0011111111111111113,0.6666666666666666,0.07204414220119659,0.10575735703353276,-0.0625
1588959927.2172925,2.1,-1.917141747237569,-9.518582527624309,-0.5933333333333334,-0.0011111111111111113,0.6666666666666666,0.09822815953038674,0.16963592023480661,-0.15177184046961326
1588959927.2272925,2.1,-1.9122359593117628,-9.49,-0.5933333333333334,-0.0011111111111111113,0.6666666666666666,0.0625,0.13897474569851748,-0.09044949139703495
1588959927.2372925,2.080572813013758,-1.91,-9.470572813013758,-0.5868576043379193,-0.03456904425408363,0.6504773441781316,-0.1196298779960197,0.06429004066799343,-0.12320995933200657
1588959927.2472925,2.1,-1.89991907656198,-9.4512138515703,-0.5866666666666667,-0.03555555555555556,0.65,0.06199422851237498,0.12449422851237497,-0.12449422851237497
1588959927.2572925,2.1,-1.8925723844388782,-9.561414233416825,-0.5866666666666667,-0.03555555555555556,0.65,0.016077402742989265,0.07857740274298927,-0.07857740274298927
1588959927.2672925,2.1,-1.9198824417397866,-9.51,-0.5866666666666667,-0.03555555555555556,0.65,0.0014694782526653459,-0.06176526087366733,-0.06176526087366733
1588959927.2772925,2.1,-1.9119679215020284,-9.51,-0.5866666666666667,-0.03555555555555556,0.65,0.10040098122464383,-0.012299509387678084,-0.012299509387678084
1588959927.2872925,2.1,-1.919908816501069,-9.460455917494656,-0.5866666666666667,-0.013535963330957673,0.6874333067818165,-0.06079030939504465,0.061930103131681555,0.0
1588959927.2972925,2.0998345497641453,-1.8998345497641453,-9.491985402830256,-0.5866666666666667,-0.013333333333333334,0.6877777777777778,-0.0625,-0.0604318720518176,-0.0010340639740911972
1588959927.3072925,2.0899922982452486,-1.8900231052642533,-9.609961491226244,-0.5866666666666667,-0.013333333333333334,0.6877777777777778,-0.062355592098415936,0.0625,-0.0625
1588959927.3172925,2.081261630690452,-1.9162151079286442,-9.56630815345226,-0.5866666666666667,-0.013333333333333334,0.6877777777777778,0.10134442455402676,0.0625,-0.0625
1588959927.3272924,2.0907917412291916,-1.92,-9.500645423239447,-0.5866666666666667,-0.013333333333333334,0.6877777777777778,0.05755161731755365,0.12994838268244635,-0.028775808658776825
1588959927.3372924,2.1047304013699204,-1.92,-9.45946080273984,-0.592973868493227,-0.020166135312106995,0.6741121738202305,0.0,0.06923996575199433,-0.029565008562001418
1588959927.3472924,2.099163202335421,-1.9145816011677106,-9.47,-0.6,-0.027777777777777776,0.6588888888888889,0.0,0.03909497810542653,-0.1302299854036177
1588959927.3572924,2.096744817277054,-1.9032551827229456,-9.550937807324653,-0.6,-0.027777777777777776,0.6588888888888889,0.0,0.125,-0.06103467605522994
1588959927.3672924,2.1,-1.924324246219054,-9.533243425488873,-0.6,-0.027777777777777776,0.6588888888888889,0.050675512956362585,0.125,0.0
1588959927.3772924,2.0931420006438115,-1.9231420006438114,-9.492568002575245,-0.6,-0.027777777777777776,0.6588888888888889,0.0625,0.16786249597617897,-0.04286249597617898
1588959927.3872924,2.1022383896611037,-1.913880805169448,-9.486119194830552,-0.6,-0.027777777777777776,0.6636482626459848,0.024255032309051183,0.14925503230905118,-0.024255032309051183
1588959927.3972924,2.092446028159221,-1.9012230140796105,-9.542661915522336,-0.6,-0.027777777777777776,0.6666666666666666,-0.05485616200243352,0.015287675995132963,0.0
1588959927.4072924,2.09,-1.886926937143829,-9.576146125712341,-0.6,-0.027777777777777776,0.6666666666666666,-0.021646678574466276,0.040853321425533724,0.0
1588959927.4172924,2.105796677157286,-1.9036950157359291,-9.550508307106783,-0.6,-0.027777777777777776,0.6666666666666666,0.09872923223303814,-0.08559384834955719,0.0
1588959927.4272923,2.1029785088059585,-1.9029785088059585,-9.511914035223834,-0.6,-0.027777777777777776,0.6666666666666666,0.125,0.05053727985103576,-0.04388431996275894
1588959927.4372923,2.1,-1.9,-9.457378967617826,-0.5886343913647537,-0.015465035089594244,0.6666666666666666,0.125,0.018447419044565566,0.09732887143315164
1588959927.4472923,2.1,-1.917851081630214,-9.45,-0.5866666666666667,-0.013333333333333334,0.6666666666666666,-0.09813852037767418,-0.11156926018883709,0.06921536990558146
1588959927.4572923,2.1,-1.89396008622488,-9.571519597617225,-0.5866666666666667,-0.013333333333333334,0.6666666666666666,-0.17924982036483322,-0.17924982036483322,-0.10024946109449967
1588959927.4672923,2.107475201583799,-1.897475201583799,-9.545148790497205,-0.5866666666666667,-0.013333333333333334,0.6666666666666666,-0.0006199604050236007,-0.047339970303767714,-0.0315599802025118
1588959927.4772923,2.11,-1.905516447185126,-9.496901316889243,-0.5866666666666667,-0.013333333333333334,0.6666666666666666,0.0625,0.03447779490703765,0.0689555898140753
1588959927.4872923,2.11,-1.9045257202595085,-9.47,-0.5824088935351734,-0.013333333333333334,0.6624088935351734,0.0625,-0.005928496756141807,0.022357254865787296
1588959927.4972923,2.0945577015797383,-1.9154422984202615,-9.47,-0.5788888888888889,-0.013333333333333334,0.6588888888888889,0.0625,0.03401436512663433,0.03401436512663433
1588959927.5072923,2.0970528527154357,-1.898841441853693,-9.547581379869792,-0.5788888888888889,-0.013333333333333334,0.6588888888888889,0.01841967052852716,-0.06974098841441853,-0.025660658942945683
1588959927.5172923,2.1,-1.89,-9.555998963014172,-0.5788888888888889,-0.013333333333333334,0.6588888888888889,0.0,-0.07499783961285862,-0.012497839612858622
1588959927.5272923,2.1,-1.8966286006476905,-9.503599795466167,-0.5788888888888889,-0.013333333333333334,0.6588888888888889,0.041428754048065446,-0.021071245951934554,-0.041428754048065446
1588959927.5372922,2.1,-1.905190831487733,-9.490381662975466,-0.5967684195688582,-0.013333333333333334,0.6738846242978954,0.030057303201668564,0.0,0.0023853935966628714
1588959927.5472922,2.08543432163982,-1.91728283918009,-9.5,-0.6133333333333333,-0.013333333333333334,0.6877777777777778,0.0,0.136553234626688,0.01698225512443733
1588959927.5572922,2.08,-1.92,-9.547153552953988,-0.6133333333333333,-0.013333333333333334,0.6877777777777778,-0.07367742649060713,0.0769838602640893,0.036838713245303564
1588959927.5672922,2.092322910902048,-1.9076770890979524,-9.567677089097952,-0.6133333333333333,-0.013333333333333334,0.6877777777777778,-0.08649090343110127,-0.07701819313779745,0.10100909656889873
1588959927.5772922,2.0886811493156214,-1.9056594253421892,-9.526043447946865,-0.6133333333333333,-0.013333333333333334,0.6877777777777778,-0.0625,-0.01888577483395104,0.16037140838868297
1588959927.5872922,2.08,-1.9228738383553927,-9.48068924246691,-0.6047507744297381,-0.013333333333333334,0.6741887261804187,-0.022269255139397356,0.022269255139397356,0.06680776541819207
1588959927.5972922,2.0923768961493585,-1.9114346557759625,-9.451434655775962,-0.6,-0.013333333333333334,0.6666666666666666,0.0,0.0,0.0
1588959927.6072922,2.1,-1.9071535136865694,-9.518688650552265,-0.6,-0.013333333333333334,0.6666666666666666,0.08941892108211942,0.04470946054105971,0.08941892108211942
1588959927.6172922,2.0922979050637336,-1.9254041898725327,-9.534595810127467,-0.6,-0.013333333333333334,0.6666666666666666,-0.019414280054994987,0.110638093351665,-0.11569046675832498
1588959927.6272922,2.09,-1.9195663203083075,-9.519566320308307,-0.6,-0.013333333333333334,0.6666666666666666,-0.0625,0.059789501926923255,-0.0896842528903849
1588959927.6372921,2.085958840037418,-1.9180823199251635,-9.497876520112255,-0.5914686623012161,-0.016476457748674775,0.6742999688182102,-0.01198550046772684,-0.02525724976613658,-0.10102899906454632
1588959927.6472921,2.0872035849114514,-1.93,-9.501610754734354,-0.5788888888888889,-0.021111111111111112,0.6855555555555556,0.0625,-0.10752240569657162,-0.11493278291028514
1588959927.6572921,2.0973561570173866,-1.9226438429826134,-9.57620541315648,-0.5788888888888889,-0.021111111111111112,0.6855555555555556,-0.07542794407599929,-0.07902401864133357,0.07542794407599929
1588959927.667292,2.0921272983702464,-1.9121272983702464,-9.537018386961972,-0.5788888888888889,-0.021111111111111112,0.6855555555555556,-0.125,-0.0625,-0.02261315555787713
1588959927.677292,2.1023438213327004,-1.9161719106663502,-9.5076561786673,-0.5788888888888889,-0.021111111111111112,0.6855555555555556,-0.04785111667062325,0.01464888332937675,-0.023925558335311625
1588959927.687292,2.1058634831128376,-1.9324095506614878,-9.487590449338512,-0.5821061798011264,-0.017893820198873533,0.6745248438564553,0.02585323054476626,0.036646769455233735,0.0
1588959927.697292,2.1,-1.937232974160477,-9.474255675279842,-0.5866666666666667,-0.013333333333333334,0.6588888888888889,0.009304059001987657,0.07979391149701852,-0.026597970499006172
1588959927.707292,2.0952010400572787,-1.9152010400572785,-9.527989599427215,-0.5866666666666667,-0.013333333333333334,0.6588888888888889,-0.0625,0.0975195010739722,-0.002513000715981463
1588959927.717292,2.09,-1.9047524245196705,-9.553762122598354,-0.5866666666666667,-0.013333333333333334,0.6588888888888889,0.0030946935041171048,-0.03279734675205855,0.09529734675205856
1588959927.727292,2.09,-1.9043971512740303,-9.516808546177908,-0.5866666666666667,-0.013333333333333334,0.6588888888888889,0.03501780453730981,-0.08998219546269019,0.07003560907461961
1588959927.737292,2.091743306270513,-1.908256693729487,-9.494770081188461,-0.5889910750273507,-0.013333333333333334,0.6602447937659546,0.0,-0.08141734323717395,0.0
1588959927.747292,2.0959123756881044,-1.9040876243118954,-9.465912375688106,-0.6,-0.013333333333333334,0.6666666666666666,0.0,0.125,0.0
1588959927.757292,2.0954740187949144,-1.8990519624101714,-9.520214206744058,-0.6,-0.013333333333333334,0.6666666666666666,0.03421261746821448,0.056574765063571036,-0.03421261746821448
1588959927.767292,2.092954467731692,-1.9181821290732326,-9.541817870926767,-0.6,-0.013333333333333334,0.6666666666666666,0.0625,-0.08806915335385217,0.06960373003077824
1588959927.777292,2.09,-1.924098386586523,-9.512295159759569,-0.6,-0.013333333333333334,0.6666666666666666,0.02561491616577033,-0.05122983233154066,0.05122983233154066
1588959927.787292,2.083270420301348,-1.913270420301348,-9.486540840602697,-0.5820544541369284,-0.013333333333333334,0.6756394395982025,0.0,0.0,0.08411974623314829
1588959927.797292,2.0876816415735795,-1.91,-9.503044924720738,-0.5733333333333334,-0.013333333333333334,0.68,0.1440307795046139,0.0480102598348713,0.0769897401651287
1588959927.807292,2.10558924017131,-1.9022053799143448,-9.564562340599586,-0.5733333333333334,-0.013333333333333334,0.68,0.04135087339396565,0.013783624464655218,0.0625
1588959927.817292,2.11,-1.9144404793373864,-9.543898801656534,-0.5733333333333334,-0.013333333333333334,0.68,0.04512649792933298,0.09025299585866596,0.0625
1588959927.827292,2.1042333484100606,-1.9084666968201214,-9.495400090460365,-0.5733333333333334,-0.013333333333333334,0.68,0.026458427562879784,0.01687528268863936,0.0625
1588959927.837292,2.1046715328467154,-1.9,-9.474671532846715,-0.582676399026764,-0.011257096512570966,0.6701378751013788,0.0,-0.004105839416058396,-0.025091240875912413
1588959927.847292,2.1042478339962383,-1.9,-9.47424783399624,-0.5933333333333334,-0.008888888888888889,0.6588888888888889,0.0,0.02654896247648999,0.018804150094040045
1588959927.857292,2.1,-1.909355454802119,-9.507421819208478,-0.5933333333333334,-0.008888888888888889,0.6588888888888889,0.058471592513244644,0.0,0.09576420374337768
1588959927.867292,2.1,-1.9081555954518252,-9.538155595451826,-0.5933333333333334,-0.008888888888888889,0.6588888888888889,0.10032415719130261,0.07402752842609216,0.03782415719130261
1588959927.877292,2.1,-1.9000843691148774,-9.509915630885121,-0.5933333333333334,-0.008888888888888889,0.6588888888888889,0.030986346516007533,0.06144538606403013,0.03151365348399247
1588959927.887292,2.1,-1.9060803654343297,-9.488241096302989,-0.5933333333333334,-0.013679553358041423,0.6532271945162541,0.0489954320708782,-0.013504567929121802,-0.010993148106317283
1588959927.897292,2.1,-1.8960686548617582,-9.489656725691209,-0.5933333333333334,-0.021111111111111112,0.6444444444444445,0.125,-0.035783628456042244,-0.05128727865796831
1588959927.907292,2.105202110216012,-1.9108084408640478,-9.561616881728096,-0.5933333333333334,-0.021111111111111112,0.6444444444444445,0.15751318885007487,-0.12247362229985029,0.09501318885007486
1588959927.9172919,2.105041087781608,-1.9200821755632158,-9.565287614471256,-0.5933333333333334,-0.021111111111111112,0.6444444444444445,0.09452039590514989,-0.0625,0.03202039590514989
1588959927.9272919,2.0965428944076234,-1.91,-9.51962868322287,-0.5933333333333334,-0.021111111111111112,0.6444444444444445,0.021606909952354335,-0.08410690995235434,-0.040893090047645665
1588959927.9372919,2.09,-1.9063198948662512,-9.485279579465006,-0.5978312396079152,-0.018248807118195393,0.6575292626977735,0.0625,-0.03299737165628047,0.023000657085929882
1588959927.9472919,2.094048946612801,-1.9040489466128008,-9.472146839838404,-0.6055555555555555,-0.013333333333333334,0.68,0.03719408366999433,0.023776334679977293,0.03719408366999433
1588959927.9572918,2.0949529170503056,-1.9150470829496944,-9.525329580647862,-0.6055555555555555,-0.013333333333333334,0.68,0.03154426843559052,-0.09345573156440948,0.03154426843559052
1588959927.9672918,2.09,-1.9091339378623458,-9.516535751449384,-0.6055555555555555,-0.013333333333333334,0.68,0.09645644418016946,-0.09645644418016946,0.028543555819830535
1588959927.9772918,2.1056841380666733,-1.9104560920444487,-9.490456092044449,-0.6055555555555555,-0.013333333333333334,0.68,0.09232471236109746,-0.05964942472219491,-0.06535057527780509
1588959927.9872918,2.0996623817329536,-1.9098311908664767,-9.489831190866477,-0.6055555555555555,-0.011073597970328192,0.6732207939109845,0.09427752854225979,-0.1271101141690392,0.0021101141690391956
1588959927.9972918,2.0959002687369366,-1.9,-9.474699910421021,-0.6055555555555555,-0.008888888888888889,0.6666666666666666,-0.040627799343087495,-0.0843722006569125,0.15812555986861748
1588959928.0072918,2.106490798194895,-1.903509201805105,-9.505092018051052,-0.6055555555555555,-0.008888888888888889,0.6666666666666666,-0.07783744359046679,0.0625,0.14363497743618672
1588959928.0172918,2.1,-1.9141092703277307,-9.563836094508403,-0.6055555555555555,-0.008888888888888889,0.6666666666666666,0.1121585302258414,0.0625,0.03681706045168278
1588959928.0272918,2.096643008795875,-1.92328601759175,-9.51985805277525,-0.6055555555555555,-0.008888888888888889,0.6666666666666666,0.0625,0.10446239005156202,-0.020537609948437972
1588959928.0372918,2.090282226266303,-1.9105644525326053,-9.481693357597816,-0.6055555555555555,-0.008888888888888889,0.6666666666666666,0.0625,0.18397217167121627,0.05897217167121627
1588959928.0472918,2.0862147055197076,-1.9175705889605852,-9.485536763799269,-0.5933333333333334,-0.013333333333333334,0.6666666666666666,0.004237135752743412,-0.01942095474908553,-0.043079045250914466
1588959928.0572917,2.1030172011347723,-1.8990516034043163,-9.532068804539088,-0.5933333333333334,-0.013333333333333334,0.6666666666666666,-0.10614249290767408,-0.005927478723022225,-0.018857507092325924
1588959928.0672917,2.101888081631181,-1.9159440408155906,-9.555944040815591,-0.5933333333333334,-0.013333333333333334,0.6666666666666666,-0.01180051019488363,0.09965025509744181,-0.03715025509744181
1588959928.0772917,2.09,-1.91,-9.53010918664265,-0.5933333333333334,-0.013333333333333334,0.6666666666666666,0.0625,0.0625,0.0
1588959928.0872917,2.093035637524819,-1.91,-9.47303563752482,-0.5872620582836947,-0.021428366732851617,0.6666666666666666,0.08147273453012098,0.024554530939758047,0.018972734530120976
1588959928.0972917,2.1,-1.91,-9.476998066937043,-0.5733333333333334,-0.04,0.6666666666666666,0.125,-0.02497583671303491,0.08126208164348254
1588959928.1072917,2.089164743885556,-1.915417628057222,-9.52417628057222,-0.5733333333333334,-0.04,0.6666666666666666,0.057279649284725426,-0.10680087678818642,0.09113982464236271
1588959928.1172917,2.0907087263293165,-1.9146456368353417,-9.53787382101205,-0.5733333333333334,-0.04,0.6666666666666666,0.03346476977911403,-0.1496056906626579,0.1628943093373421
1588959928.1272917,2.0858308802189147,-1.9052769600729715,-9.50527696007297,-0.5733333333333334,-0.04,0.6666666666666666,0.0625,-0.0625,0.19096200091214394
1588959928.1372917,2.0853044554455447,-1.9051014851485149,-9.47959405940594,-0.5835363036303631,-0.030363861386138613,0.6666666666666666,0.030615717821782178,-0.09438428217821782,0.09311571782178218
1588959928.1472917,2.1050379131374326,-1.91,-9.480151652549731,-0.5933333333333334,-0.021111111111111112,0.6666666666666666,0.0,-0.125,0.0625
1588959928.1572917,2.105494182010053,-1.905494182010053,-9.540552361909523,-0.5933333333333334,-0.021111111111111112,0.6666666666666666,-0.056322724874336975,-0.125,0.0625
1588959928.1672916,2.0911170351365977,-1.9,-9.572234070273195,-0.5933333333333334,-0.021111111111111112,0.6666666666666666,-0.06948146960373613,-0.09724073480186807,0.0069814696037361415
1588959928.1772916,2.0867767163135222,-1.9,-9.531928756497274,-0.5933333333333334,-0.021111111111111112,0.6666666666666666,0.042354476959514234,-0.048381841013495255,-0.03426368202699051
1588959928.1872916,2.1067778289965187,-1.9,-9.478592456009284,-0.5933333333333334,-0.021111111111111112,0.6666666666666666,0.16736143122824307,-0.006712856257252306,0.04907428748549539
1588959928.1972916,2.097209859965471,-1.9072098599654708,-9.445580280069057,-0.5788888888888889,-0.03555555555555556,0.68,0.07268487435258009,0.04506162478419336,0.10030812392096682
1588959928.2072916,2.094676151434772,-1.9140284543043162,-9.52546612008681,-0.5788888888888889,-0.03555555555555556,0.68,-0.0625,0.0,-0.125
1588959928.2172916,2.0926878197813523,-1.9226878197813524,-9.570751279125409,-0.5788888888888889,-0.03555555555555556,0.68,-0.03964943681672617,0.022850563183273827,-0.05644831045017852
1588959928.2272916,2.0841657609452944,-1.912082880472647,-9.51166847810941,-0.5788888888888889,-0.03555555555555556,0.68,0.0,0.049481997045954906,0.0755180029540451
1588959928.2372916,2.1,-1.92,-9.471852713956055,-0.5846221642531465,-0.031632788201063515,0.6815087566748047,0.0,0.0,0.07407946222534363
1588959928.2472916,2.1,-1.91548061518744,-9.447740307593719,-0.6,-0.021111111111111112,0.6855555555555556,-0.01412307753925024,0.0,-0.04837692246074976
1588959928.2572916,2.0961151190353497,-1.90388488096465,-9.494388333505102,-0.6,-0.021111111111111112,0.6855555555555556,-0.11106101205812635,0.04856101205812635,0.024280506029063176
1588959928.2672915,2.09,-1.9125099932718566,-9.56494004036886,-0.6,-0.021111111111111112,0.6855555555555556,-0.15612508410179285,0.09362508410179285,0.046812542050896425
1588959928.2772915,2.098367595470491,-1.911632404529509,-9.511632404529509,-0.6,-0.021111111111111112,0.6855555555555556,-0.0625,-0.05229747169056837,0.0
1588959928.2872915,2.1063608417200363,-1.8963608417200366,-9.492721683440074,-0.5951477889600488,-0.016663250991155842,0.6758511334756532,0.005734217749313819,-0.011276303751143635,0.02274473924977127
1588959928.2972915,2.1,-1.902197043682651,-9.48406568122755,-0.5866666666666667,-0.008888888888888889,0.6588888888888889,0.04876847698343072,0.13667898465562048,0.03708949232781024
1588959928.3072915,2.1,-1.9128275970330835,-9.516298810878695,-0.5866666666666667,-0.008888888888888889,0.6588888888888889,-0.04755749381892391,0.03261498763784781,0.0
1588959928.3172915,2.1,-1.9105587712501708,-9.579441228749829,-0.5866666666666667,-0.008888888888888889,0.6588888888888889,0.03212308007839205,-0.09462308007839204,0.03212308007839205
1588959928.3272915,2.1,-1.92422379131117,-9.539783269589096,-0.5866666666666667,-0.008888888888888889,0.6588888888888889,0.0625,-0.08889869569481221,0.044449347847406104
1588959928.3372915,2.1,-1.9124715952871292,-9.498650583504952,-0.5866666666666667,-0.008888888888888889,0.6588888888888889,0.0625,-0.015447470544557931,0.007723735272278966
1588959928.3472915,2.09,-1.9144878723965197,-9.46551212760348,-0.6,-0.021111111111111112,0.6588888888888889,-0.0797253987608753,0.09054920247824941,-0.0172253987608753
1588959928.3572915,2.0951366373320983,-1.9,-9.500546549328392,-0.6,-0.021111111111111112,0.6588888888888889,-0.02868805002315887,-0.06420796665122741,-0.030396016674386295
1588959928.3672915,2.1,-1.9,-9.52,-0.6,-0.021111111111111112,0.6588888888888889,0.03810410102652709,-0.125,0.0
1588959928.3772914,2.1,-1.9,-9.51227012987013,-0.6,-0.021111111111111112,0.6588888888888889,0.0,-0.10567532467532467,0.0
1588959928.3872914,2.096824082212156,-1.9031759177878438,-9.466824082212156,-0.5978827214747707,-0.017229433814857385,0.6588888888888889,-0.019849486174024746,0.019849486174024746,0.03969897234804949
1588959928.3972914,2.0991158970920973,-1.9054420514539512,-9.491905639822342,-0.5933333333333334,-0.008888888888888889,0.6588888888888889,-0.11947435682560965,0.09098717841280482,0.06802564317439035
1588959928.4072914,2.1019571167117213,-1.9,-9.54072384438437,-0.5933333333333334,-0.008888888888888889,0.6588888888888889,-0.13723197944825966,0.04121996574709942,0.033512013701160234
1588959928.4172914,2.0808296254008765,-1.9,-9.568893832798832,-0.5933333333333334,-0.008888888888888889,0.6588888888888889,-0.005185158755477953,-0.17885806874087012,0.12154322749634804
1588959928.4272914,2.082511644633194,-1.91,-9.524976710733611,-0.5933333333333334,-0.008888888888888889,0.6588888888888889,-0.015406663127611478,-0.125,0.04680222104253716
1588959928.4372914,2.08969415713405,-1.91,-9.510611685731899,-0.5933333333333334,-0.008888888888888889,0.6588888888888889,0.11926544626344271,-0.125,0.0019115179121857659
1588959928.4472914,2.1028770096758764,-1.9228770096758765,-9.485754019351754,-0.5933333333333334,-0.008888888888888889,0.6522222222222223,0.044518689525771676,0.02653737905154336,-0.08903737905154335
1588959928.4572914,2.10875038795779,-1.9275007759155802,-9.508747284295469,-0.5933333333333334,-0.008888888888888889,0.6522222222222223,0.0,-0.0625,0.0
1588959928.4672914,2.096660063050182,-1.91,-9.54996037830109,-0.5933333333333334,-0.008888888888888889,0.6522222222222223,0.0,-0.0833746059363641,0.020874605936364105
1588959928.4772913,2.09,-1.910539146433617,-9.508921707132766,-0.5933333333333334,-0.008888888888888889,0.6522222222222223,0.0,-0.11489100436968164,0.05576066957978776
1588959928.4872913,2.09,-1.917429280152446,-9.495141439695107,-0.5933333333333334,-0.008888888888888889,0.6522222222222223,0.0,0.014299002858363191,-0.030366001905575438
1588959928.4972913,2.0918021266418925,-1.9263957467162147,-9.47,-0.5788888888888889,-0.013333333333333334,0.6666666666666666,0.0,-0.011263291511828987,0.011263291511828987
1588959928.5072913,2.095463834818224,-1.8972680825908879,-9.513608495545329,-0.5788888888888889,-0.013333333333333334,0.6666666666666666,0.022712758096524933,-0.07957448380695013,0.07957448380695013
1588959928.5172913,2.0770028510334995,-1.91,-9.573660014255168,-0.5788888888888889,-0.013333333333333334,0.6666666666666666,0.04791072701354241,-0.029178545972915183,0.029178545972915183
1588959928.5272913,2.099123307780134,-1.9108766922198661,-9.5173699233404,-0.5788888888888889,-0.013333333333333334,0.6666666666666666,-0.010958652748328168,-0.11952067362583592,0.11404134725167184
1588959928.5372913,2.091507499730225,-1.92,-9.48698500053955,-0.5810663884992147,-0.014505833123508748,0.6666666666666666,-0.10615625337218086,-0.0625,0.009421873313909571
1588959928.5472913,2.099050933419661,-1.92,-9.471898133160678,-0.5919624593839551,-0.020372948215292015,0.6666666666666666,-0.01186333225423547,-0.0625,0.056568333872882265
1588959928.5572913,2.09812161004853,-1.9118783899514702,-9.52314872966029,-0.5933333333333334,-0.021111111111111112,0.6666666666666666,-0.05076006280331145,0.02728018840993434,0.0
1588959928.5672913,2.0910784033853336,-1.9189215966146664,-9.572451176302666,-0.5933333333333334,-0.021111111111111112,0.6666666666666666,-0.006740021158334872,-0.10477993652499537,0.0
1588959928.5772913,2.081629553131522,-1.9083704468684781,-9.558593128079348,-0.5933333333333334,-0.021111111111111112,0.6666666666666666,0.07268470707201102,0.010184707072011016,-0.03194587878396696
1588959928.5872912,2.0922759111510656,-1.9011379555755328,-9.496586133273402,-0.5925746962829782,-0.021111111111111112,0.6674253037170218,0.1107755553058396,0.04827555530583961,0.1178877776529198
1588959928.5972912,2.1021337148019876,-1.91,-9.47,-0.5866666666666667,-0.021111111111111112,0.6733333333333333,0.04916428248757718,-0.0625,0.0625
1588959928.6072912,2.093647852174375,-1.91,-9.506478521743748,-0.5866666666666667,-0.021111111111111112,0.6733333333333333,0.1022009239101577,-0.0397009239101577,0.016901847820315404
1588959928.6172912,2.1,-1.9070977303113774,-9.561293190934132,-0.5866666666666667,-0.021111111111111112,0.6733333333333333,0.0625,-0.05441755666167303,-0.008082443338326972
1588959928.6272912,2.1,-1.9003413392612638,-9.54102401778379,-0.5866666666666667,-0.021111111111111112,0.6733333333333333,0.0625,-0.18109988885130238,0.11859988885130238
1588959928.6372912,2.0966811985163063,-1.9088937328387687,-9.47,-0.5858062366523756,-0.021111111111111112,0.6717353918782215,-0.006914169757695458,-0.0625,0.07632833951539092
1588959928.6472912,2.073099348383311,-1.9030993483833112,-9.474649022574967,-0.5788888888888889,-0.021111111111111112,0.6588888888888889,-0.043129072604305,-0.043129072604305,0.15844360890645748
1588959928.6572912,2.0936735619441156,-1.912652876111769,-9.529388495552924,-0.5788888888888889,-0.021111111111111112,0.6588888888888889,0.01658047569855628,0.0625,0.04591952430144372
1588959928.6672912,2.0960716869297364,-1.9,-9.572143373859474,-0.5788888888888889,-0.021111111111111112,0.6588888888888889,-0.0625,0.013396086621706764,0.07589608662170677
1588959928.6772912,2.09,-1.9,-9.544948960302458,-0.5788888888888889,-0.021111111111111112,0.6588888888888889,-0.04368620037807183,-0.04368620037807183,0.018813799621928164
1588959928.6872911,2.0893241073372524,-1.9006758926627476,-9.508648214674505,-0.5794145831821371,-0.021111111111111112,0.659714979921136,0.008448658284345743,0.004224329142172871,0.06672432914217287
1588959928.6972911,2.0836166448944047,-1.9063833551055953,-9.49723328978881,-0.5838537206376854,-0.021111111111111112,0.6666907673512833,0.0797919388199434,0.0398959694099717,0.1023959694099717
1588959928.7072911,2.0833200086430423,-1.9133200086430422,-9.523200086430423,-0.5866666666666667,-0.021111111111111112,0.6711111111111111,0.06274983794295591,0.0625,0.06274983794295591
1588959928.717291,2.0925297639529283,-1.9174702360470717,-9.569761888376574,-0.5866666666666667,-0.021111111111111112,0.6711111111111111,-0.03087795058839722,0.015066925882595832,-0.04668897529419861
1588959928.727291,2.1019509861030206,-1.9041470416909378,-9.51,-0.5866666666666667,-0.021111111111111112,0.6711111111111111,0.0625,-0.07622534742448199,0.024387326287759005
1588959928.737291,2.1089690688977623,-1.8830927933067123,-9.50587627559105,-0.5846048044621918,-0.021111111111111112,0.6713402069116083,0.0625,0.10567004183304811,0.10567004183304811
1588959928.747291,2.095370257245639,-1.9076851286228194,-9.46768512862282,-0.5666666666666667,-0.021111111111111112,0.6733333333333333,0.04803205389262201,-0.03356410778524401,-0.03356410778524401
1588959928.757291,2.081135885427272,-1.900567942713636,-9.460567942713636,-0.5666666666666667,-0.021111111111111112,0.6733333333333333,0.003549641960225343,0.055400716079549314,0.055400716079549314
1588959928.767291,2.0820262960539964,-1.9059474078920073,-9.553921111838012,-0.5666666666666667,-0.021111111111111112,0.6733333333333333,0.0625,-0.07516435033747666,0.07516435033747666
1588959928.777291,2.088718865184854,-1.8925622696302915,-9.533843404445436,-0.5666666666666667,-0.021111111111111112,0.6733333333333333,0.0625,-0.11699290740533899,0.11699290740533899
1588959928.787291,2.1,-1.9006862451992732,-9.48,-0.5689541506642443,-0.021111111111111112,0.6713508472020995,0.05821096750454201,0.04534387001816802,0.11642193500908402
1588959928.797291,2.1,-1.91,-9.481424953126542,-0.6,-0.021111111111111112,0.6444444444444445,-0.002968652346962271,-0.1785940429591132,0.002968652346962271
1588959928.807291,2.1,-1.9040373754534183,-9.530869185913035,-0.6,-0.021111111111111112,0.6444444444444445,-0.0625,0.0,0.0625
1588959928.817291,2.1028544532583595,-1.8957089065167185,-9.568582186966562,-0.6,-0.021111111111111112,0.6444444444444445,-0.0625,-0.017840332864745456,0.008979001405763631
1588959928.827291,2.1078000848757874,-1.91,-9.524600594130513,-0.6,-0.021111111111111112,0.6444444444444445,-0.03500106094734437,-0.03500106094734437,-0.07000212189468874
1588959928.837291,2.1009540364965886,-1.91,-9.476678255476122,-0.6,-0.021111111111111112,0.6444444444444445,0.05057454379264191,0.05057454379264191,0.10114908758528382
1588959928.847291,2.09,-1.9261575565766142,-9.47,-0.5933333333333334,-0.008888888888888889,0.6666666666666666,0.0,0.03848472860383978,-0.07050509046538675
1588959928.857291,2.09,-1.9021677375073878,-9.47,-0.5933333333333334,-0.008888888888888889,0.6666666666666666,0.0,-0.11145164057882595,-0.12048388019294198
1588959928.867291,2.094436877946569,-1.92,-9.546092194866423,-0.5933333333333334,-0.008888888888888889,0.6666666666666666,-0.045115243583027764,-0.30546097433211106,0.07988475641697224
1588959928.877291,2.0823669254782677,-1.918816537260866,-9.507633074521731,-0.5933333333333334,-0.008888888888888889,0.6666666666666666,-0.007396642119586968,-0.10281007364123909,0.11020671576082607
1588959928.887291,2.0935579924757866,-1.9132210037621067,-9.496442007524214,-0.5933333333333334,-0.008888888888888889,0.6666666666666666,-0.042368726486832625,0.0021061794604978756,0.04026254702633475
1588959928.897291,2.1,-1.917268754849512,-9.482731245150488,-0.5787958236343094,-0.012119446599783106,0.671512503233008,-0.01707028219055009,0.01707028219055009,0.04542971780944991
1588959928.907291,2.1,-1.92,-9.52511773739442,-0.5733333333333334,-0.013333333333333334,0.6733333333333333,-0.04699764311918778,-0.04699764311918778,-0.03149528623837557
1588959928.917291,2.100403242533186,-1.8908064850663715,-9.577580544800885,-0.5733333333333334,-0.013333333333333334,0.6733333333333333,0.0025202658324115046,0.11491893667035398,-0.005040531664823009
1588959928.927291,2.1076527931415927,-1.9053055862831858,-9.534083241150443,-0.5733333333333334,-0.013333333333333334,0.6733333333333333,0.047829957134955754,-0.06631982853982302,-0.09565991426991151
1588959928.937291,2.11,-1.9000400323067739,-9.52,-0.5733333333333334,-0.013333333333333334,0.6733333333333333,-0.1864991923306528,-0.125,-0.0627502019173368
1588959928.947291,2.100648348945874,-1.9187033021082518,-9.491945046837623,-0.5920366354415852,-0.013333333333333334,0.6712551886546386,0.10473909544143623,0.050343457264861724,-0.004052180911712756
1588959928.957291,2.09,-1.9165553854007147,-9.48894538029607,-0.5933333333333334,-0.013333333333333334,0.6711111111111111,0.0,-0.10347115875446657,-0.0625
1588959928.9672909,2.09,-1.902281776416539,-9.567450229709035,-0.5933333333333334,-0.013333333333333334,0.6711111111111111,0.0,-0.01426110260336906,-0.0625
1588959928.9772909,2.083844059251883,-1.918718646916039,-9.513593234580195,-0.5933333333333334,-0.013333333333333334,0.6711111111111111,0.15546617290097714,-0.11699154322524428,0.0
1588959928.9872909,2.1034228542976288,-1.9121923819007904,-9.480961909503952,-0.5933333333333334,-0.013333333333333334,0.6711111111111111,-0.0076904524802390295,-0.07620238687994024,0.0
1588959928.9972908,2.09,-1.91,-9.479448871181939,-0.5933333333333334,-0.008888888888888889,0.6666666666666666,0.003444555112881806,0.0590554448871182,-0.0590554448871182
1588959929.0072908,2.0909102186385486,-1.9090897813614514,-9.480012405024036,-0.5933333333333334,-0.008888888888888889,0.6666666666666666,0.056811133509071174,-0.005688866490928826,-0.011377732981857652
1588959929.0172908,2.0982730565190777,-1.8982730565190777,-9.57309222607631,-0.5933333333333334,-0.008888888888888889,0.6666666666666666,-0.02158679351152826,-0.0625,-0.10341320648847174
1588959929.0272908,2.0882479357121793,-1.8917520642878205,-9.531239678560896,-0.5933333333333334,-0.008888888888888889,0.6666666666666666,-0.10309919640224123,-0.04059919640224123,0.010950401798879386
1588959929.0372908,2.0805173621350637,-1.8994826378649365,-9.492586810675316,-0.5933333333333334,-0.008888888888888889,0.6666666666666666,-0.006467026688292535,0.056032973311707465,0.05926648665585373
1588959929.0472908,2.0880396064011175,-1.916079212802235,-9.465881180796648,-0.6094125461355684,-0.012462047289385568,0.6532673226648041,0.05024754000698453,-0.0882426200209536,-0.13849016002793813
1588959929.0572908,2.098387480908126,-1.9116125190918738,-9.485162442724379,-0.6133333333333333,-0.013333333333333334,0.65,0.01007824432421238,-0.02015648864842476,-0.03023473297263715
1588959929.0672908,2.1,-1.8840123217231006,-9.567963034830697,-0.6133333333333333,-0.013333333333333334,0.65,-0.05414099641020666,-0.21656398564082663,-0.05414099641020666
1588959929.0772908,2.099149988847659,-1.9,-9.516599955390635,-0.6133333333333333,-0.013333333333333334,0.65,0.0625,-0.05718743029786889,0.10906229089360667
1588959929.0872908,2.0906452136180222,-1.9,-9.48258085447209,-0.6133333333333333,-0.013333333333333334,0.65,0.0625,-0.00403258511263864,-0.05040224466208407
1588959929.0972908,2.0811765364170474,-1.9011765364170474,-9.49529385433181,-0.6,-0.03555555555555556,0.6666666666666666,0.04779329478690665,0.0,-0.1580865895738133
1588959929.1072907,2.08899953371258,-1.9089995337125805,-9.46400186514968,-0.6,-0.03555555555555556,0.6666666666666666,-0.04999417140725543,0.0,0.037488342814510855
1588959929.1172907,2.09,-1.9020764648543267,-9.555082421748077,-0.6,-0.03555555555555556,0.6666666666666666,-0.0625,-0.09904418932091412,-0.03654418932091412
1588959929.1272907,2.0907859141791043,-1.8907859141791044,-9.5,-0.6,-0.03555555555555556,0.6666666666666666,-0.11517607276119403,0.00982392723880597,-0.11517607276119403
1588959929.1372907,2.098937150186567,-1.898937150186567,-9.5,-0.6,-0.03555555555555556,0.6666666666666666,-0.013285622667910446,0.11171437733208955,-0.013285622667910446
1588959929.1472907,2.1010092516164534,-1.9089907483835464,-9.475046258082267,-0.5788888888888889,-0.027777777777777776,0.6733333333333333,0.006307822602833952,0.006307822602833952,-0.006307822602833952
1588959929.1572907,2.1082219012243772,-1.9017780987756223,-9.511109506121887,-0.5788888888888889,-0.027777777777777776,0.6733333333333333,0.05138688265235933,0.05138688265235933,-0.05138688265235933
1588959929.1672907,2.09,-1.9178858690201583,-9.56788586902016,-0.5788888888888889,-0.027777777777777776,0.6733333333333333,0.125,0.10518002206398555,-0.06910665931200481
1588959929.1772907,2.09,-1.9010598736335371,-9.551059873633537,-0.5788888888888889,-0.027777777777777776,0.6733333333333333,0.125,-0.0525636846855882,-0.12168789489519607
1588959929.1872907,2.0986248820418285,-1.917249764083657,-9.4896258257072,-0.5788888888888889,-0.027777777777777776,0.6733333333333333,0.125,-0.0625,-0.07109448723857177
1588959929.1972907,2.078302621176184,-1.9272324596079384,-9.472767540392063,-0.5845141352506189,-0.01411646518500499,0.6717261200871247,-0.010608617648847518,-0.1529057450992317,-0.0625
