time,acc_x,acc_y,acc_z,mag_x,mag_y,mag_z,gyr_x,gyr_y,gyr_z
1588960156.623617,0.43,-0.78,-9.85,-0.54,0.03666666666666667,0.7144444444444444,-14.75,-4.25,-3.8125
1588960156.633617,0.4861453731857036,-0.7479169296081694,-9.721667718432677,-0.54,0.03666666666666667,0.7144444444444444,-14.148442430153175,-2.4453272904595265,-3.9628893924617064
1588960156.643617,0.505198782293895,-0.7503975645877901,-9.70039756458779,-0.54,0.03666666666666667,0.7144444444444444,-13.805045663978937,-1.2851674345894355,-4.097477168010531
1588960156.653617,0.4765799020157822,-0.7456771008639066,-9.700451400575938,-0.5368171335253126,0.02764854498838567,0.7176273109191319,-13.237088148397472,-0.4758031339990276,-4.45605435880175
1588960156.663617,0.34893514844433593,-0.7129253403333129,-9.672925340333313,-0.5333333333333333,0.017777777777777778,0.7211111111111111,-12.385633508332825,-0.27692779236106874,-4.785572207638931
1588960156.673617,0.10421327998768945,-0.6920096945448949,-9.891718858198045,-0.5333333333333333,0.017777777777777778,0.7211111111111111,-11.51316649996153,-0.3998182272832192,-4.013469454489497
1588960156.6836169,0.08105004681737402,-0.675966635455084,-9.837733083640671,-0.5333333333333333,0.017777777777777778,0.7211111111111111,-11.155728678985687,-0.7444798494200379,-2.4968720739141235
1588960156.6936169,0.20975168273603784,-0.6859668910314717,-9.766049663452792,-0.5333333333333333,0.017777777777777778,0.7211111111111111,-10.563534655266508,-1.4238618792068403,-0.24101782790613036
1588960156.7036169,0.2880892314879701,-0.7106096706377014,-9.814959121700538,-0.5333333333333333,0.012434529834669989,0.7211111111111111,-10.094005489371643,-2.0777417659425366,0.7027417659425368
1588960156.7136168,0.46975256158709394,-0.5038641813821669,-9.849397209505122,-0.5333333333333333,0.01,0.7211111111111111,-9.70256976237192,-2.25376744059298,1.4660930346631784
1588960156.7236168,0.5876701030927836,-0.5592164948453608,-9.880762886597939,-0.5333333333333333,0.01,0.7211111111111111,-9.735567010309278,-2.153865979381443,1.5961340206185568
1588960156.7336168,0.6058291217318635,-0.5557487365195591,-9.862914560865931,-0.5333333333333333,0.01,0.7211111111111111,-9.54478640216483,-1.7947864021648294,0.7652637391062119
1588960156.7436168,0.35546301086394205,-0.48063890325918257,-9.737731505431972,-0.5333333333333333,0.01,0.7211111111111111,-9.231828763579928,-1.4818287635799277,-0.0692899637868597
1588960156.7536168,0.2992640833604689,-0.6682127738754245,-9.849579476205982,-0.5333333333333333,0.01,0.7211111111111111,-8.994743452574777,-2.0039424105689165,-0.8085575894310834
1588960156.7636168,0.23097525236079453,-0.5023684700190725,-9.810557287063311,-0.5333333333333333,0.01,0.7211111111111111,-8.506966088291389,-2.369775433781458,-0.4427245662185421
1588960156.7736168,0.21117538081515025,-0.4728209139563606,-9.819647385755456,-0.5333333333333333,0.01,0.7211111111111111,-8.372061547962124,-2.4441115170852203,0.07204996912309593
1588960156.7836168,0.2975133799917662,-0.6800321119802387,-9.79374598600247,-0.5333333333333333,0.01,0.7211111111111111,-8.156216550020584,-2.929762762453685,0.7735462124331001
1588960156.7936168,0.3768775145631068,-0.6765612427184466,-9.756561242718446,-0.5333333333333333,0.01,0.7211111111111111,-7.811511650485437,-3.0348320388349515,1.188488349514563
1588960156.8036168,0.43,-0.6045299113182023,-9.75020892830302,-0.5367014880505036,0.004386408804716336,0.7177429563939409,-7.1204296933714115,-3.0625,1.595382252367353
1588960156.8136168,0.48676859341092915,-0.418078516472677,-9.86224896429276,-0.54,-0.0011111111111111113,0.7144444444444444,-6.288345827579404,-2.840747681988558,1.7056495363977116
1588960156.8236167,0.5897857709600635,-0.3954603426489171,-9.91773017132446,-0.54,-0.0011111111111111113,0.7144444444444444,-5.958779643833201,-2.417559287666402,1.2996525022774692
1588960156.8336167,0.567528181864693,-0.40649436362706143,-9.92649436362706,-0.54,-0.0011111111111111113,0.7144444444444444,-5.734551136654331,-2.2938204546617325,0.6817431826321264
1588960156.8436167,0.5121647599952824,-0.3973882533317608,-9.898470633329403,-0.54,-0.0011111111111111113,0.7144444444444444,-5.585588291661753,-2.013529749970515,-0.25558733341195894
1588960156.8536167,0.4320151004396081,-0.3842015100439608,-9.88579848995604,-0.5284030200879216,-0.0011111111111111113,0.7099345078119695,-5.63498112445049,-1.6937971888737753,-1.0236461844776943
1588960156.8636167,0.3541529105125978,-0.40150825369244136,-9.882830582102521,-0.52,-0.0011111111111111113,0.7066666666666667,-6.0011620330147695,-1.4728822762814944,-1.6709708948740225
1588960156.8736167,0.37986459389964855,-0.3860812436602109,-9.927837512679577,-0.52,-0.0011111111111111113,0.7066666666666667,-6.324322969498242,-1.3378385152508787,-1.9121614847491213
1588960156.8836167,0.30181914331041776,-0.39763617133791646,-9.825364886303543,-0.52,-0.0011111111111111113,0.7066666666666667,-6.319886964569011,-0.9818217874140667,-2.1028391062929668
1588960156.8936167,0.311911045276473,-0.4,-9.802696318241177,-0.52,-0.0011111111111111113,0.7066666666666667,-6.08425994503674,-0.8462039780146958,-2.170648010992652
1588960156.9036167,0.30192114741445847,-0.42711827887831233,-9.79096057370723,-0.5320525683903611,-0.0011111111111111113,0.7388068490409627,-5.717517928350913,-1.0949820716490866,-1.848521514021096
1588960156.9136167,0.29176701819641987,-0.38060210917851933,-9.79,-0.5333333333333333,-0.0011111111111111113,0.7422222222222222,-5.275850909820995,-1.1764561362723758,-1.658131591182873
1588960156.9236166,0.32482616473516374,-0.3525869176324181,-9.920598117756864,-0.5333333333333333,-0.0011111111111111113,0.7422222222222222,-5.078668235202613,-1.35074764719608,-1.46175235280392
1588960156.9336166,0.3790181946808746,-0.3826787964539164,-9.866472707978687,-0.5333333333333333,-0.0011111111111111113,0.7422222222222222,-4.70507566378529,-1.783484955673955,-1.2332575221630226
1588960156.9436166,0.41747072503978133,-0.37626463748010935,-9.813372366613624,-0.5333333333333333,-0.0011111111111111113,0.7422222222222222,-4.596384661416894,-1.4743852598365226,-1.3305766929155276
1588960156.9536166,0.4465903036760789,-0.35659030367607886,-9.76829515183804,-0.5305866335168413,-0.001774107618540224,0.7398543775528326,-4.546517048481619,-0.9627064464571125,-1.5479488545551412
1588960156.9636166,0.29085366289245274,-0.31299139193485015,-9.75700860806515,-0.5011111111111111,-0.008888888888888889,0.7144444444444444,-4.024569596742508,-0.2558733971496946,-2.3691266028503053
1588960156.9736166,0.19954769125710498,-0.33022615437144753,-9.820678463114342,-0.5011111111111111,-0.008888888888888889,0.7144444444444444,-3.4114839623209945,-0.04072435678563538,-2.2893108919640883
1588960156.9836166,0.15567659574468085,-0.33027063829787234,-9.854864680851064,-0.5011111111111111,-0.008888888888888889,0.7144444444444444,-2.8834574468085106,-0.060808510638297876,-1.731436170212766
1588960156.9936166,0.16342264979338844,-0.34387332128099174,-9.836126678719008,-0.5011111111111111,-0.008888888888888889,0.7144444444444444,-2.264083483987603,-0.27420825800619836,-0.6830086195764463
1588960157.0036166,0.24413804265041888,-0.34057463823305406,-9.785478865194213,-0.5201831048489465,-0.008888888888888889,0.7177139290852163,-1.8148943259710586,-0.4375,0.6118312071591775
1588960157.0136166,0.3556032687698896,-0.30403606647546455,-9.783855734098141,-0.54,-0.008888888888888889,0.7211111111111111,-1.4265779083015755,-0.40022541547165363,1.6852458452834638
1588960157.0236166,0.415993334006666,-0.307996667003333,-9.911953338046661,-0.54,-0.008888888888888889,0.7211111111111111,-1.050083324916675,-0.07512498737501261,1.7875624936875063
1588960157.0336165,0.30063427597272363,-0.2758955074207782,-9.837686522262334,-0.54,-0.008888888888888889,0.7211111111111111,-0.8934234606899318,0.3197296179302046,1.3769821124147614
1588960157.0436165,0.273887768418555,-0.263887768418555,-9.777214378929886,-0.54,-0.008888888888888889,0.7211111111111111,-0.6075898683117807,0.22219421046387472,1.3507014473840313
1588960157.0536165,0.2998535129403448,-0.3122436476456034,-9.720146487059656,-0.5350244145099425,-0.013864474378946359,0.7161355256210536,0.16889948160075408,0.03170777206142246,1.5149383419078664
1588960157.0636165,0.3696984290551198,-0.33746230363189,-9.762236125423229,-0.5333333333333333,-0.015555555555555557,0.7144444444444444,0.8880333746924355,-0.09327879539862463,1.702418193097937
1588960157.0736165,0.3751581012941206,-0.3325790506470603,-9.854209493529398,-0.5333333333333333,-0.015555555555555557,0.7144444444444444,1.479928401102859,-0.1713809334558732,1.6572381330882535
1588960157.0836165,0.33916161813562634,-0.33,-9.887709595466093,-0.5333333333333333,-0.015555555555555557,0.7144444444444444,2.203219659957006,0.0052398866523353516,1.3840751416845807
1588960157.0936165,0.302885688119224,-0.2961071101490301,-9.828992798268255,-0.5333333333333333,-0.015555555555555557,0.7144444444444444,2.5868305615685623,0.18959833694113729,1.1854016630588626
1588960157.1036165,0.35557482656095146,-0.32769078295341925,-9.734425173439048,-0.5300214734060126,-0.011581323642770619,0.7184186763572294,2.873792120911794,0.06370787908820616,1.1995168483647176
1588960157.1136165,0.39291986083264535,-0.36708013916735466,-9.661679443330582,-0.5277777777777778,-0.008888888888888889,0.7211111111111111,3.3982578281636986,-0.0625,1.072996520816134
1588960157.1236165,0.37392131279168966,-0.35392131279168965,-9.690196718020776,-0.5277777777777778,-0.008888888888888889,0.7211111111111111,4.416680257941486,-0.1629917950519396,0.6482787173182114
1588960157.1336164,0.34611602925224816,-0.36791297806081386,-9.598493124322054,-0.5277777777777778,-0.008888888888888889,0.7211111111111111,5.44601149445397,-0.3740935214668113,0.3759064785331887
1588960157.1436164,0.32054370922180836,-0.38472814538909583,-9.501631127665425,-0.5277777777777778,-0.008888888888888889,0.7211111111111111,6.886527260455466,-0.5,0.25
1588960157.1536164,0.340611376146789,-0.39765284403669726,-9.477652844036697,-0.5218255657492354,-0.008888888888888889,0.7100570030581039,9.357738532110092,-0.35650917431192664,0.2978302752293578
1588960157.1636164,0.358035399430354,-0.383929201139292,-9.488035399430354,-0.52,-0.008888888888888889,0.7066666666666667,11.26891614675166,0.13949121795741215,0.21205750712057508
1588960157.1736164,0.2726470298492759,-0.4345956063442025,-9.50637868190326,-0.52,-0.008888888888888889,0.7066666666666667,12.580423111023544,0.4547335237907595,0.1875
1588960157.1836164,0.1385683576956148,-0.5246775580395528,-9.475322441960447,-0.52,-0.008888888888888889,0.7066666666666667,14.666460662080825,0.7297130266552021,0.39692605331040415
1588960157.1936164,-0.016927186689055115,-0.6000976950083957,-9.419951152495802,-0.52,-0.008888888888888889,0.7066666666666667,17.02408983361319,1.2301843230041216,1.1890264845061822
1588960157.2036164,-0.07,-0.6363799019607843,-9.37724019607843,-0.52,-0.019808823529411768,0.7248665577342048,19.530238970588236,1.6934359681372548,3.1891773897058826
1588960157.2136164,-0.010367965367965373,-0.64,-9.407662337662337,-0.52,-0.022222222222222227,0.7288888888888889,20.66328463203463,1.8088474025974026,4.327516233766234
1588960157.2236164,0.1768188658594979,-0.670594773924345,-9.498741363978384,-0.52,-0.022222222222222227,0.7288888888888889,23.206086685135784,1.9648167624324508,6.90145316027088
1588960157.2336164,0.31626392199349945,-0.7155219934994582,-9.521043986998917,-0.52,-0.022222222222222227,0.7288888888888889,25.6454360780065,2.138049837486457,8.649211809317443
1588960157.2436163,0.3471761109174287,-0.7770597227064281,-9.547117916811928,-0.52,-0.022222222222222227,0.7288888888888889,27.65920747405401,2.5709609402236584,9.053675346616965
1588960157.2536163,0.30745277481903355,-0.8763680629524162,-9.622004869247657,-0.52,-0.007817050578826985,0.7245047062148121,29.212560865595723,2.9181901180357803,8.92953992130948
1588960157.2636163,0.2549783827061649,-0.912995676541233,-9.74004323458767,-0.52,0.0033333333333333327,0.7211111111111111,30.60048638911129,3.0,9.312770216172938
1588960157.2736163,0.2690493381468111,-0.8373766546329724,-9.835361010830324,-0.52,0.0033333333333333327,0.7211111111111111,31.255227135980746,3.3177271359807463,10.135454271961493
1588960157.2836163,0.4130727407094595,-0.81,-10.01655616554054,-0.52,0.0033333333333333327,0.7211111111111111,31.81531421558277,2.5568715688344597,11.011009422508446
1588960157.2936163,0.35899622088539257,-0.829500809810273,-9.97549649082215,-0.52,0.0033333333333333327,0.7211111111111111,31.978126687104737,0.7686858900200524,11.146873312895265
1588960157.3036163,0.23763012031904826,-0.7756712180613763,-9.905876706773016,-0.5164261787811876,0.03013699247442657,0.7273652982440328,31.195890225767204,-0.012243139110450184,11.0244862782209
1588960157.3136163,0.22,-0.76,-9.9,-0.5155555555555555,0.03666666666666667,0.7288888888888889,31.0,0.0,11.0
1588960157.3236163,0.5377469546857235,-1.110829949650804,-9.964663959720642,-0.5155555555555555,0.03666666666666667,0.7288888888888889,30.03335025174598,-0.9375,11.495306155595257
1588960157.3336163,0.6125510576221735,-1.2009184293702893,-10.015816314125942,-0.5155555555555555,0.03666666666666667,0.7288888888888889,29.478315706297106,-0.8852039265742767,11.337371596158523
1588960157.3436162,0.6671745541356551,-1.2114127229321725,-10.002565089172869,-0.5155555555555555,0.03666666666666667,0.7288888888888889,28.931924940317373,-0.8589681926695689,10.426349880634742
1588960157.3536162,0.7649535714285715,-1.2149535714285713,-9.950677232142857,-0.5174974206349207,0.04200679563492063,0.7254906250000001,28.090387834821428,-0.8282700892857143,8.825198102678572
1588960157.3636162,0.7882689141173412,-1.2925966288239883,-9.878268914117342,-0.52,0.048888888888888885,0.7211111111111111,27.177678687494584,-0.5516807132333824,7.105357374989167
1588960157.3736162,0.7185964408725602,-1.408320895522388,-9.844486222732492,-0.52,0.048888888888888885,0.7211111111111111,26.219611079219288,-0.20034443168771526,4.824716561423651
1588960157.3836162,0.5904213483146068,-1.4629373996789727,-9.751890048154092,-0.52,0.048888888888888885,0.7211111111111111,25.98164125200642,0.07080156500802567,2.8343699839486356
1588960157.3936162,0.44100151568147367,-1.4738315650382807,-9.615166919280245,-0.52,0.048888888888888885,0.7211111111111111,26.215620263495396,0.31041350899692977,1.415639209513816
1588960157.4036162,0.3307197501504255,-1.6764012492478726,-9.651413999598866,-0.5249985832943341,0.07102547204951147,0.716826611144539,26.94183905905275,0.4196656256267729,0.3214968768803186
1588960157.4136162,0.32,-1.629557438107062,-9.751744687066383,-0.5277777777777778,0.08333333333333333,0.7144444444444444,27.860106441247353,-0.16308515299788207,0.2771808588329804
1588960157.4236162,0.257777625843945,-1.387777283992821,-9.920000341851123,-0.5277777777777778,0.08333333333333333,0.7144444444444444,27.96296256730194,-0.08333262114349205,0.6365748653961201
1588960157.4336162,0.10307903118287536,-1.34283090141471,-10.126516554329308,-0.5277777777777778,0.08333333333333333,0.7144444444444444,27.174862047255758,0.6019646692837568,1.1606732834604845
1588960157.4436162,0.01,-1.5072164616230357,-10.227216461623035,-0.5277777777777778,0.08333333333333333,0.7144444444444444,25.405800381020985,0.8639176918848217,1.783246924345535
1588960157.4536161,0.14580761937596967,-1.5546922944319945,-10.175923116704016,-0.5312072631155548,0.09087820107644276,0.7185598268497769,22.739904757800378,0.7114182899500087,3.0895427512497844
1588960157.4636161,0.3424016034985423,-1.5802183275907766,-10.089126689636894,-0.5333333333333333,0.09555555555555556,0.7211111111111111,20.314412229989397,0.6236354525576464,4.198416379538829
1588960157.4736161,0.47349224366250475,-1.599396897465002,-10.068793794930004,-0.5333333333333333,0.09555555555555556,0.7211111111111111,18.207136776390467,0.5918653045781309,4.599404086265607
1588960157.483616,0.5205611856795819,-1.6785372855986063,-10.09685372855986,-0.5333333333333333,0.09555555555555556,0.7211111111111111,16.19876910902265,0.6678358034991289,4.071641965008711
1588960157.493616,0.4726366158341404,-1.71,-9.966152103612995,-0.5333333333333333,0.09555555555555556,0.7211111111111111,14.8808274101676,0.6576232374136148,3.4567253237906073
1588960157.503616,0.37174729459673467,-1.7329516232419593,-9.78557256513706,-0.5312081830331519,0.108306457356644,0.716435780450712,13.378393537196938,0.5054602956147958,2.737012650352551
1588960157.513616,0.30376916140667265,-1.788692515779982,-9.698845807033363,-0.5277777777777778,0.1288888888888889,0.7088888888888889,11.790858881875563,-0.11587015329125339,2.0399008115419295
1588960157.523616,0.3271575686708926,-1.8054315137341785,-9.701726054936714,-0.5277777777777778,0.1288888888888889,0.7088888888888889,11.301712156645538,-0.5447348041930785,1.9089469608386158
1588960157.533616,0.40699403544648943,-1.8066474096796183,-9.673063735514656,-0.5277777777777778,0.1288888888888889,0.7088888888888889,11.14559262099523,-0.7294073790047716,1.9584536895023859
1588960157.543616,0.5222834921252187,-1.8034252381878282,-9.565157301186078,-0.5277777777777778,0.1288888888888889,0.7088888888888889,11.098179564456544,-0.8125,1.9357767839782227
1588960157.553616,0.5794210378681627,-1.8550861150070126,-9.424913884992987,-0.5277777777777778,0.12649973507869722,0.7112780426990806,11.666178120617111,-0.700508415147265,1.1687201963534362
1588960157.563616,0.6469556025369979,-2.0035095137420718,-9.340422832980973,-0.5277777777777778,0.12222222222222222,0.7155555555555555,12.606104651162791,-0.3858350951374207,0.30695031712473575
1588960157.573616,0.64,-2.144171347316033,-9.280490934944899,-0.5277777777777778,0.12222222222222222,0.7155555555555555,14.406445520796304,0.14724049057945254,-1.1614290792747957
1588960157.583616,0.5993221015649952,-1.950847572660492,-9.364745688278505,-0.5277777777777778,0.12222222222222222,0.7155555555555555,16.440676401309485,0.576271059565634,-2.268007924784414
1588960157.593616,0.46087497945843303,-1.8697812551353918,-9.538796903244654,-0.5277777777777778,0.12222222222222222,0.7155555555555555,18.52338885642814,1.0583985337885953,-3.399072434130042
1588960157.603616,0.31572790625108343,-1.9443840793260063,-9.699440072114552,-0.5277777777777778,0.12551822702985896,0.7155555555555555,19.219099954928407,1.9010006760739175,-4.5260006760739175
1588960157.613616,0.25,-2.0,-9.75,-0.5277777777777778,0.1288888888888889,0.7155555555555555,19.1875,2.375,-5.0
1588960157.623616,0.1775542017559577,-1.971021680702383,-9.742755420175596,-0.5277777777777778,0.1288888888888889,0.7155555555555555,18.327206145852,2.193885504389894,-4.003870274144418
1588960157.633616,0.15,-1.96,-9.74,-0.5277777777777778,0.1288888888888889,0.7155555555555555,18.0,2.125,-3.625
1588960157.643616,0.09501611989292483,-2.0349780183278297,-9.620035170675472,-0.5277777777777778,0.1288888888888889,0.7155555555555555,18.249926727759433,1.219015611872057,-1.8755129056839719
1588960157.653616,0.04,-2.106502032955275,-9.482510164776375,-0.5207818436883278,0.13044354090876667,0.7155555555555555,18.587449176118124,0.2906377059704687,0.5745934089450032
1588960157.663616,0.0674616481129514,-2.1274616481129516,-9.483346286994298,-0.5077777777777778,0.13333333333333333,0.7155555555555555,18.87259664336139,0.15192268531088787,2.2060109370757535
1588960157.673616,0.16710901439044257,-2.2271090143904426,-9.60434666033125,-0.5077777777777778,0.13333333333333333,0.7155555555555555,19.31745095710019,-0.20396076568015203,3.4071175841705132
1588960157.683616,0.3299148723084627,-2.1712819228843263,-9.91542814221332,-0.5077777777777778,0.13333333333333333,0.7155555555555555,19.043534051076616,-0.44551201802704055,4.800481972959439
1588960157.693616,0.8200990287564274,-2.079320129499143,-11.255393893226687,-0.5077777777777778,0.13333333333333333,0.7155555555555555,14.933841966609535,1.3962459531517806,4.659584682282739
1588960157.703616,1.009689027337666,-2.068984102261131,-11.375501101025833,-0.5156423247459286,0.14163479957749253,0.7103125242434549,8.05144274665664,5.6269435791395885,2.9298549197056767
1588960157.713616,0.4721531375935521,-2.2342582997505276,-9.622726923815007,-0.5277777777777778,0.15444444444444444,0.7022222222222222,2.706042506236807,8.9285285933602,1.3169857033199002
1588960157.723616,0.4364881762809029,-2.2848817628090288,-9.889527051236115,-0.5277777777777778,0.15444444444444444,0.7022222222222222,0.7600400841992118,7.635821614116804,1.0524599158007883
1588960157.7336159,0.4262853157741088,-2.225572026338837,-9.637429368451784,-0.5277777777777778,0.15444444444444444,0.7022222222222222,1.0205245061468098,4.79104901229362,0.6294580589704499
1588960157.7436159,0.41,-2.255445696638479,-9.629157275211409,-0.5277777777777778,0.15444444444444444,0.7022222222222222,0.613553405985739,3.68780417805229,0.34096439600950734
1588960157.7536159,0.41,-2.269009167785018,-9.527431241612366,-0.5277777777777778,0.15444444444444444,0.7022222222222222,0.7407109479845425,3.2215598573900106,0.2561927013436383
1588960157.7636158,0.3752855060263228,-2.282642753013161,-9.51264275301316,-0.5277777777777778,0.1688888888888889,0.7155555555555555,0.34196558733548243,2.0517935240128944,-0.016517206332258793
1588960157.7736158,0.39435024025627335,-2.2878248798718634,-9.528700480512546,-0.5277777777777778,0.1688888888888889,0.7155555555555555,0.20921649759743727,1.336865990389749,-0.048905499199145754
1588960157.7836158,0.42436450436618367,-2.28,-9.550423663755877,-0.5277777777777778,0.1688888888888889,0.7155555555555555,0.03257394923711736,0.3609613400825256,-0.059852101525765276
1588960157.7936158,0.4365328485929381,-2.28,-9.533065697185876,-0.5277777777777778,0.1688888888888889,0.7155555555555555,0.0,-0.3658757481179154,-0.125
1588960157.8036158,0.4259306260575296,-2.280813874788494,-9.522441624365483,-0.529315096822711,0.1681654446324497,0.7138373754465125,-0.010173434856175972,-0.9527601522842639,-0.13517343485617597
1588960157.8136158,0.38157466159052456,-2.289685067681895,-9.549055203045686,-0.5460717945102462,0.16027993983831548,0.6951093015604437,-0.12106334602368866,-1.119095019035533,-0.24606334602368868
1588960157.8236158,0.3770747091529225,-2.2529252908470774,-9.592925290847077,-0.5466666666666666,0.16,0.6944444444444444,-0.07015079661729665,-0.28209392374900716,-0.2134338644115311
1588960157.8336158,0.35822176834892605,-2.2717782316510737,-9.60110884174463,-0.5466666666666666,0.16,0.6944444444444444,0.283341843457636,0.8472789563842403,0.011113947819212018
1588960157.8436158,0.3598646765013358,-2.2767117744995544,-9.543558872497774,-0.5466666666666666,0.16,0.6944444444444444,0.4786028187555659,2.265476778177876,0.18580845626669765
1588960157.8536158,0.3874196729114957,-2.2724732243038317,-9.51,-0.5466666666666666,0.1616488162025546,0.6908720093389095,0.46975408860630374,3.1243306075957973,0.4375
1588960157.8636158,0.41381302581676066,-2.276186974183239,-9.51762605163352,-0.5466666666666666,0.16666666666666666,0.68,0.16366858864524575,3.3601628227095084,0.4851628227095085
1588960157.8736157,0.42264170258620687,-2.2647165948275862,-9.574908943965516,-0.5466666666666666,0.16666666666666666,0.68,0.1745319234913793,3.5530744881465517,0.5459893588362069
1588960157.8836157,0.4224788565846636,-2.25,-9.666154854630985,-0.5466666666666666,0.16666666666666666,0.68,0.2889964268270738,4.321567890285596,0.5940142926917046
1588960157.8936157,0.41,-2.2601810534806344,-9.602364209889524,-0.5466666666666666,0.16666666666666666,0.68,0.29772368819047346,5.460197401587279,0.7818157921269823
1588960157.9036157,0.41,-2.284346291788497,-9.584240281158626,-0.5466666666666666,0.16666666666666666,0.68,0.410998242758581,6.404152022988175,0.8573321618390539
1588960157.9136157,0.42356244028379175,-2.2835624402837915,-9.504656339574312,-0.5333333333333333,0.17555555555555555,0.7022222222222222,0.5916021223394523,7.758591510642191,1.180663129434246
1588960157.9236157,0.44149388238389686,-2.2995020392053673,-9.484979607946324,-0.5333333333333333,0.17555555555555555,0.7022222222222222,0.4188264702012893,8.415459314563874,1.4406122549664517
1588960157.9336157,0.4877426882037108,-2.29,-9.574085770598764,-0.5333333333333333,0.17555555555555555,0.7022222222222222,0.08098196687886546,9.427765569425251,1.5
1588960157.9436157,0.5277628704505173,-2.2855257409010346,-9.553288611351553,-0.5333333333333333,0.17555555555555555,0.7022222222222222,0.15296411936853385,10.055928238737067,1.5699102984213347
1588960157.9536157,0.5161426219525946,-2.269035655488149,-9.532893033535553,-0.5339762296745676,0.1761984518967898,0.700829280149548,0.23794569360185833,10.430814595972125,1.8366086127962833
1588960157.9636157,0.48310783080691067,-2.259378433838618,-9.559378433838619,-0.54,0.18222222222222226,0.6877777777777778,0.11723042298272324,12.350317733501026,2.093578308069107
1588960157.9736156,0.5434849611020267,-2.26011372082652,-9.583712402755067,-0.54,0.18222222222222226,0.6877777777777778,0.12642151033149993,16.424248055101334,2.7099917620534164
1588960157.9836156,0.5598171903633844,-2.28,-9.646605730121129,-0.54,0.18222222222222226,0.6877777777777778,0.5871418674294909,18.19549792160193,3.1484993072006437
1588960157.9936156,0.5142049028388145,-2.2748409805677627,-9.616784412554933,-0.54,0.18222222222222226,0.6877777777777778,1.0806096786287047,19.530036136046487,3.7921825859663008
1588960158.0036156,0.5202827133214275,-2.2619114931743196,-9.513681629687927,-0.5412743287828798,0.1781868477431029,0.686291060864418,1.1571911795865242,20.779425341284014,5.445682113993401
1588960158.0136156,0.8245677173052749,-2.2806296848084173,-9.437951021928395,-0.5466666666666666,0.16111111111111112,0.68,0.4778548233157968,18.647676218632153,7.63780611294753
1588960158.0236156,0.7573494785155885,-2.2973494785155886,-9.593252607422057,-0.5466666666666666,0.16111111111111112,0.68,0.2884081665018564,14.83736962889714,6.41868481444857
1588960158.0336156,0.743472728435322,-2.283472728435322,-9.63326363578234,-0.5466666666666666,0.16111111111111112,0.68,-0.13519886181980945,13.01019886181981,5.520397723639619
1588960158.0436156,0.6920198923745897,-2.21,-9.645778118387952,-0.5466666666666666,0.16111111111111112,0.68,-0.19495026906352564,13.41401108741649,5.94267405827766
1588960158.0536156,0.7618981057261384,-2.21,-9.568912083701248,-0.5466666666666666,0.16111111111111112,0.68,-0.020254735684654218,14.331162637655565,6.55410842510371
1588960158.0636156,1.0213121206373295,-2.2771136823469904,-9.424897888214467,-0.5666666666666667,0.1688888888888889,0.7022222222222222,0.6986151286671725,12.224493787936268,5.487246893968134
1588960158.0736156,0.8025275037936267,-2.303633029843197,-9.517715604451189,-0.5666666666666667,0.1688888888888889,0.7022222222222222,0.7400516091299949,7.003497249620637,2.8767486248103187
1588960158.0836155,0.71,-2.196238215039008,-9.73819038906254,-0.5666666666666667,0.1688888888888889,0.7022222222222222,0.6967262585448909,2.125301771238342,0.47648884399379937
1588960158.0936155,0.7282491582491583,-2.2972996632996634,-9.651750841750841,-0.5666666666666667,0.1688888888888889,0.7022222222222222,0.7157828282828282,6.013720538720539,1.1993686868686868
1588960158.1036155,0.8304520199905073,-2.3324061199988835,-9.549547980009493,-0.5666666666666667,0.16715113555636213,0.6995487555567964,0.5700191249965101,8.619349750118658,1.7824235000139599
1588960158.1136155,0.9537879929665913,-2.3452341805393804,-9.42859491676372,-0.5666666666666667,0.15444444444444444,0.68,0.625,5.543651949030623,1.309315841154575
1588960158.1236155,0.8636331281975236,-2.326816564098762,-9.547059205160524,-0.5666666666666667,0.15444444444444444,0.68,0.5752588140431527,1.4487423074071328,0.42041410246904426
1588960158.1336155,0.8325342922814561,-2.3112671461407284,-9.67922925780381,-0.5666666666666667,0.15444444444444444,0.68,0.3322991584488767,0.2825359605546083,0.03167865351820276
1588960158.1436155,0.8420638650283117,-2.292063865028312,-9.562383190169871,-0.5666666666666667,0.15444444444444444,0.68,0.2222059050113632,0.23310927930357075,-0.07539915642694811
1588960158.1536155,0.8502266158292847,-2.299773384170715,-9.607960457536436,-0.5669940006423002,0.1551998305420604,0.68,-0.13208174466514974,-0.3309125361293893,-0.12783269786605989
1588960158.1636155,0.86,-2.292442120447169,-9.502905156869815,-0.5811111111111111,0.18777777777777774,0.68,-0.4375,-1.2928957807428778,-0.26526325279480706
1588960158.1736155,0.854992612363567,-2.2974963061817832,-9.492562794909679,-0.5811111111111111,0.18777777777777774,0.68,-0.406203827272294,-2.156757900004766,-0.343796172727706
1588960158.1836154,0.8379400094287734,-2.2879400094287736,-9.611760037715094,-0.5811111111111111,0.18777777777777774,0.68,-0.3125,-3.303374469631492,-0.4375
1588960158.1936154,0.8295047104573781,-2.2802476447713107,-9.580247644771312,-0.5811111111111111,0.18777777777777774,0.68,-0.3109522201793065,-3.75,-0.4405955596413869
1588960158.2036154,0.8158556110577784,-2.287072194471111,-9.58707219447111,-0.5811111111111111,0.18777777777777774,0.68,-0.26829878455555733,-3.75,-0.5259024308888853
1588960158.2136154,0.8298887181829506,-2.29,-9.470667690902296,-0.566747036867869,0.16899398838276886,0.68,0.06076122160860359,-2.7555640908524683,-0.2517387783913964
1588960158.2236154,0.852804494463737,-2.3052029963091583,-9.431992509227104,-0.5666666666666667,0.1688888888888889,0.68,0.3475561807967128,-2.274906365338812,-0.2975093634661188
1588960158.2336154,0.8693262151640134,-2.29949466137301,-9.451852908298962,-0.5666666666666667,0.1688888888888889,0.68,0.49263047835639673,-4.363033862698994,-0.6938167328373742
1588960158.2436154,0.836991481324442,-2.2752436109933316,-9.540773426357784,-0.5666666666666667,0.1688888888888889,0.68,0.13896932698608488,-6.788138900666846,-0.9969548625833557
1588960158.2536154,0.8224612410745986,-2.246820781884887,-9.533589885202572,-0.5666666666666667,0.16976641638285095,0.6795213486396571,-0.19871839125803778,-7.868268965245178,-0.4618574697226715
1588960158.2636154,0.6487259852459663,-2.4040098228726974,-9.616320959406684,-0.5666666666666667,0.18998956785496687,0.6684905387457756,-0.45725299814588344,-7.71314820111247,0.4171601936960039
1588960158.2736154,0.7143244053996143,-2.2928377973001925,-9.643874008999356,-0.5666666666666667,0.19333333333333333,0.6666666666666666,-0.7798425112491965,-6.0793898650096425,2.3310826012427683
1588960158.2836154,0.7490752724795641,-2.2731213507201247,-9.710635947839627,-0.5666666666666667,0.19333333333333333,0.6666666666666666,-0.953033768003114,-5.161847083008953,3.0899577899961073
1588960158.2936153,0.687064346418454,-2.2855965196276813,-9.648257385673816,-0.5666666666666667,0.19333333333333333,0.6666666666666666,-1.3933478348846622,-6.393347834884662,2.158847632537434
1588960158.3036153,0.670090246863618,-2.2601353702954268,-9.580360987454473,-0.5666666666666667,0.19333333333333333,0.6666666666666666,-1.4994359571023876,-6.499435957102388,-0.1750910562525294
1588960158.3136153,0.7221252891369395,-2.281968677715765,-9.483780744010357,-0.5666666666666667,0.16,0.6733333333333333,-0.7386745856588078,-5.173238121511789,-0.824804235723532
1588960158.3236153,0.6889221257563799,-2.2921557484872404,-9.54107787424362,-0.5666666666666667,0.16,0.6733333333333333,-0.41728985793212314,-5.631736714022626,-0.875
1588960158.3336153,0.6818975825318431,-2.302409669872628,-9.540512087340785,-0.5666666666666667,0.16,0.6733333333333333,-0.29743956329607485,-5.438442292695607,-0.8394203275279438
1588960158.3436153,0.6932929504365654,-2.271097650145522,-9.5,-0.5666666666666667,0.16,0.6733333333333333,-0.49313968659048873,-4.237793731809775,-0.660058746361955
1588960158.3536153,0.7113332090782664,-2.2771110696927552,-9.5,-0.5666666666666667,0.16,0.6733333333333333,-0.4555558144202784,-3.4861162884055688,-0.5097232576811137
1588960158.3636153,0.6618025636460745,-2.270300427274346,-9.577596581805235,-0.5602002848495639,0.16862184242280379,0.6873438272703896,-0.1950106818586434,-2.8825106818586432,-0.49812232953533914
1588960158.3736153,0.6332213557288542,-2.2621475704859026,-9.56751649670066,-0.56,0.1688888888888889,0.6877777777777778,-0.10486652669466107,-1.9463107378524296,-0.36828884223155367
1588960158.3836153,0.6592497362596447,-2.2794998241730964,-9.628249384605839,-0.56,0.1688888888888889,0.6877777777777778,0.05781085162277888,-1.5125043956725897,-0.3140630494590737
1588960158.3936152,0.6523446720541252,-2.287655327945875,-9.584068032324751,-0.56,0.1688888888888889,0.6877777777777778,0.2538831986468709,-1.5,-0.21680840067656454
1588960158.4036152,0.641170936329588,-2.3164871910112357,-9.52585468164794,-0.56,0.1688888888888889,0.6877777777777778,0.3125,-1.2240917602996255,-0.2978632958801498
1588960158.4136152,0.6812151618915521,-2.295270902865069,-9.50351393524338,-0.5654953549188736,0.1890385235914255,0.6813665303724252,0.3125,-0.208639905075636,-0.054905238177798965
1588960158.4236152,0.69854046041158,-2.288726717823509,-9.51018625741193,-0.5666666666666667,0.19333333333333333,0.68,0.4454580136030694,0.3284160272061388,0.125
1588960158.4336152,0.6327073596093478,-2.281411928845483,-9.568704569236136,-0.5666666666666667,0.19333333333333333,0.68,0.4911754447157307,0.4198508894314614,0.125
1588960158.4436152,0.6253517420378147,-2.2813379355094536,-9.640634451433824,-0.5666666666666667,0.19333333333333333,0.68,0.6624137091977433,1.9841387141543951,0.5250862908022567
1588960158.4536152,0.6555912835024603,-2.288897820875615,-9.587715253870694,-0.5666666666666667,0.19333333333333333,0.68,0.5206658585822174,3.307118653232638,0.6668341414177826
1588960158.4636152,0.7136907874630717,-2.2812618425073854,-9.507571055044314,-0.5544444444444444,0.16,0.6877777777777778,0.14018090597303814,2.551652857482427,0.5382483276172366
1588960158.4736152,0.6780843152568848,-2.288383136948623,-9.550298821691738,-0.5544444444444444,0.16,0.6877777777777778,-0.1268676355733641,0.7268211569153453,0.048659334782165775
1588960158.4836152,0.7481712273096721,-2.292042806827418,-9.483822812246004,-0.5544444444444444,0.16,0.6877777777777778,0.1760701706854511,0.28058114332159306,-0.05611622866431861
1588960158.4936152,0.8114545772034749,-2.3085757628672456,-9.028454402584362,-0.5544444444444444,0.16,0.6877777777777778,0.6576387676256166,-0.17209532020779675,-0.026704446239140874
1588960158.5036151,0.6466634653162788,-2.281110577552713,-9.770014406076745,-0.5544444444444444,0.16,0.6877777777777778,1.2870492644169904,-3.490805212380495,-0.5416766708866285
1588960158.5136151,0.6317092217679747,-2.273345491933707,-9.551672745966854,-0.5666666666666667,0.18222222222222226,0.6877777777777778,0.09340803936448873,-5.23817749516512,-0.7915906754143308
1588960158.5236151,0.6846631208658037,-2.29,-9.578679076969687,-0.5666666666666667,0.18222222222222226,0.6877777777777778,-0.3499833790584552,-3.3625332418830896,-0.6958388736471816
1588960158.533615,0.6564248565128844,-2.29,-9.677513002204904,-0.5666666666666667,0.18222222222222226,0.6877777777777778,-0.21761651490414555,-3.627266970191709,-0.7399611616986181
1588960158.543615,0.6220410264859744,-2.27081641059439,-9.663060509947687,-0.5666666666666667,0.18222222222222226,0.6877777777777778,0.0625,-3.5165769040655763,-0.5
1588960158.553615,0.6652331424805372,-2.288093256992215,-9.516207315566174,-0.5666666666666667,0.18222222222222226,0.6877777777777778,0.0625,-2.5447542941879147,-0.5
1588960158.563615,0.6895586764460743,-2.292088264710785,-9.505823470578429,-0.5466666666666666,0.1811111111111111,0.68,-0.125,-2.505516544424071,-0.46360330888481416
1588960158.573615,0.6487528447883477,-2.3,-9.493117888029131,-0.5466666666666666,0.1811111111111111,0.68,-0.12889736003641328,-2.984410559854347,-0.5625
1588960158.583615,0.6355866149765355,-2.3,-9.526033462558662,-0.5466666666666666,0.1811111111111111,0.68,-0.17004182819832686,-2.8198326872066923,-0.5625
1588960158.593615,0.6105619062952825,-2.2902809531476414,-9.491404765738206,-0.5466666666666666,0.1811111111111111,0.68,-0.1875,-2.203303614554822,-0.380267871518274
1588960158.603615,0.6275082245569351,-2.29,-9.49,-0.5466666666666666,0.1811111111111111,0.68,-0.07807359651915526,-2.0780735965191552,-0.3202867982595776
1588960158.613615,0.6191845508686612,-2.28,-9.574077245656694,-0.5466666666666666,0.17333333333333334,0.6877777777777778,-0.10971032878739824,-1.9898068858582656,-0.30740344292913274
1588960158.623615,0.6117942347675934,-2.28,-9.611028826162032,-0.5466666666666666,0.17333333333333334,0.6877777777777778,0.028858098107622382,-1.8974279345949183,-0.2612139672974592
1588960158.633615,0.6312676911481451,-2.28253538229629,-9.650984632777824,-0.5466666666666666,0.17333333333333334,0.6877777777777778,0.1804614877313458,-0.9515770245373084,-0.1875
1588960158.643615,0.6400938421126506,-2.3000938421126507,-9.519671552605722,-0.5466666666666666,0.17333333333333334,0.6877777777777778,0.5625,-0.188673026408133,-0.1869134867959335
1588960158.653615,0.6569144392532735,-2.3169144392532734,-9.460799462613542,-0.5466666666666666,0.17333333333333334,0.6877777777777778,0.5625,-0.398930490665918,-0.08178475466704098
1588960158.663615,0.6383893797014506,-2.29,-9.45,-0.5466666666666666,0.16666666666666666,0.7022222222222222,0.2990781641787547,-0.8917772947765567,-0.1875
1588960158.673615,0.61,-2.29,-9.458471199317776,-0.5466666666666666,0.16666666666666666,0.7022222222222222,0.07006357081944337,-1.184978809726852,-0.1900211902731478
1588960158.683615,0.6121902765753862,-2.288904861712307,-9.653429170273842,-0.5466666666666666,0.16666666666666666,0.7022222222222222,0.27737845719232695,-1.0154861712306922,-0.24315538570191825
1588960158.693615,0.6294702379848268,-2.28,-9.598940475969654,-0.5466666666666666,0.16666666666666666,0.7022222222222222,0.5099330377844967,-0.09851189924134221,-0.1875
1588960158.703615,0.6216901930960287,-2.28,-9.583380386192058,-0.5466666666666666,0.16666666666666666,0.7022222222222222,0.655808879449463,0.29049034519856803,-0.1875
1588960158.713615,0.6363159725673393,-2.296315972567339,-9.522894096014312,-0.5466666666666666,0.15669579454218158,0.695877121779368,0.5855251714541299,0.375,-0.1365125857270649
1588960158.723615,0.6321964338177134,-2.3,-9.53341069854686,-0.5466666666666666,0.15444444444444444,0.6944444444444444,0.41618313408212615,0.4237722886392913,-0.027455422721417433
1588960158.733615,0.636046459263707,-2.306046459263707,-9.612557511164484,-0.5466666666666666,0.15444444444444444,0.6944444444444444,0.3372096296018313,0.3619192592036627,0.0
1588960158.743615,0.6186093461774954,-2.317130217940835,-9.496004987360799,-0.5466666666666666,0.15444444444444444,0.6944444444444444,0.2233722757395641,0.0896806893489103,-0.04456386213021794
1588960158.753615,0.6047337185203793,-2.3094674370407584,-9.524793066633173,-0.5466666666666666,0.15444444444444444,0.6944444444444444,0.41789981473340454,-0.03291425924762922,0.003328518495258434
1588960158.763615,0.5952037579306979,-2.2856112737920937,-9.480501464128842,-0.5466666666666666,0.1672344232959167,0.6912469497315764,0.4451409224011713,-0.39224164226451924,-0.027429538799414357
1588960158.773615,0.6091902034366976,-2.282793468957798,-9.531902034366976,-0.5466666666666666,0.1811111111111111,0.6877777777777778,0.32995918098624005,-0.23026532358943974,-0.005061228520639949
1588960158.7836149,0.6003286617326165,-2.2702191078217444,-9.65945223044564,-0.5466666666666666,0.1811111111111111,0.6877777777777778,0.31386942388590194,0.31866240748655883,0.0
1588960158.7936149,0.628634737812971,-2.2890898252086473,-9.612275436978381,-0.5466666666666666,0.1811111111111111,0.6877777777777778,0.43181140755404585,0.8494013339932063,0.0
1588960158.8036149,0.6127890232598245,-2.2986054883700877,-9.549761581409385,-0.5466666666666666,0.1811111111111111,0.6877777777777778,0.5988529069391451,1.5204116277565802,0.2151372092521934
1588960158.8136148,0.630491778025956,-2.320491778025956,-9.492185851272769,-0.5466666666666666,0.1811111111111111,0.6779113661356508,0.41154397889629146,1.8811472253244503,0.25
1588960158.8236148,0.6597505881278122,-2.319750588127812,-9.531247059360938,-0.5466666666666666,0.1811111111111111,0.6733333333333333,0.3086029394970651,1.7320735216864993,0.12266176369823904
1588960158.8336148,0.6405910970011192,-2.300591097001119,-9.627044514994404,-0.5466666666666666,0.1811111111111111,0.6733333333333333,0.00923589064248681,0.3549850969554391,-0.0569584656145079
1588960158.8436148,0.6307643196328357,-2.2907643196328356,-9.593057278531344,-0.5466666666666666,0.1811111111111111,0.6733333333333333,-0.057723002294776546,-0.20700702065298893,-0.0625
1588960158.8536148,0.6222954486449783,-2.305409102710043,-9.559181794579914,-0.5466666666666666,0.1811111111111111,0.6733333333333333,0.08196033790665627,-0.10553966209334373,-0.11065344596888543
1588960158.8636148,0.6273229918229918,-2.2880310245310245,-9.520708032708033,-0.5369026775693442,0.1811111111111111,0.683910988188766,0.07923130110630111,-0.01673130110630111,-0.03346260221260222
1588960158.8736148,0.6386540838108078,-2.2973081676216154,-9.544616335243232,-0.5333333333333333,0.1811111111111111,0.6877777777777778,0.0625,0.16226407145264576,-0.10817604763509718
1588960158.8836148,0.64,-2.3,-9.621228490629344,-0.5333333333333333,0.1811111111111111,0.6877777777777778,-0.048794516608349714,-0.09073629152087426,-0.125
1588960158.8936148,0.6487261518342947,-2.3087261518342945,-9.560190785325643,-0.5333333333333333,0.1811111111111111,0.6877777777777778,-0.007961551035658404,-0.3431537958573664,-0.0704615510356584
1588960158.9036148,0.65,-2.2989932278547833,-9.533489841782176,-0.5333333333333333,0.1811111111111111,0.6877777777777778,-0.0687923259076032,-0.6501693036304128,-0.1656884888614048
1588960158.9136147,0.645260793123657,-2.29,-9.496303965618285,-0.5364928045842287,0.1742655900675045,0.6909372490286732,-0.15462004297714396,-0.9638601289314319,-0.3092400859542879
1588960158.9236147,0.6321838891176067,-2.297816110882393,-9.47,-0.54,0.16666666666666666,0.6944444444444444,-0.13864930698504185,-1.404454851104707,-0.375
1588960158.9336147,0.6139503199452196,-2.2919751599726097,-9.606422280465633,-0.54,0.16666666666666666,0.6944444444444444,-0.27546575051356526,-1.6003105003423768,-0.375
1588960158.9436147,0.61,-2.296428503053625,-9.607857484731875,-0.54,0.16666666666666666,0.6944444444444444,-0.3125,-1.5044655677445293,-0.4553562881703138
1588960158.9536147,0.6223888815001994,-2.2876111184998003,-9.571416677749701,-0.54,0.16666666666666666,0.6944444444444444,-0.1576389812475063,-0.8567711796781486,-0.3064237265593829
1588960158.9636147,0.6240035150910235,-2.2979894547269293,-9.518024605637164,-0.5439976566059843,0.182657293090604,0.681785198525494,-0.025021969318896865,-0.3126098465944843,-0.15002196931889686
1588960158.9736147,0.647845120505729,-2.291436586329514,-9.51784512050573,-0.5466666666666666,0.19333333333333333,0.6733333333333333,0.0,-0.4775533386013433,-0.06698933227973133
1588960158.9836147,0.6349842826135769,-2.29,-9.602586445625327,-0.5466666666666666,0.19333333333333333,0.6733333333333333,-0.14077235049771725,-0.8284688178280069,-0.20327235049771725
1588960158.9936147,0.6117408222498645,-2.280870411124932,-9.575222466749594,-0.5466666666666666,0.19333333333333333,0.6733333333333333,-0.472799652345868,-1.3939794437533888,-0.3070599304691736
1588960159.0036147,0.5967039636523921,-2.28,-9.53675990913098,-0.5466666666666666,0.19333333333333333,0.6733333333333333,-0.33379954565490116,-1.2297494320686264,-0.3125
1588960159.0136147,0.606086341374932,-2.28,-9.47978414656267,-0.5413045528750227,0.17188487816675735,0.684951246548562,-0.04892073281335027,-0.773111282423363,-0.21196036640667515
1588960159.0236146,0.61,-2.3157998873570533,-9.452100056321473,-0.54,0.16666666666666666,0.6877777777777778,-0.05593732399539633,-0.35187605602762195,-0.13156267600460367
1588960159.0336146,0.6180257044204783,-2.328025704420478,-9.570385566307174,-0.54,0.16666666666666666,0.6877777777777778,-0.11266065262798926,-0.16201804211603224,-0.024678694744021484
1588960159.0436146,0.6068976024376553,-2.310346403656483,-9.57379520487531,-0.54,0.16666666666666666,0.6877777777777778,0.038779969529307984,0.079724961911635,-0.040944992382326996
1588960159.0536146,0.6117720675707827,-2.292151954952811,-9.552151954952812,-0.54,0.16666666666666666,0.6877777777777778,0.125,0.16297485922753588,-0.08702514077246411
1588960159.0636146,0.6271381358932998,-2.28143093205335,-9.537138135893299,-0.5409539547022334,0.16666666666666666,0.6877777777777778,0.13394332533343825,0.13394332533343825,-0.1071133493331235
1588960159.0736146,0.61,-2.295816529640848,-9.537449588922545,-0.5466666666666666,0.16666666666666666,0.6877777777777778,0.07844006923409778,0.1875,-0.10905993076590222
1588960159.0836146,0.6231693621922542,-2.3,-9.582923405480635,-0.5466666666666666,0.16666666666666666,0.6877777777777778,0.12346277055238279,0.26980851370158854,-0.10519148629841149
1588960159.0936146,0.6189671922280617,-2.2944835961140306,-9.583450788342093,-0.5466666666666666,0.16666666666666666,0.6877777777777778,0.1875,0.2780224757126931,-0.0969775242873069
1588960159.1036146,0.6152839069514352,-2.29,-9.55943218609713,-0.5466666666666666,0.16666666666666666,0.6877777777777778,0.1875,0.4151220922323493,-0.058951163107060264
1588960159.1136146,0.62,-2.2947777971926144,-9.545222202807386,-0.5503827311498113,0.16666666666666666,0.6909629759061875,0.21736123245384123,0.7118061622692061,0.0
1588960159.1236145,0.6321184051550544,-2.2818223922674186,-9.54,-0.5544444444444444,0.16666666666666666,0.6944444444444444,0.2121299838904551,1.0643500805477246,0.07574003221908981
1588960159.1336145,0.633737243904339,-2.282525512191322,-9.583839292669627,-0.5544444444444444,0.16666666666666666,0.6944444444444444,0.2266422255978811,1.148357774402119,0.046715548804237755
1588960159.1436145,0.6227864434721958,-2.297213556527804,-9.59557288694439,-0.5544444444444444,0.16666666666666666,0.6944444444444444,0.06966108680489505,0.76432217360979,0.0
1588960159.1536145,0.6140492515346232,-2.294049251534623,-9.578098503069247,-0.5544444444444444,0.16666666666666666,0.6944444444444444,-0.07438435581720933,0.14150168718813944,-0.11157653372581397
1588960159.1636145,0.61,-2.29,-9.541248238522584,-0.5440618639109331,0.16666666666666666,0.7000350647317197,-0.16992462730846253,-0.36719850923385006,-0.09765074538307497
1588960159.1736145,0.6225895392507099,-2.27741046074929,-9.523705230374645,-0.54,0.16666666666666666,0.7022222222222222,-0.10881537968306311,-0.5161846203169369,-0.1411846203169369
1588960159.1836145,0.623261557555073,-2.296953769779708,-9.540215327334781,-0.54,0.16666666666666666,0.7022222222222222,-0.18884579584238287,-0.5625,-0.1453847347192057
1588960159.1936145,0.6277807208634518,-2.294438558273096,-9.534438558273097,-0.54,0.16666666666666666,0.7022222222222222,-0.2013704946034261,-0.7083885161897218,-0.1736295053965739
1588960159.2036145,0.63,-2.29,-9.511291908552844,-0.54,0.16666666666666666,0.7022222222222222,-0.10954961897017945,-0.9059007620596411,-0.3044255715447308
1588960159.2136145,0.6209800470684539,-2.285490023534227,-9.518039905863091,-0.546514410450561,0.16366001568948463,0.7022222222222222,-0.09068735291108156,-1.197311470377571,-0.375
1588960159.2236145,0.61,-2.2858657353511833,-9.569328676755918,-0.5544444444444444,0.16,0.7022222222222222,-0.05167830811020567,-1.7674476135040744,-0.41166084594489716
1588960159.2336144,0.6024510229685389,-2.29,-9.65794079328315,-0.5544444444444444,0.16,0.7022222222222222,-0.14154331933989575,-1.9528188935533681,-0.34313778710673615
1588960159.2436144,0.6051447903009113,-2.2848552096990886,-9.664565629097266,-0.5544444444444444,0.16,0.7022222222222222,-0.1553450606193043,-2.0018098787613914,-0.3446549393806957
1588960159.2536144,0.5972830483218619,-2.2842389838927124,-9.594893209394735,-0.5544444444444444,0.16,0.7022222222222222,-0.2574682466472717,-2.141980947988363,-0.34850635067054564
1588960159.2636144,0.587843825333374,-2.297843825333374,-9.46509322266638,-0.5544444444444444,0.17045843377783204,0.6908922522962375,-0.2414043666656495,-2.25,-0.3615239083335876
1588960159.2736144,0.6057316193053676,-2.3,-9.473597428958051,-0.5544444444444444,0.17333333333333334,0.6877777777777778,-0.04001606901217861,-2.004193448353631,-0.375
1588960159.2836144,0.5956060270330157,-2.307196986483492,-9.559166851318414,-0.5544444444444444,0.17333333333333334,0.6877777777777778,-0.044981165521825836,-2.207386993130955,-0.375
1588960159.2936144,0.59,-2.31,-9.544715551891167,-0.5544444444444444,0.17333333333333334,0.6877777777777778,-0.0625,-2.265328699886633,-0.422171300113367
1588960159.3036144,0.6026851978638915,-2.284629604272217,-9.542685197863891,-0.5544444444444444,0.17333333333333334,0.6877777777777778,-0.0625,-2.289641243324661,-0.3978587566753389
1588960159.3136144,0.6331710801741037,-2.27,-9.565447386782736,-0.5587353852174266,0.17333333333333334,0.7092324816426886,-0.25559233478419774,-2.3125,-0.42327308369604943
1588960159.3236144,0.7687204758942954,-2.2588069151396266,-9.558806915139627,-0.56,0.17333333333333334,0.7155555555555555,-0.2075648294339984,-2.172586439245331,-0.6473703411320032
1588960159.3336143,0.8282096515527045,-2.270895174223648,-9.60223793555912,-0.56,0.17333333333333334,0.7155555555555555,-0.125,-1.8666077416533022,-1.073689677795597
1588960159.3436143,0.6630017214460147,-2.3015452980503626,-9.580728211697826,-0.56,0.17333333333333334,0.7155555555555555,0.01931622562952881,-1.1823932102966492,-2.1423182973697905
1588960159.3536143,0.5295223814284127,-2.2984349661224037,-9.501087415306008,-0.56,0.17333333333333334,0.7155555555555555,0.23342219260246583,-0.45109269132511387,-3.1475480395423747
1588960159.3636143,0.38995432307226047,-2.301583755466078,-9.48,-0.5567822901483117,0.17333333333333334,0.7078330519115036,0.24010152833701345,-0.0065038208425336475,-2.858312226696108
1588960159.3736143,0.3244813384813385,-2.31,-9.516203346203346,-0.5544444444444444,0.17333333333333334,0.7022222222222222,0.1875,0.125,-2.4375
1588960159.3836143,0.41165910722443383,-2.2991121190367423,-9.57899546433466,-0.5544444444444444,0.17333333333333334,0.7022222222222222,0.11945074397963845,0.46524628010180774,-1.1785887636233112
1588960159.3936143,0.515477629987908,-2.2860580411124545,-9.608174123337363,-0.5544444444444444,0.17333333333333334,0.7022222222222222,0.0625,0.7253627569528416,-0.051088270858524784
1588960159.4036143,0.5607436816552475,-2.2846281591723763,-9.580743681655248,-0.5544444444444444,0.17333333333333334,0.7022222222222222,0.03357400517264848,0.3693140568991333,-0.02427798448205455
1588960159.4136143,0.5669303259694114,-2.29,-9.530495906071373,-0.5651042793140738,0.17772267710318074,0.7022222222222222,0.0705430248725475,0.0,-0.125
1588960159.4236143,0.6036448558447625,-2.29,-9.48817757207762,-0.5733333333333334,0.1811111111111111,0.7022222222222222,0.1619450872574413,0.0,-0.125
1588960159.4336143,0.62,-2.2936021787115113,-9.512419608403603,-0.5733333333333334,0.1811111111111111,0.7022222222222222,0.11995914915916345,-0.04502723389389103,-0.07997276610610897
1588960159.4436142,0.62,-2.3,-9.567542804085424,-0.5733333333333334,0.1811111111111111,0.7022222222222222,0.0,-0.1288393686165274,0.0
1588960159.4536142,0.6124831488536712,-2.3037584255731645,-9.526241574426836,-0.5733333333333334,0.1811111111111111,0.7022222222222222,-0.046980319664555105,-0.46938191798733064,-0.023490159832277552
1588960159.4636142,0.5862729490306843,-2.287121581717807,-9.533727050969317,-0.564690375315616,0.17145133450307415,0.6956129013851443,-0.09640197714725895,-1.1948822056746695,-0.14829406855822314
1588960159.4736142,0.6043585362203153,-2.2662470065855116,-9.590605542805827,-0.5544444444444444,0.16,0.6877777777777778,-0.0625,-1.6366532690580722,-0.40617516463779685
1588960159.4836142,0.6619035621632409,-2.2767097385751347,-9.658613300738375,-0.5544444444444444,0.16,0.6877777777777778,-0.0625,-1.8655255313310717,-0.6677434643783676
1588960159.4936142,0.7455875826887586,-2.28596250751716,-9.68,-0.5544444444444444,0.16,0.6877777777777778,-0.09976567198224914,-1.7511716400887543,-1.308985079733737
1588960159.5036142,0.785222982739563,-2.309108069041748,-9.58445965479126,-0.5544444444444444,0.16,0.6877777777777778,-0.09514364212226852,-1.0875855582008334,-2.374196231187824
1588960159.5136142,0.6867418229226581,-2.3166774032746655,-9.460016104911999,-0.5518539395256293,0.16444086557511153,0.6899982105653336,-0.04168344261666475,-0.6248993443000115,-3.4996980329000347
1588960159.5236142,0.481078026372319,-2.28763475329654,-9.41763475329654,-0.5466666666666666,0.17333333333333334,0.6944444444444444,0.0,-0.9636967513797547,-4.220434416206748
1588960159.5336142,0.42826667836693505,-2.2965333567338697,-9.472000087752013,-0.5466666666666666,0.17333333333333334,0.6944444444444444,0.10333347958668802,-0.888332821446592,-3.73749945154992
1588960159.5436141,0.42301690749292414,-2.308677938328616,-9.55433896916431,-0.5466666666666666,0.17333333333333334,0.6944444444444444,0.25,0.014195869953820939,-2.869067015492328
1588960159.5536141,0.40394135765430617,-2.293941357654306,-9.568175927037082,-0.5466666666666666,0.17333333333333334,0.6944444444444444,0.022800912036481463,-0.02829863194527782,-2.246334853394136
1588960159.5636141,0.4313638928067701,-2.283727221438646,-9.561181664315939,-0.5424848142924307,0.1649696285848613,0.6944444444444444,-0.08579513399153738,-0.2892048660084626,-1.6079513399153738
1588960159.5736141,0.4616686635663952,-2.2858343317831977,-9.57333732713279,-0.54,0.16,0.6944444444444444,-0.026035426355014928,-0.27603542635501493,-1.0103542635501492
1588960159.583614,0.5258232827111933,-2.29,-9.612329313084478,-0.54,0.16,0.6944444444444444,0.10466865508348745,-0.2151104483055042,-0.5057731381385293
1588960159.593614,0.5793382421648694,-2.2946691210824346,-9.597316152422957,-0.54,0.16,0.6944444444444444,0.21668200676521707,-0.24586401353043413,-0.34168200676521704
1588960159.603614,0.59,-2.2952246561204332,-9.543286296421517,-0.54,0.16,0.6944444444444444,0.22015410075270922,-0.3125,-0.34515410075270925
1588960159.613614,0.59,-2.2802975247789026,-9.49104133672616,-0.54,0.16,0.6944444444444444,0.12685952986814242,-0.3125,-0.2518595298681424
1588960159.623614,0.6245946286193873,-2.2925675618967687,-9.490270247587075,-0.5466666666666666,0.16666666666666666,0.6877777777777778,0.17145273814519513,0.2694253566932438,-0.2981417855644146
1588960159.633614,0.5668557220616893,-2.295618574020563,-9.544097842886902,-0.5466666666666666,0.16666666666666666,0.6877777777777778,0.125,0.7011919561857403,-0.4101160876285196
1588960159.643614,0.5301298208868988,-2.2833766069622996,-9.63,-0.5466666666666666,0.16666666666666666,0.6877777777777778,0.1461037935143724,0.644481032428138,-0.29139620648562764
1588960159.653614,0.5514940210753544,-2.2914940210753545,-9.619541852472521,-0.5466666666666666,0.16666666666666666,0.6877777777777778,0.17816236827903542,0.3161107876274605,-0.24066236827903542
1588960159.663614,0.5702378243058717,-2.2965873918980426,-9.549762175694129,-0.5493209174126333,0.16439159459869518,0.6900528498457493,0.1036711993627674,-0.6736032089212562,-0.2301576012744652
1588960159.673614,0.5946156302975211,-2.294615630297521,-9.502306218214873,-0.5544444444444444,0.16,0.6944444444444444,0.0625,-1.8558014765496402,-0.3701953787190133
1588960159.683614,0.6141626985997831,-2.3,-9.51248809579935,-0.5544444444444444,0.16,0.6944444444444444,0.0625,-3.123106819574749,-0.49651124416576303
1588960159.693614,0.6208752275591654,-2.2954376137795824,-9.537188068897914,-0.5544444444444444,0.16,0.6944444444444444,0.033985086122391824,-4.6054474163282455,-0.7050745693880409
1588960159.703614,0.5974376768629565,-2.29,-9.51314058078426,-0.5544444444444444,0.16,0.6944444444444444,-0.019628629901630508,-5.939058078426088,-0.9338858897048915
1588960159.713614,0.5716305074174722,-2.288369492582528,-9.52054350247249,-0.5536593853175134,0.16,0.6944444444444444,-0.06589689045306722,-6.638587561812269,-1.0658968904530672
1588960159.723614,0.641342883118611,-2.241625385280617,-9.543780961039538,-0.54,0.16,0.6944444444444444,-0.18242067099807083,-6.932420670998071,-1.2972620129942125
1588960159.733614,0.8203391973611874,-2.1910357339197364,-9.60827377680044,-0.54,0.16,0.6944444444444444,-0.06897333699835073,-6.577604452996152,-2.0732510995052227
1588960159.743614,0.9377328422522327,-2.232368262680244,-9.632166052815291,-0.54,0.16,0.6944444444444444,0.05541513203822729,-5.116019414554295,-4.044404925254568
1588960159.753614,0.8335521066629339,-2.3146993980963044,-9.552368071108623,-0.54,0.16,0.6944444444444444,0.12864269841825307,-3.566372349174132,-5.999770349244121
1588960159.763614,0.6872670128450395,-2.3550517749233246,-9.459896450153352,-0.5383160750255586,0.1616839249744415,0.692760519470003,0.2967132033646109,-1.7738073547720994,-7.471015152895448
1588960159.773614,0.5515527030362873,-2.3642960585863575,-9.421444087879536,-0.5333333333333333,0.16666666666666666,0.6877777777777778,0.321299267670534,0.9988685921171727,-8.089350366164734
1588960159.783614,0.3858928659590225,-2.350491072163252,-9.400736608244879,-0.5333333333333333,0.16666666666666666,0.6877777777777778,0.4938615979593516,2.5087889821443268,-8.003069201020324
1588960159.793614,0.19660005226936145,-2.2977999825768793,-9.56440003484624,-0.5333333333333333,0.16666666666666666,0.6877777777777778,0.472499782210994,3.713751197839533,-6.622496515375904
1588960159.803614,0.21852339053924558,-2.290492203153585,-9.57901559369283,-0.5333333333333333,0.16666666666666666,0.6877777777777778,0.3811525394198101,4.216161033191044,-5.160940630716961
1588960159.813614,0.33624289943195457,-2.285973011174227,-9.594026988825773,-0.5387026517676969,0.16666666666666666,0.6877777777777778,0.22483131983892043,3.6233131983892046,-2.921963757100568
1588960159.823614,0.49787213845780265,-2.2713702289233755,-9.6,-0.5466666666666666,0.16666666666666666,0.6877777777777778,0.24143606922890132,2.737607342325438,-2.115159826927747
1588960159.8336139,0.6236962815639082,-2.2681518592180456,-9.620379648045114,-0.5466666666666666,0.16666666666666666,0.6877777777777778,0.28702543994360663,1.8077543994360665,-2.0393982402255735
1588960159.8436139,0.5485494725566449,-2.2842875439536128,-9.61998719232471,-0.5466666666666666,0.16666666666666666,0.6877777777777778,0.2232028502899192,0.8211655566681415,-2.2946885988403234
1588960159.8536139,0.4525080918923186,-2.3071824425673007,-9.562817557432698,-0.5466666666666666,0.16666666666666666,0.6877777777777778,0.20897805320912607,-0.19330247888213467,-2.2871536275361173
1588960159.8636138,0.45015077936631914,-2.3281998166196893,-9.512299724929534,-0.5446999694366149,0.16306105507823848,0.6854832976760508,0.23156221346826503,-0.6178133595952049,-1.797184348150915
1588960159.8736138,0.5663492063492064,-2.2963492063492064,-9.488253968253968,-0.54,0.15444444444444444,0.68,0.14186507936507936,-0.9781746031746031,-1.380952380952381
1588960159.8836138,0.5746965224278207,-2.273466412268702,-9.54204478364173,-0.54,0.15444444444444444,0.68,0.03953668370653035,-1.4209266325869394,-1.568889948880409
1588960159.8936138,0.6241815980132587,-2.2,-9.616272397019888,-0.54,0.15444444444444444,0.68,-0.11193250620856679,-1.501418734478583,-2.196311290355684
1588960159.9036138,0.5665716388944656,-2.216714180552767,-9.568857212964822,-0.54,0.15444444444444444,0.68,-0.11785758103013674,-1.2776787905150684,-2.8441954426821923
1588960159.9136138,0.4621210303092997,-2.2758924175028445,-9.541986552187854,-0.5413243681252371,0.15444444444444444,0.6815450961461099,0.03766809765180511,-0.9764288300403434,-3.25
1588960159.9236138,0.39372771788569105,-2.342485145257127,-9.546893568428592,-0.5466666666666666,0.15444444444444444,0.6877777777777778,-0.05861696053573848,-0.07063744750033871,-3.1956374475003386
1588960159.9336138,0.4424354036425572,-2.3749569357617046,-9.506303830297869,-0.5466666666666666,0.15444444444444444,0.6877777777777778,-0.007879787872336307,0.6396829697872918,-2.485317030212708
1588960159.9436138,0.5449238050844419,-2.352614292373337,-9.563845243644447,-0.5466666666666666,0.15444444444444444,0.6877777777777778,-0.00769344544444046,0.11921142744451219,-1.6413393273333572
1588960159.9536138,0.5750023306680053,-2.3074965039979918,-9.526247086664993,-0.5466666666666666,0.15444444444444444,0.6877777777777778,-0.05469114166875829,-0.679749408368891,-1.3593531499874503
1588960159.9636137,0.7967623024695066,-2.0472147449378117,-9.53,-0.548743716076829,0.15770837923184255,0.6895581058436313,-0.22514345370426003,-2.3299078441386767,-2.2340266929039236
1588960159.9736137,1.0207449550658338,-1.7833295404407496,-9.54222348651975,-0.5544444444444444,0.16666666666666666,0.6944444444444444,-0.5,-4.5648991013166755,-4.886711039639597
1588960159.9836137,1.0512515532842117,-1.7213754659852634,-9.574374223357895,-0.5544444444444444,0.16666666666666666,0.6944444444444444,-0.48203222080263225,-6.289033375921032,-7.854631193447329
1588960159.9936137,0.9795223695433046,-1.691880282236179,-9.594238194929053,-0.5544444444444444,0.16666666666666666,0.6944444444444444,-0.40167771574784833,-7.484696053345739,-10.57780394665426
1588960160.0036137,0.7393638039071139,-1.4710596387762624,-9.328689863619609,-0.5544444444444444,0.16666666666666666,0.6944444444444444,0.3765656100258017,-2.7174824917065976,-14.15980372281607
1588960160.0136137,0.1828035385182455,-1.3288275709546629,-9.44618591964615,-0.5544444444444444,0.16666666666666666,0.6944444444444444,0.5311656837449318,2.036469775156653,-16.053654625875414
1588960160.0236137,-0.06465542108233524,-1.1194751363892894,-9.154098576534771,-0.54,0.15444444444444444,0.68,0.125,0.8362623063899166,-17.132987395748415
1588960160.0336137,0.1875106915815835,-0.9200446927374302,-9.277244461568099,-0.54,0.15444444444444444,0.68,0.09486129840107879,-4.4369413407821225,-14.35152908880755
1588960160.0436137,1.054825921219822,-0.37178653113087673,-9.24,-0.54,0.15444444444444444,0.68,-0.20983163913595934,-11.444170902160101,-11.910673443456163
1588960160.0536137,0.9660032541354638,-0.4148497048332256,-9.246856213104154,-0.54,0.15444444444444444,0.68,0.10890532760382987,-8.470096111725317,-13.84981695488016
1588960160.0636137,0.9053949788118654,-0.5471236107779643,-9.270432157991525,-0.543013734530885,0.15444444444444444,0.6846365146628999,0.5287813824258415,0.05001199328376105,-17.076469676980892
1588960160.0736136,0.8241075060855647,-0.6711847677481744,-9.320200073360233,-0.5544444444444444,0.15444444444444444,0.7022222222222222,0.904423288539131,8.400867818200007,-19.750097952582614
1588960160.0836136,0.5163321967851924,-0.9273356064296152,-9.37764734534827,-0.5544444444444444,0.15444444444444444,0.7022222222222222,1.4563139308329274,10.564022162688747,-23.48983195323916
1588960160.0936136,0.5539688905373452,-1.023940609207659,-9.397909499745005,-0.5544444444444444,0.15444444444444444,0.7022222222222222,1.4627474616347536,4.414638775557513,-25.249734862534194
1588960160.1036136,0.6783652999502316,-1.0363412579916542,-9.430263389609893,-0.5544444444444444,0.15444444444444444,0.7022222222222222,0.9566991118257341,-0.4897831246889476,-25.831699111825735
1588960160.1136136,0.7920493338884264,-0.8178958506799889,-9.123851998334722,-0.5515634733401178,0.15466605760631572,0.7006709300891232,1.049862961421038,-0.35263799264501805,-26.099383326394673
1588960160.1236136,0.72,-0.9351805995940073,-9.346330800073817,-0.54,0.15555555555555556,0.6944444444444444,1.2895675004613552,5.062916268223531,-27.23740500276813
1588960160.1336136,0.72075759800323,-0.8584848039935399,-9.361767728674202,-0.54,0.15555555555555556,0.6944444444444444,1.365530024959624,8.467488254294523,-27.79261488768169
1588960160.1436136,0.747149568974558,-0.8057008620508841,-9.423348994273969,-0.54,0.15555555555555556,0.6944444444444444,1.0356303878180255,9.512170438576252,-29.277163254818884
1588960160.1536136,0.8021927742369587,-0.9270121301609255,-9.402722837971702,-0.54,0.15555555555555556,0.6944444444444444,1.5899096779619835,7.076806440760331,-32.61069355923967
1588960160.1636136,0.8101111254684068,-1.1293888099237626,-9.26983331179739,-0.54,0.15543208281288137,0.6944444444444444,1.6892363354438558,5.124652732911229,-34.57534888228453
1588960160.1736135,0.83,-1.0357213299520993,-9.260213138509842,-0.54,0.13333333333333333,0.6944444444444444,1.9578892947711628,5.413422543573643,-37.324180855774266
1588960160.1836135,0.8311214707813526,-1.1101864740643468,-9.340093237032173,-0.54,0.13333333333333333,0.6944444444444444,1.8475459619172685,6.81424819435325,-39.08527577150361
1588960160.1936135,0.8371846182917612,-1.2474769463340891,-9.405923091458806,-0.54,0.13333333333333333,0.6944444444444444,2.0898077286470143,8.611634306500378,-41.22509566326531
1588960160.2036135,0.8317069243156199,-1.1951207729468598,-9.37085346215781,-0.54,0.13333333333333333,0.6944444444444444,2.0053341384863126,9.337661030595813,-42.56018518518518
1588960160.2136135,0.8499612656134395,-1.2498837968403185,-9.37998063280672,-0.54,0.13333333333333333,0.6944444444444444,2.0623789550419986,8.93834731470601,-43.872215965965964
1588960160.2236135,0.8864748687335237,-1.3229497374670474,-9.389118717183381,-0.5643165791556823,0.12117504375549212,0.7015367800315184,1.9485160352077386,8.13961224645417,-45.014839647922614
1588960160.2336135,0.8802613388153668,-1.3105226776307337,-9.428954644738532,-0.5666666666666667,0.12,0.7022222222222222,2.120099897211872,7.697300205576256,-46.464065912887065
1588960160.2436135,0.98,-1.3430799203204693,-9.499424950200293,-0.5666666666666667,0.12,0.7022222222222222,2.2896564367489,8.3569079307401,-47.688657432743035
1588960160.2536135,0.98,-1.2825082592121984,-9.443696315120713,-0.5666666666666667,0.12,0.7022222222222222,2.4296616899618804,9.852104510800508,-48.726898030495555
1588960160.2636135,0.9802024100922613,-1.3008096403690455,-9.329595179815477,-0.5668016067281743,0.11986505993849243,0.7027844724785037,2.3775301261532666,11.0037951892299,-49.46280126153267
1588960160.2736135,0.9974133997096039,-1.290577335269308,-9.302586600290397,-0.5733333333333334,0.11333333333333333,0.73,2.484555417271659,11.079387920901612,-50.872834992740096
1588960160.2836134,1.0286724008975319,-1.164282722513089,-9.309486163051607,-0.5733333333333334,0.11333333333333333,0.73,2.470021503365744,10.695797494390426,-51.55674551234106
1588960160.2936134,1.0678861256544503,-1.2740811518324608,-9.442812827225131,-0.5733333333333334,0.11333333333333333,0.73,2.6170729712041885,10.450711714659686,-52.09593422774869
1588960160.3036134,1.0805236816406252,-1.3547298177083333,-9.458944295247397,-0.5733333333333334,0.11333333333333333,0.73,2.592113494873047,10.930953979492188,-52.3125
1588960160.3136134,1.0305452755905513,-1.2209087926509186,-9.399636482939632,-0.5738180227471567,0.11323235637212015,0.73,2.748864009186352,11.574995898950132,-52.30000410104987
1588960160.3236134,1.0711926605504587,-1.2588073394495414,-9.377201834862385,-0.6,0.10777777777777778,0.73,2.6525229357798166,12.284977064220184,-51.397649082568805
1588960160.3336134,1.1139288424247535,-1.2392858949498355,-9.39089326363713,-0.6,0.10777777777777778,0.73,2.591518421718236,12.418527632577355,-50.696426313127056
1588960160.3436134,1.1613230141588673,-1.2686769858411326,-9.453384929205665,-0.6,0.10777777777777778,0.73,2.6792311615070794,12.579037676985841,-50.23808045356372
1588960160.3536134,1.1723563429036856,-1.2647126858073712,-9.399396456933415,-0.6,0.10777777777777778,0.73,2.639727143148035,12.731681429444105,-49.7058185705559
1588960160.3636134,1.1894375890857258,-1.2988751781714518,-9.322530849114234,-0.6,0.10777777777777778,0.73,2.746484931785787,13.05195479535736,-49.38554520464264
1588960160.3736134,1.326586378283904,-1.5507329728548802,-9.364513080998416,-0.6055555555555555,0.07555555555555556,0.7088888888888889,2.5754581080343,14.375785132994702,-48.4847513517942
1588960160.3836133,1.3941121882113239,-1.6485048469509573,-9.444673129267944,-0.6055555555555555,0.07555555555555556,0.7088888888888889,2.650701176320774,16.26227058561355,-48.033292942075356
1588960160.3936133,1.4074649411839613,-1.7085922353278258,-9.524789647103766,-0.6055555555555555,0.07555555555555556,0.7088888888888889,2.734155882399758,17.722727941995764,-47.53256470560145
1588960160.4036133,1.44,-1.388624227539217,-9.387125257486929,-0.6055555555555555,0.07555555555555556,0.7088888888888889,2.892967140706703,18.569558607986057,-47.241401422120106
1588960160.4136133,1.44,-1.4384693392489303,-9.370510220250356,-0.6055555555555555,0.07555555555555556,0.7088888888888889,2.996811123435272,16.80421090160038,-47.552933370305816
1588960160.4236133,1.5135518083164092,-1.5617759041582047,-9.369344575050773,-0.6055555555555555,0.06333333333333334,0.7111111111111111,2.9818976039551153,13.343418569347858,-48.095798202966336
1588960160.4336133,1.5365305882698463,-1.5814285294722312,-9.32979588240477,-0.6055555555555555,0.06333333333333334,0.7111111111111111,3.1806973038855766,11.630952817997592,-48.27040808834327
1588960160.4436133,1.656614862572107,-1.7888198167628098,-9.488975229046488,-0.6055555555555555,0.06333333333333334,0.7111111111111111,3.1314048184594503,9.259318798778418,-48.66634289107567
1588960160.4536133,1.6847580452920143,-1.811673420738975,-9.45,-0.6055555555555555,0.06333333333333334,0.7111111111111111,3.3452622169249104,8.142893325387366,-48.76789332538737
1588960160.4636133,1.7114202622169248,-1.7650145411203815,-9.45,-0.6055555555555555,0.06333333333333334,0.7111111111111111,3.1786233611442194,7.892935041716329,-48.51793504171633
1588960160.4736133,1.7738539099260586,-1.772890432444544,-9.39385390992606,-0.6088888888888889,0.042222222222222223,0.7466666666666667,3.125,7.6430652027784,-47.841880461572934
1588960160.4836133,1.8275564162478795,-1.8131673121859095,-9.44755641624788,-0.6088888888888889,0.042222222222222223,0.7466666666666667,3.125,7.894795701161935,-47.380374547869785
1588960160.4936132,1.858963213158088,-1.9196321315808795,-9.532742492106616,-0.6088888888888889,0.042222222222222223,0.7466666666666667,3.18102008223805,9.792642631617593,-46.739339342095604
1588960160.5036132,1.875070403544255,-1.9375352017721275,-9.517394394683617,-0.6088888888888889,0.042222222222222223,0.7466666666666667,3.281690022151594,10.988995232591737,-46.21654988924203
1588960160.5136132,1.9800271425451597,-2.0491205191401742,-9.391786104264812,-0.6088888888888889,0.042222222222222223,0.7466666666666667,3.3125,9.323323869840577,-46.00566639628116
1588960160.5236132,1.9976332101445025,-2.0142007391329853,-9.41053284057801,-0.5987112753628856,0.042222222222222223,0.7568442801926699,3.2170848731937194,7.312112590680667,-46.047707563403144
1588960160.5336132,2.001837601650686,-1.9207102110172871,-9.361837601650686,-0.5955555555555555,0.042222222222222223,0.76,3.0589769042706294,5.969207861564337,-45.655792138435665
1588960160.5436132,2.154561233159364,-2.0588887347632343,-9.514561233159364,-0.5955555555555555,0.042222222222222223,0.76,3.0135234425120943,6.378289017391154,-45.246710982608846
1588960160.5536132,2.0818699282147315,-1.9290650358926342,-9.447195107677903,-0.5955555555555555,0.042222222222222223,0.76,3.1425305770131087,10.20096583372347,-44.78506115402622
1588960160.5636132,2.0982334581772784,-1.9208832709113608,-9.422649812734083,-0.5955555555555555,0.042222222222222223,0.76,3.295938670411985,10.865734238451935,-45.09187734082397
1588960160.5736132,2.1610656022214507,-1.99,-9.426454934629179,-0.5933333333333334,0.015555555555555557,0.78,3.238473331019322,8.253969975702882,-45.465419993057964
1588960160.5836132,2.260219193885644,-1.9678301728074603,-9.483479462590429,-0.5933333333333334,0.015555555555555557,0.78,3.1372260076429446,7.152157389381594,-45.14945201528589
1588960160.5936131,2.1138076003069006,-1.65,-9.388623911179312,-0.5933333333333334,0.015555555555555557,0.78,3.329701110258609,8.600910547456786,-45.5
1588960160.6036131,2.0303837500530624,-1.6510553126459226,-9.370191875026531,-0.5933333333333334,0.015555555555555557,0.78,3.5619003905420894,10.808302733794626,-45.495802733794626
1588960160.6136131,2.0541236150613402,-1.7163399414186866,-9.38206180753067,-0.5933333333333334,0.015555555555555557,0.78,3.5248068514666553,10.548647960266587,-45.236147960266585
1588960160.623613,2.152558830520561,-1.837054908485857,-9.395503922034704,-0.5725407389800069,0.014332461770065764,0.8044618757097959,3.4312009745661993,9.51501218207749,-44.30571072022819
1588960160.633613,2.2256595815528053,-1.9396170708696376,-9.416978744658415,-0.5555555555555556,0.013333333333333334,0.8244444444444444,3.2335104611798657,7.998935151784227,-43.0507970753094
1588960160.643613,2.1624616259238203,-1.6773337123365548,-9.414991472427516,-0.5555555555555556,0.013333333333333334,0.8244444444444444,3.125,6.390065378055714,-41.249253837407615
1588960160.653613,2.311872137686512,-1.7452616708524156,-9.456273267838677,-0.5555555555555556,0.013333333333333334,0.8244444444444444,3.0836845822868963,4.657775797754469,-39.7382991394593
1588960160.663613,2.5171962545385056,-2.028332123065163,-9.407879227976304,-0.5555555555555556,0.013333333333333334,0.8244444444444444,3.0061556468564876,4.444599178291611,-38.62405646856487
1588960160.673613,2.5065011839146787,-2.0656658773902143,-9.4,-0.524223800775127,-0.01451711536038098,0.8522948931381588,3.0979117336888393,7.388396143820762,-37.877117864178125
1588960160.683613,2.4263173060814207,-1.9208520690232869,-9.37364349137209,-0.5155555555555555,-0.022222222222222227,0.86,3.4375,11.698763402579997,-36.10779862623555
1588960160.693613,2.243620371921595,-1.6959943039035013,-9.401750712012062,-0.5155555555555555,-0.022222222222222227,0.86,3.4375,11.303505612330374,-35.49295317473614
1588960160.703613,2.3983291666666666,-1.9628392857142858,-9.476897023809524,-0.5155555555555555,-0.022222222222222227,0.86,2.994032738095238,6.31383556547619,-33.94331101190476
1588960160.713613,2.340075,-1.7131785714285714,-9.368710714285713,-0.5155555555555555,-0.022222222222222227,0.86,2.7859821428571427,4.181316964285714,-31.966830357142857
1588960160.723613,2.499614538342433,-1.9903830168690406,-9.397115149539566,-0.45692336946187484,-0.06933737176178706,0.8579059933537971,2.5733181892266317,3.6358181892266317,-28.915878901475022
1588960160.733613,2.374587132563923,-1.7814907862016196,-9.349220174711471,-0.4533333333333333,-0.07222222222222223,0.8577777777777778,2.615395651342218,5.68793040234649,-25.629156570809158
1588960160.743613,2.085376943699732,-1.2522048257372653,-9.278458981233243,-0.4533333333333333,-0.07222222222222223,0.8577777777777778,2.618391420911528,8.244725201072386,-21.054765415549596
1588960160.753613,2.300980665570563,-1.440722595683573,-9.349741930113009,-0.4533333333333333,-0.07222222222222223,0.8577777777777778,2.5602418884888345,4.482580282628151,-18.865644966596598
1588960160.763613,2.466835730192096,-1.56293159066786,-9.306095860475764,-0.4533333333333333,-0.07222222222222223,0.8577777777777778,2.178338779162938,1.5364705821140916,-17.283474942246457
1588960160.773613,2.4386312913357675,-1.5391445570848548,-9.378374658461224,-0.4477777777777778,-0.14555555555555555,0.8088888888888889,2.3135693036439315,2.648524680166492,-15.799668356272823
1588960160.783613,2.273226416324402,-1.44,-9.208288675924114,-0.4477777777777778,-0.14555555555555555,0.8088888888888889,2.4417334897972487,5.3368985918247605,-14.189728795879784
1588960160.793613,2.182079666210314,-1.44,-9.454384901232155,-0.4477777777777778,-0.14555555555555555,0.8088888888888889,2.498700208618554,4.824198122433014,-12.537693950061934
1588960160.803613,2.2096749125135755,-1.7268574876312297,-9.311625437432124,-0.4477777777777778,-0.14555555555555555,0.8088888888888889,2.005418124773742,2.7723497646916857,-9.532508748642453
1588960160.813613,2.051447767847666,-1.6595323412656293,-9.327616914683594,-0.4477777777777778,-0.14555555555555555,0.8088888888888889,1.5595771329101833,1.3736785403443224,-5.150824187488059
1588960160.823613,2.1783380041201905,-1.6702279096527533,-9.350227909652753,-0.5077123248970468,-0.2054901026748246,0.7871626155581538,1.2892926077838198,0.8925096508973478,0.5366188916315577
1588960160.833613,2.2412589141730876,-1.6625178283461743,-9.290071313384697,-0.5366666666666666,-0.2344444444444445,0.7766666666666666,0.6411821358179538,-1.107480738218957,9.39191901092994
1588960160.843613,2.392260942963946,-1.8718413119498372,-9.399160737971783,-0.5366666666666666,-0.2344444444444445,0.7766666666666666,0.19012269383817676,-3.650639093211142,13.705271011696611
1588960160.853613,2.6219881979119384,-1.88711832349826,-9.493775155091543,-0.5366666666666666,-0.2344444444444445,0.7766666666666666,-0.26386839915267063,-5.181915758813739,20.13435750491754
1588960160.863613,2.6831789676796913,-1.87,-9.358989387361312,-0.5366666666666666,-0.2344444444444445,0.7766666666666666,-0.6753949589966233,-3.072630246020261,24.006843945972022
1588960160.8736129,2.6793603757327973,-1.8029641330607695,-9.366162254396782,-0.6555555555555556,-0.3388888888888889,0.7477777777777778,-0.75,-1.8909906066800697,24.647523483299825
1588960160.8836129,2.6722743322464564,-1.7250176547110203,-9.323645993478738,-0.6555555555555556,-0.3388888888888889,0.7477777777777778,-0.75,-2.0681416938385904,24.204645765403523
1588960160.8936129,2.8071473208630664,-1.9476227673858886,-9.449049106954355,-0.6555555555555556,-0.3388888888888889,0.7477777777777778,-0.9352713444242706,-3.9940569184647217,22.348256133091247
1588960160.9036129,2.5946252586243297,-1.770521048853608,-9.378208419541442,-0.6555555555555556,-0.3388888888888889,0.7477777777777778,-0.7692384833002576,-3.55130262213402,20.35586179960309
1588960160.9136128,2.501132227312121,-1.7806078989723908,-9.362348025256901,-0.6555555555555556,-0.3388888888888889,0.7477777777777778,-0.6543503157112789,-2.400028630679708,19.8858757892782
1588960160.9236128,2.32,-1.68,-9.27,-0.5966666666666667,-0.3477777777777778,0.64,-1.0,-3.375,19.5625
1588960160.9336128,2.332589895092246,-1.6611151573616303,-9.282589895092247,-0.5966666666666667,-0.3477777777777778,0.64,-1.0393434221632702,-4.22088357651031,19.83790395514289
1588960160.9436128,2.3889927851989428,-1.6683213086649047,-9.425971140795772,-0.5966666666666667,-0.3477777777777778,0.64,-1.276004089577827,-7.512139259947139,21.10191799414244
1588960160.9536128,2.296549090092114,-1.7464537664088327,-9.453002856500946,-0.5966666666666667,-0.3477777777777778,0.64,-1.3823879866482653,-8.897163959944796,23.520972413903777
1588960160.9636128,2.130535198062349,-1.6827408391280567,-9.372740839128056,-0.5966666666666667,-0.3477777777777778,0.64,-1.421707750605516,-5.512041956402844,25.711725525431675
1588960160.9736128,2.1675594908688436,-1.9518649695628114,-9.38648312119535,-0.5812626821619628,-0.2853511037323987,0.6083812949640288,-1.619915605976757,-3.645337576092972,28.974422385168786
1588960160.9836128,2.1858614516531083,-1.9822379840920936,-9.357584354959323,-0.5755555555555556,-0.26222222222222225,0.5966666666666667,-1.9525977815042261,-3.993561490176528,32.6326607786263
1588960160.9936128,2.2315577514351217,-1.9603115502870243,-9.401869301722147,-0.5755555555555556,-0.26222222222222225,0.5966666666666667,-2.223617973234756,-5.023366271526827,35.84453365205182
1588960161.0036128,2.2956896121932977,-1.9595402585378012,-9.444310387806702,-0.5755555555555556,-0.26222222222222225,0.5966666666666667,-2.5057467682774828,-6.697914070011752,39.28340114312169
1588960161.0136127,2.267751175716118,-1.9875545104745616,-9.42530568619068,-0.5755555555555556,-0.26222222222222225,0.5966666666666667,-2.7423578452330055,-7.973252458315519,41.32914707139803
1588960161.0236127,2.2240616998950684,-2.0665552990556137,-9.407814900314795,-0.5818737553923283,-0.22927732307333568,0.5907997668182348,-2.9003856243441763,-8.23441500524659,42.96272560335782
1588960161.0336127,2.214561335295915,-2.050526008831616,-9.39,-0.5911111111111111,-0.1811111111111111,0.5822222222222222,-3.033991654400533,-7.262058419196268,45.97259560640987
1588960161.0436127,2.315458808816633,-2.293647022041582,-9.530611745088844,-0.5911111111111111,-0.1811111111111111,0.5822222222222222,-3.1723529258506593,-6.787867685373352,48.69705851701318
1588960161.0536127,2.2463181042994345,-2.2463181042994345,-9.441213535589265,-0.5911111111111111,-0.1811111111111111,0.5822222222222222,-3.3967047392514136,-7.06380710887712,50.51673435957275
1588960161.0636127,2.166457327875863,-2.152336734070499,-9.405879406194636,-0.5911111111111111,-0.1811111111111111,0.5822222222222222,-3.6140074225670475,-7.610395412059381,51.65091025719347
1588960161.0736127,2.158710972042718,-2.194843888170873,-9.406236990680906,-0.6035850924729232,-0.14438216599021986,0.569055241895865,-3.6875,-9.098879327936874,52.81860502686892
1588960161.0836127,2.1268316775475444,-2.160858075503832,-9.43877888163497,-0.6111111111111112,-0.12222222222222222,0.5611111111111111,-3.912335012773205,-10.8642740562021,54.16687304853818
1588960161.0936127,2.11,-2.1364360709051855,-9.488616425431111,-0.6111111111111112,-0.12222222222222222,0.5611111111111111,-4.040225443157409,-11.129323670527773,55.58608696525003
1588960161.1036127,2.11,-2.154969985766446,-9.517484992883222,-0.6111111111111112,-0.12222222222222222,0.5611111111111111,-4.0625,-11.0625,56.84243687728201
1588960161.1136127,2.123897908018577,-2.180846862027866,-9.499153137972135,-0.6111111111111112,-0.12222222222222222,0.5611111111111111,-4.149361925116107,-11.019069037441946,57.54024058813859
1588960161.1236126,2.1096983016983017,-2.332111888111888,-9.483232767232767,-0.5975766455766456,-0.0959052059052059,0.5851723831723832,-4.018319180819181,-9.308191808191808,57.919180819180816
1588960161.1336126,2.0439632850241543,-2.2799213250517596,-9.431968530020704,-0.5911111111111111,-0.08333333333333333,0.5966666666666667,-3.9375,-8.5,58.0
1588960161.1436126,1.9865603103103102,-2.2119902715215214,-9.46343968968969,-0.5911111111111111,-0.08333333333333333,0.5966666666666667,-3.9375,-8.70362354542042,57.86425096971972
1588960161.1536126,1.8852011595565479,-2.1451083166842952,-9.48006189524817,-0.5911111111111111,-0.08333333333333333,0.5966666666666667,-3.999806577349473,-10.713044031809456,57.15808751518001
1588960161.1636126,1.8346074925642484,-2.183037462821241,-9.47460749256425,-0.5911111111111111,-0.08333333333333333,0.5966666666666667,-4.0625,-11.892989924138622,56.866822761755174
1588960161.1736126,1.8237810616371768,-2.299328407544235,-9.48126035387906,-0.5969375418584052,-0.06294082571780413,0.5966666666666667,-4.117122788255882,-10.204289811394128,57.81566206494264
1588960161.1836126,1.7265150503390179,-2.237137867269365,-9.427676700226012,-0.6044444444444445,-0.03666666666666667,0.5966666666666667,-4.055239688206287,-8.9375,59.24221478837066
1588960161.1936126,1.6620957309184994,-2.1445148771021993,-9.500970245795601,-0.6044444444444445,-0.03666666666666667,0.5966666666666667,-4.142141009055628,-10.690572445019406,59.784282018111256
1588960161.2036126,1.6663368545592834,-2.1191087636271444,-9.50277190906786,-0.6044444444444445,-0.03666666666666667,0.5966666666666667,-4.1875,-12.441228978281078,59.840964886334824
1588960161.2136126,1.6892803217821781,-2.165681930693069,-9.48,-0.6044444444444445,-0.03666666666666667,0.5966666666666667,-4.1875,-13.089487933168316,59.580491955445545
1588960161.2236125,1.6210027073097364,-2.1905013536548683,-9.460250676827433,-0.6088331829272369,-0.018014528114798846,0.6037983667012043,-4.156641682542865,-11.885183746114508,59.06563346034292
1588960161.2336125,1.5076646010844308,-2.0335925639039503,-9.459401239349342,-0.6133333333333333,0.0011111111111111113,0.6111111111111112,-4.0845807513555386,-10.739146010844307,58.73166150271108
1588960161.2436125,1.4461417608430054,-2.020123701893708,-9.513858239156994,-0.6133333333333333,0.0011111111111111113,0.6111111111111112,-4.0625,-10.758295710522297,58.6875
1588960161.2536125,1.4121668825032374,-2.143997409961149,-9.54,-0.6133333333333333,0.0011111111111111113,0.6111111111111112,-4.111456984354765,-11.217698890483357,59.12811285919289
1588960161.2636125,1.317722119641829,-2.013837433240018,-9.47611531359819,-0.6133333333333333,0.0011111111111111113,0.6111111111111112,-4.169364365556813,-11.75614365556813,59.91546548335219
1588960161.2736125,1.2445815377636653,-1.9057269222045814,-9.441145384440915,-0.5907048713490083,0.02964265013482523,0.605208034071722,-4.1875,-12.878302903152642,61.23898559764119
1588960161.2836125,1.266090175766324,-1.9782705272989725,-9.44652254394158,-0.5877777777777777,0.03333333333333333,0.6044444444444445,-4.432095397809289,-13.163063598539527,61.945722594888345
1588960161.2936125,1.2440636160714287,-2.1038515625,-9.515883370535715,-0.5877777777777777,0.03333333333333333,0.6044444444444445,-4.412765066964286,-12.875662667410714,62.47460239955357
1588960161.3036125,1.1931259626069834,-2.11162673269257,-9.538500770085587,-0.5877777777777777,0.03333333333333333,0.6044444444444445,-4.379685093482541,-12.289074532587293,62.65859254674127
1588960161.3136125,1.17,-2.066823800142954,-9.500942800857725,-0.5877777777777777,0.03333333333333333,0.6044444444444445,-4.4176487508934645,-11.801487508934642,62.647797501786926
1588960161.3236125,1.1633200842640803,-2.0566600421320405,-9.457773361421362,-0.5880251820642933,0.03704439763106642,0.6067947851663421,-4.375,-11.347167017767001,62.451168071068004
1588960161.3336124,1.0699020181339574,-2.0242717168762794,-9.468641415618603,-0.59,0.06666666666666668,0.6255555555555555,-4.339198230476748,-11.196603539046505,61.132878765720974
1588960161.3436124,1.0106780788124503,-2.0258643842375097,-9.53105068966257,-0.59,0.06666666666666668,0.6255555555555555,-4.202542795546689,-11.653176416328806,60.33601878070232
1588960161.3536124,0.9685285256835363,-2.1072973075392687,-9.555705705136708,-0.59,0.06666666666666668,0.6255555555555555,-4.125,-12.420608172120431,59.59740985656631
1588960161.3636124,0.9145544493608653,-2.21,-9.5281895280236,-0.59,0.06666666666666668,0.6255555555555555,-4.1022807583579155,-13.653200282694199,58.880746066863324
1588960161.3736124,0.8533726258077149,-2.197529469355786,-9.473372625807714,-0.5904618715053412,0.080060940321563,0.6431066727585232,-4.010539455649109,-15.440927893087919,58.61446054435089
1588960161.3836124,0.8147184106406263,-2.205469315598956,-9.475469315598955,-0.5911111111111111,0.09888888888888887,0.6677777777777778,-3.905663355501305,-16.786529800488257,58.56015342200522
1588960161.3936124,0.7714338263034785,-2.281419112653739,-9.562845582132347,-0.5911111111111111,0.09888888888888887,0.6677777777777778,-3.7321691315173924,-16.955376848638043,58.580330868482605
1588960161.4036124,0.6816839074330809,-2.531779886957449,-9.603168390743308,-0.5911111111111111,0.09888888888888887,0.6677777777777778,-3.5823024421456755,-16.618814652874054,58.94368534712595
1588960161.4136124,0.6560725842035594,-2.660362921017797,-9.612145168407118,-0.5911111111111111,0.09888888888888887,0.6677777777777778,-3.600453651272246,-16.348185394911017,59.32817555890572
1588960161.4236124,0.6456493393299166,-2.5006167416239586,-9.548246696649583,-0.5799494861454908,0.10765873707616203,0.6478463046248842,-3.490462556217969,-16.16030837081198,59.096387668653904
1588960161.4336123,0.6525381152627777,-2.367309423686112,-9.501192827105834,-0.5755555555555556,0.1111111111111111,0.64,-3.39831838980382,-15.576457457253477,58.46732067764584
1588960161.4436123,0.5893238607201707,-2.536138739566169,-9.61957292201302,-0.5755555555555556,0.1111111111111111,0.64,-3.2277580431670225,-14.256116791377401,57.561721683459844
1588960161.4536123,0.5345445081749709,-2.745465901900349,-9.671811557224798,-0.5755555555555556,0.1111111111111111,0.64,-3.0227095282807044,-12.505498458900615,56.54535399359066
1588960161.4636123,0.5528395348297394,-2.7588888373064693,-9.612592558204312,-0.5755555555555556,0.1111111111111111,0.64,-2.9375,-10.768517443884775,55.405863373645
1588960161.4736123,0.5481675282806509,-2.628650350050552,-9.558778352187101,-0.5775205229456388,0.12054295458351084,0.6447159217361998,-2.9375,-9.241564687815952,53.87339997329315
1588960161.4836123,0.47129451339751766,-2.4644120944979315,-9.523117581100413,-0.5811111111111111,0.13777777777777778,0.6533333333333333,-2.8205907087344855,-7.981257008081043,51.779059370529325
1588960161.4936123,0.39695132682793277,-2.6566194731798896,-9.605539824393295,-0.5811111111111111,0.13777777777777778,0.6533333333333333,-2.5329922560963687,-7.220492256096368,49.09571347556564
1588960161.5036123,0.36610076111575895,-2.8672946721896873,-9.708302283347276,-0.5811111111111111,0.13777777777777778,0.6533333333333333,-2.4809351215132533,-7.492538055787948,47.18866437447711
1588960161.5136123,0.38488416749256693,-2.682084985133796,-9.706042492566898,-0.5811111111111111,0.13777777777777778,0.6533333333333333,-2.4069739531714567,-8.1875,44.77027068880079
1588960161.5236123,0.3788130133676921,-2.332314382348204,-9.548813013367692,-0.5913122528229631,0.15661065478427372,0.6737356167570372,-2.1359417780641006,-7.701964889676276,39.69732444838138
1588960161.5336123,0.3297510116362369,-2.3536653178183506,-9.499751011636237,-0.5955555555555555,0.16444444444444445,0.6822222222222222,-2.0625,-6.954961615907375,36.75890264090302
1588960161.5436122,0.3226803599572932,-2.253196400427068,-9.562422339722406,-0.5955555555555555,0.16444444444444445,0.6822222222222222,-1.9436216254003762,-6.251612626468046,34.26708113020489
1588960161.5536122,0.3365016049848943,-1.9459422205438068,-9.531980740181268,-0.5955555555555555,0.16444444444444445,0.6822222222222222,-1.7530949065332326,-5.634284719599698,31.424518504531722
1588960161.5636122,0.32851948271847947,-1.797038965436959,-9.461298706796198,-0.5955555555555555,0.16444444444444445,0.6822222222222222,-1.579870150485745,-4.971103985438229,28.83230549029568
1588960161.5736122,0.2994023791540785,-2.006573829305136,-9.474329368076535,-0.6199675506322031,0.16597019413673492,0.6662018504531722,-1.371264869712991,-4.453353159617321,25.799384755790534
1588960161.5836122,0.2703734991511383,-2.155795168647344,-9.516168667798482,-0.6311111111111111,0.16666666666666666,0.6588888888888889,-1.2716114565648715,-4.538554173740514,23.5064009797705
1588960161.5936122,0.25400431034482757,-2.2399568965517243,-9.583961206896552,-0.6311111111111111,0.16666666666666666,0.6588888888888889,-1.2874730603448277,-4.587526939655173,21.400969827586206
1588960161.6036122,0.26207439678284183,-2.1954792225201074,-9.595851206434316,-0.6311111111111111,0.16666666666666666,0.6588888888888889,-1.2370350201072386,-4.03424514075067,19.066165382037532
1588960161.6136122,0.21978440602871951,-2.2856252225167135,-9.569956881205744,-0.6311111111111111,0.16666666666666666,0.6588888888888889,-0.9678067763756477,-2.7459576130384904,16.806840658253886
1588960161.6236122,0.17,-2.4369953081013453,-9.56,-0.6528742918708511,0.16550078198310916,0.6616092864838563,-0.75,-1.5283156083828588,14.516284798248357
1588960161.6336122,0.17431406350224504,-2.43274374599102,-9.547057809493264,-0.6933333333333334,0.16333333333333333,0.6666666666666666,-0.6691113093329057,-1.242666072001283,11.770761505772931
1588960161.6436121,0.20528290717001754,-2.3531134588674605,-9.599527994717548,-0.6933333333333334,0.16333333333333333,0.6666666666666666,-0.5229954575468476,-1.4044818301873905,8.863804674514448
1588960161.6536121,0.1834632280005668,-2.472236549997638,-9.609552690000472,-0.6933333333333334,0.16333333333333333,0.6666666666666666,-0.3858225875017713,-0.5513172500118085,5.7817474375324736
1588960161.6636121,0.16,-2.5986512415349887,-9.61387603461249,-0.6933333333333334,0.16333333333333333,0.6666666666666666,-0.2826549567343868,-0.24157025959367945,2.736332533860045
1588960161.673612,0.1751270553064275,-2.579576482311908,-9.589576482311909,-0.7790533134030891,0.12355478049050544,0.6330509882079388,-0.1554559043348281,-0.9102204783258595,-0.6377055306427504
1588960161.683612,0.22842811789605708,-2.4421643019518697,-9.529020537743984,-0.8633333333333333,0.08444444444444445,0.6,0.0747432782002038,-0.8260268871991848,-3.9434734361527006
1588960161.693612,0.23281284412454717,-2.460623852918176,-9.571353516653632,-0.8633333333333333,0.08444444444444445,0.6,0.2441399080738601,0.5312385291817616,-6.513658253403342
1588960161.703612,0.1725681865334589,-2.6614393782218038,-9.685148980992356,-0.8633333333333333,0.08444444444444445,0.6,0.36964961138862734,2.5393937822180375,-8.89834261638392
1588960161.713612,0.07460588757282302,-2.921050966472472,-9.649737258381883,-0.8633333333333333,0.08444444444444445,0.6,0.5945710675566187,3.9288540742312588,-12.532506317759173
1588960161.723612,0.12894764935331554,-2.7384849106959557,-9.66210470129337,-0.9029763908848285,0.07189288076826571,0.5670676794634913,0.5419421063436666,3.0620868404845,-14.467114042291112
1588960161.733612,0.21896155784992813,-2.158984522320345,-9.52,-1.2177777777777778,-0.027777777777777776,0.3055555555555556,0.8512980526875898,3.1076447881854334,-17.635577892496407
1588960161.743612,0.262865704772475,-1.9971342952275248,-9.529649278579356,-1.2177777777777778,-0.027777777777777776,0.3055555555555556,0.8929106548279689,4.522669256381798,-20.152427857935628
1588960161.753612,0.2859136937217635,-2.002690450225892,-9.56225891883471,-1.2177777777777778,-0.027777777777777776,0.3055555555555556,1.113578828477956,6.084709456301605,-23.260155398037078
1588960161.763612,0.28247967868413504,-2.067357750788945,-9.56512192789519,-1.2177777777777778,-0.027777777777777776,0.3055555555555556,1.2804879506550635,6.657012049344936,-25.540905613464666
1588960161.773612,0.33794763932798577,-1.9090303869568626,-9.462462832806416,-1.391454782454704,0.16880754346696397,-0.007169603172529515,1.532532725420009,6.10529452878008,-29.36823282731952
1588960161.783612,0.3681700123915737,-1.8273524163568773,-9.421829987608426,-1.58,0.38222222222222224,-0.3466666666666667,1.6023280669144981,5.98304677819083,-33.0351239157373
1588960161.793612,0.36602107738929845,-2.08884933737392,-9.525445746076258,-1.58,0.38222222222222224,-0.3466666666666667,1.8543862228051924,6.4921496901714235,-36.16035324980777
1588960161.803612,0.3687863580230694,-2.2828886728500484,-9.571965895057675,-1.58,0.38222222222222224,-0.3466666666666667,2.070085262355816,7.583437885913976,-39.07691840300586
1588960161.813612,0.3790545619369582,-2.244727190315209,-9.54523635951576,-1.58,0.38222222222222224,-0.3466666666666667,2.0654544939470054,8.782955060529943,-41.384319108953896
1588960161.823612,0.4044801941196861,-2.1579207764787447,-9.50415844704251,-1.4142328175716132,0.5499806020371363,0.0117488629082238,2.1400060662401916,9.94152183846469,-43.598544890177415
1588960161.833612,0.4147696873840626,-2.0941456270868724,-9.498157499072502,-1.21,0.7566666666666667,0.4533333333333333,2.372121092300783,11.248142561459005,-45.82893747681253
1588960161.843612,0.4522724784036987,-1.9308446891349313,-9.530779291884658,-1.21,0.7566666666666667,0.4533333333333333,2.4375,12.259332415744009,-47.59536782151113
1588960161.853612,0.4729400441335274,-1.8329400441335275,-9.497253392178036,-1.21,0.7566666666666667,0.4533333333333333,2.544124724165454,12.278167402225456,-49.46820566693272
1588960161.863612,0.4774362388799497,-1.7546141042001886,-9.445127522240101,-1.21,0.7566666666666667,0.4533333333333333,2.761220616249607,11.435885165251808,-50.90385895799811
1588960161.873612,0.4918820942111237,-1.6889417801740445,-9.416235811577753,-1.1210036994997268,0.6604544499096145,0.5038447471307858,2.903675392546349,10.32057853291714,-52.02059685962921
1588960161.883612,0.47245655975385703,-1.7571959182769994,-9.440347521969144,-0.8811111111111111,0.4011111111111111,0.64,2.843206996923213,9.238990526152689,-52.75
1588960161.893612,0.48703986631654334,-1.8053067557889713,-9.419892575793746,-0.8811111111111111,0.4011111111111111,0.64,2.9375,8.364168059202674,-52.647335282883745
1588960161.903612,0.5324754745607835,-1.7815716970397062,-9.52190565679902,-0.8811111111111111,0.4011111111111111,0.64,2.884823106498164,8.177676893501836,-52.08423346149204
1588960161.913612,0.5902118909253464,-1.7600706303084488,-9.450282521233795,-0.8811111111111111,0.4011111111111111,0.64,2.7508828788556103,8.318680151989271,-51.494702726866336
1588960161.9236119,0.623794043900937,-1.7377506268420357,-9.469132758544847,-0.8522342214206464,0.3678078368695533,0.6473773075851552,2.863143612809572,9.377202195046848,-50.60772335371487
1588960161.9336119,0.6336457327894884,-1.6031771336052558,-9.383177133605257,-0.7288888888888889,0.2255555555555556,0.6788888888888889,2.7926429149671512,10.32649959522994,-49.90071457483576
1588960161.9436119,0.6110286403822001,-1.6567621346073338,-9.440438348068067,-0.7288888888888889,0.2255555555555556,0.6788888888888889,2.6875,10.970594663481666,-48.84654431501958
1588960161.9536119,0.6175397109147556,-1.6743122733541038,-9.48507942182951,-0.7288888888888889,0.2255555555555556,0.6788888888888889,2.6096231932172227,10.604828515245927,-47.26256767454926
1588960161.9636118,0.6036657365534495,-1.6466573655344945,-9.428005580679303,-0.7288888888888889,0.2255555555555556,0.6788888888888889,2.477089146540941,9.923015491195997,-45.487709275473875
1588960161.9736118,0.6369025464419351,-1.701032484519355,-9.398967515480646,-0.7089610767096777,0.20529561317335748,0.6895170553844682,2.4188176760819893,8.820306549885757,-43.27784239544356
1588960161.9836118,0.7042935692581185,-1.6928807077743555,-9.432880707774355,-0.6622222222222223,0.15777777777777774,0.7144444444444444,2.2944955764102777,7.248969034871943,-40.14942922256444
1588960161.9936118,0.7136065202626216,-1.677541317636405,-9.468032601313109,-0.6622222222222223,0.15777777777777774,0.7144444444444444,2.0747962417930723,5.981562712248132,-37.37808467285488
1588960162.0036118,0.7448488949030221,-1.6231061118628778,-9.487575552548488,-0.6622222222222223,0.15777777777777774,0.7144444444444444,1.836173601714028,4.732475614569237,-34.645819237708615
1588960162.0136118,0.8054708022872986,-1.6309118003812164,-9.455440998093918,-0.6622222222222223,0.15777777777777774,0.7144444444444444,1.7386024952347947,4.022795009530411,-32.573338676139315
1588960162.0236118,0.8490781493675272,-1.6381796915612545,-9.419101542193728,-0.6622222222222223,0.15777777777777774,0.7144444444444444,1.647753855484318,4.204492289031363,-31.16518476000693
1588960162.0336118,0.8256103826858292,-1.5359925837958364,-9.408397033518336,-0.6133333333333333,0.11,0.6933333333333334,1.6049629189791814,5.345176134848889,-28.937268243619883
1588960162.0436118,0.8862725432175673,-1.4825450864351346,-9.399939884753154,-0.6133333333333333,0.11,0.6933333333333334,1.375,6.515155349634013,-27.414579115402585
1588960162.0536118,0.86,-1.436550390045163,-9.450348829864511,-0.6133333333333333,0.11,0.6933333333333334,1.3886466459274232,7.158026521491962,-26.607800311088653
1588960162.0636117,0.86,-1.4564204276284622,-9.390738717114614,-0.6133333333333333,0.11,0.6933333333333334,1.4300425575592963,7.447797902915075,-25.986861636610556
1588960162.0736117,0.8614892141909157,-1.5514892141909158,-9.407021571618168,-0.6133333333333333,0.10619423040099307,0.6951534840111193,1.3470772339203296,5.9175799278965195,-24.22342546005586
1588960162.0836117,0.8697975556127805,-1.5597975556127806,-9.39040488877444,-0.6133333333333333,0.08496180232289419,0.7053081235267318,1.1912958322603648,4.411693045183528,-23.029101380662798
1588960162.0936117,0.8328372419502889,-1.3691906193193066,-9.418241932290636,-0.6133333333333333,0.08444444444444445,0.7055555555555556,1.1233137902485557,0.6655792732312233,-20.201044797609836
1588960162.1036117,0.8690523964702866,-1.2811845044121417,-9.498341693823003,-0.6133333333333333,0.08444444444444445,0.7055555555555556,0.9315774779392919,-1.7648063051517704,-18.181890996301856
1588960162.1136117,0.8555019778679085,-1.4014055380301438,-9.43,-0.6133333333333333,0.08444444444444445,0.7055555555555556,0.6715612638325572,-1.7055730809674028,-14.418675829953433
1588960162.1236117,0.9255084873065946,-1.597423764458465,-9.43,-0.6133333333333333,0.08444444444444445,0.7055555555555556,0.6278071954333784,0.13209779179810743,-11.793431726002705
1588960162.1336117,0.8641573489245477,-1.566134986343462,-9.386337060430181,-0.6,0.048888888888888885,0.6822222222222222,0.3155900584670536,4.031599415329464,-6.848317738562649
1588960162.1436117,0.8514822027480256,-1.4338883479389808,-9.418796927404523,-0.6,0.048888888888888885,0.6822222222222222,0.1875,4.859359785783837,-3.845464135021097
1588960162.1536117,0.9002760736196319,-1.4321370143149283,-9.463517382413087,-0.6,0.048888888888888885,0.6822222222222222,0.1267254601226994,3.3008691206543967,-1.5357873210633946
1588960162.1636117,0.8960670268445045,-1.52,-9.470657605942934,-0.6,0.048888888888888885,0.6822222222222222,-0.014345559682593281,2.409816604761101,0.050249029208171536
1588960162.1736116,0.952330767416429,-1.526992302249287,-9.517857709543923,-0.5994820516852379,0.04850042765281738,0.6839055542451987,-0.0625,1.6365144627656152,1.9205767416429016
1588960162.1836116,0.96881807410108,-1.5789869206580687,-9.350506539670965,-0.5955555555555555,0.045555555555555564,0.6966666666666667,-0.06988703686824956,1.2405023811693934,3.7107164015859273
1588960162.1936116,0.9019172401221347,-1.5216433486761154,-9.379178325661943,-0.5955555555555555,0.045555555555555564,0.6966666666666667,-0.4880172492366586,0.7029063938385818,5.024839926172356
1588960162.2036116,0.9183390054678302,-1.5267460765496217,-9.511763092953112,-0.5955555555555555,0.045555555555555564,0.6966666666666667,-0.5728812158260617,-0.8326243165212341,7.061436474781852
1588960162.2136116,0.911573896353167,-1.4320345489443378,-9.396756238003839,-0.5955555555555555,0.045555555555555564,0.6966666666666667,-0.6151631477927063,-1.6782629558541267,8.32989443378119
1588960162.2236116,0.9877987139225363,-1.4766846119336026,-9.416657694033198,-0.5927084060282803,0.04382250801721417,0.6956763537876144,-0.743036862569164,-3.1876682368775233,10.278020786600868
1588960162.2336116,1.0471333161483842,-1.5099332130386895,-9.407200103109695,-0.57,0.03,0.6877777777777778,-0.7412503222177957,-3.5799993555644085,11.035833548145197
1588960162.2436116,1.0207626055690275,-1.4657712183292917,-9.453847478886194,-0.57,0.03,0.6877777777777778,-0.8389298854419266,-3.132149427209633,10.980719541767707
1588960162.2536116,0.950617944644201,-1.4868146166067397,-9.46787641107116,-0.57,0.03,0.6877777777777778,-0.7074086462078769,-2.4745432310393847,10.454634584831508
1588960162.2636116,0.9431838393258614,-1.5877131247189702,-9.375919196629306,-0.57,0.03,0.6877777777777778,-0.6548484936799507,-1.9971969873599014,9.575252510533415
1588960162.2736115,0.9571538961147101,-1.489922727197029,-9.445769480573551,-0.57,0.03,0.6877777777777778,-0.7858177760754076,-2.2591355521508154,9.356970373207654
1588960162.2836115,1.0517669305533783,-1.4848195250039191,-9.410360949992162,-0.5633333333333334,0.04,0.6522222222222223,-0.6772086631917228,-3.3014566840413857,8.066259895751685
1588960162.2936115,1.010672127292679,-1.5587901708731777,-9.262419658253645,-0.5633333333333334,0.04,0.6522222222222223,-0.6258401591158489,-3.5582992044207558,6.525204773475466
1588960162.3036115,1.0760677328316086,-1.6360677328316087,-9.501254311696457,-0.5633333333333334,0.04,0.6522222222222223,-0.2790255566008153,-3.228813891502038,2.7546644716211977
1588960162.3136115,-1.9461093963578642,-5.62126636976939,-10.567916133868335,-0.5633333333333334,0.04,0.6522222222222223,0.1312488976586269,-2.681251102341373,-0.23699788350456374
1588960162.3236115,-9.25991014177631,-23.18774422577711,-15.893695502651372,-0.5641968597694009,0.040719605363389616,0.6512147747134768,7.9162127532116,-19.539172916065763,36.840856648399196
1588960162.3336115,20.155957198329975,-34.62464424396368,-21.384142652769263,-0.57,0.045555555555555564,0.6444444444444445,55.7717475402178,-127.50437760941287,314.57857617295844
1588960162.3436115,-0.8222360150848522,3.480794573643411,-11.73247485857951,-0.57,0.045555555555555564,0.6444444444444445,100.39287725225225,65.4276463963964,402.0036762780222
1588960162.3536115,0.16,3.75,-16.6,-0.57,0.045555555555555564,0.6444444444444445,98.4375,155.375,246.4375
1588960162.3636115,1.3838313219586627,2.0073093157362822,-9.787150981907537,-0.57,0.045555555555555564,0.6444444444444445,24.168704050492437,131.8289365475695,235.01695425361154
1588960162.3736115,0.44817020399752727,0.5203008448382443,-4.232384092314033,-0.57,0.045555555555555564,0.6444444444444445,-93.80342056459921,67.14421491860705,186.22943282505668
1588960162.3836114,1.728366893143916,1.1606489602635373,-9.133644842495368,-0.5066666666666667,0.14333333333333334,0.6311111111111111,-137.9319345789582,-90.0181722256537,96.55504040560017
1588960162.3936114,3.4315192341783374,0.4006949122496011,-27.491198369083495,-0.5066666666666667,0.14333333333333334,0.6311111111111111,-88.2007844353838,-273.64035631980147,36.4845439638362
1588960162.4036114,2.383130118773267,-3.6515892572238973,-8.947351178868995,-0.5066666666666667,0.14333333333333334,0.6311111111111111,-26.1153297287715,-324.52626418188265,-19.838488299946818
1588960162.4136114,-1.9441145018257695,0.556171752738654,-10.786865871152843,-0.5066666666666667,0.14333333333333334,0.6311111111111111,68.17318930946792,-85.98926749152321,-64.7062834181012
1588960162.4236114,-1.2603801512780386,-0.4694297730829422,-8.48268110980699,-0.5066666666666667,0.14333333333333334,0.6311111111111111,34.200138766627546,-30.649518494066243,-71.97096089267083
1588960162.4336114,-2.206147596065734,-4.107581811147087,-10.429253670556133,-0.4388888888888889,0.15444444444444444,0.7022222222222222,-35.909631009835664,40.76411204105321,-64.61341687539455
1588960162.4436114,-2.462381941474739,-3.3815844991549064,-8.439166921212863,-0.4388888888888889,0.15444444444444444,0.7022222222222222,-35.269045146313154,152.06590582808968,-40.164389750952
1588960162.4536114,-1.024064704760694,-1.915982330134113,-9.37554757516049,-0.4388888888888889,0.15444444444444444,0.7022222222222222,-4.212304550943876,174.541787167101,-18.229652640945783
1588960162.4636114,0.825712255406797,-3.357259938208033,-7.644491452111225,-0.4388888888888889,0.15444444444444444,0.7022222222222222,8.347994335736354,100.20944258496395,-9.232667353244079
1588960162.4736114,0.7964425776310996,-4.816521012365257,-10.243312045946467,-0.43916557729535893,0.15438910676315043,0.7020641145613822,5.510472697854832,38.60330186657523,-16.00217784968819
1588960162.4836113,0.34701797998414163,-1.8503186678953347,-9.398393802370187,-0.4741208237790112,0.14739805746641998,0.6820896879992953,-1.0623620427319285,4.278498221288821,-32.06910721556694
1588960162.4936113,0.29604951140065144,-2.709504885993485,-9.585625127966496,-0.4777777777777778,0.14666666666666667,0.68,2.7397545369939507,-8.490417636109818,-23.684990693345743
1588960162.5036113,0.24140065146579803,-3.2559934853420196,-9.999395067473243,-0.4777777777777778,0.14666666666666667,0.68,0.2512796649604465,-5.270038389948813,-12.657631456491393
1588960162.5136113,0.603847774406154,-2.137458783509538,-9.571923887203077,-0.4777777777777778,0.14666666666666667,0.68,0.43126316705000095,0.27983605210769436,-2.73321865517308
1588960162.5236113,0.5227812675158005,-2.275271845223139,-9.5313906337579,-0.4777777777777778,0.14666666666666667,0.68,-0.22740220143412126,-1.138827818473492,-0.4532231488818881
1588960162.5336113,0.4771676954528313,-2.2914161522735843,-9.548670781811326,-0.5022222222222222,0.14888888888888888,0.6755555555555556,0.16094714487029355,0.2864904829009785,-0.11614904829009785
1588960162.5436113,0.4605180318758312,-2.299740984062084,-9.482072127503326,-0.5022222222222222,0.14888888888888888,0.6755555555555556,0.00485654883591688,-0.23381150388027705,-0.06411884961197228
1588960162.5536113,0.464975074775673,-2.311293619142572,-9.660099700897307,-0.5022222222222222,0.14888888888888888,0.6755555555555556,0.046952891326021935,-0.07835867397806581,-0.13277355433698904
1588960162.5636113,0.49745103541163926,-2.25,-9.531470340647623,-0.5022222222222222,0.14888888888888888,0.6755555555555556,-0.08639654301588193,0.18627588529098155,-0.20343102867725463
1588960162.5736113,0.4817587967899433,-2.25,-9.602085414445254,-0.5022222222222222,0.14888888888888888,0.6755555555555556,-0.23351128009428138,-0.20603008025141706,-0.30150752006285425
1588960162.5836112,0.5090874524714829,-2.272737642585551,-9.484562737642586,-0.5022222222222222,0.13666666666666666,0.6533333333333333,0.0625,-0.06535171102661597,-0.20175855513307986
1588960162.5936112,0.49425218852241576,-2.317243434432753,-9.558739057387921,-0.5022222222222222,0.13666666666666666,0.6533333333333333,0.0625,-0.1117119108674507,-0.4335595543372535
1588960162.6036112,0.5146210606165093,-2.2686552651541274,-9.55017102268809,-0.5022222222222222,0.13666666666666666,0.6533333333333333,0.0997862216398869,0.0036678504930694397,-0.8592597062271567
1588960162.6136112,0.48081953120522664,-2.259180468794773,-9.668526563126827,-0.5022222222222222,0.13666666666666666,0.6533333333333333,-0.05225585993466674,-0.3698779299673334,-1.521523439738667
1588960162.6236112,0.48883202475786575,-2.2511679752421343,-9.556351653389878,-0.5022222222222222,0.13666666666666666,0.6533333333333333,0.047900309473322245,-0.3197998452633389,-1.120898762106711
1588960162.6336112,0.46825866218976925,-2.278988450413641,-9.532752887396589,-0.5022222222222222,0.14552424873750142,0.6638013848715926,0.01720554622868585,-0.35779445377131414,-0.7454388236008009
1588960162.6436112,0.49832180263284326,-2.2816781973671567,-9.494264677620832,-0.5022222222222222,0.14888888888888888,0.6677777777777778,0.22377816613817622,-0.35926689968290576,-0.41127816613817625
1588960162.6536112,0.4780874412998167,-2.296174882599633,-9.642349765199267,-0.5022222222222222,0.14888888888888888,0.6677777777777778,-0.044569762185781375,-0.17554650812385425,-0.13097674593807287
1588960162.6636112,0.46334517966943084,-2.26223011977962,-9.56665482033057,-0.5022222222222222,0.14888888888888888,0.6677777777777778,0.09015437844342905,-0.04159262706605743,-0.1944691243113142
1588960162.6736112,0.48700569752355166,-2.2780037983490344,-9.542994302476448,-0.5022222222222222,0.14888888888888888,0.6677777777777778,-0.15630934920366296,0.10628560952219779,-0.2437618698407326
1588960162.6836112,0.48,-2.2695307253529675,-9.510469274647033,-0.4888888888888889,0.15555555555555556,0.6677777777777778,0.059567033456045956,-0.1728351672802298,-0.06543296654395404
1588960162.6936111,0.48,-2.2610467656458595,-9.51895323435414,-0.4888888888888889,0.15555555555555556,0.6677777777777778,0.006542285286621631,0.09228857356689185,-0.11845771471337838
1588960162.7036111,0.48916085309946183,-2.2874825592983856,-9.62076938409408,-0.4888888888888889,0.15555555555555556,0.6677777777777778,0.1717659956149093,-0.046765995614909295,-0.125
1588960162.7136111,0.48177329921091916,-2.281773299210919,-9.580639795265515,-0.4888888888888889,0.15555555555555556,0.6677777777777778,0.08466624013648966,0.2974181595222862,-0.07358312006824483
1588960162.723611,0.4870408911036201,-2.2659182177927595,-9.55591821779276,-0.4888888888888889,0.15555555555555556,0.6677777777777778,0.018494430602374316,0.11096658361424594,-0.10650556939762568
1588960162.733611,0.48,-2.2302943823534225,-9.49033643697534,-0.4888888888888889,0.14888888888888888,0.6888888888888889,-0.1861857930650783,0.1236857930650783,-0.00026284138698433996
1588960162.743611,0.48,-2.278338269705945,-9.545243736806794,-0.4888888888888889,0.14888888888888888,0.6888888888888889,0.02829584690153983,-0.09079584690153983,-0.04315916938030796
1588960162.753611,0.48942505217498056,-2.2717248434750585,-9.617125260874902,-0.4888888888888889,0.14888888888888888,0.6888888888888889,0.06609342390637149,0.04812630437451407,-0.12140657609362851
1588960162.763611,0.49700198635460746,-2.27,-9.584990068226963,-0.4888888888888889,0.14888888888888888,0.6888888888888889,0.1500248294325935,-0.15631207358148375,-0.08123758528370326
1588960162.773611,0.4643112207867615,-2.2557244883147045,-9.512897953258818,-0.4888888888888889,0.14888888888888888,0.6888888888888889,0.009056103933807513,-0.07155610393380751,-0.0625
1588960162.783611,0.47766040907817314,-2.277660409078173,-9.538405715886803,-0.49349895706858443,0.14888888888888888,0.6742903396531864,-0.10571938918464556,-0.04321938918464556,-0.14893877836929112
1588960162.793611,0.48984100216815224,-2.279841002168152,-9.50206697181402,-0.4955555555555556,0.14888888888888888,0.6677777777777778,0.0625,0.24701879065285473,-0.06448747289809684
1588960162.803611,0.4826236363010634,-2.2726236363010632,-9.595892728086175,-0.4955555555555556,0.14888888888888888,0.6677777777777778,0.0625,0.11169318064493924,-0.15470454623670715
1588960162.813611,0.48026849427588686,-2.2608054828276605,-9.540268494275885,-0.4955555555555556,0.14888888888888888,0.6677777777777778,0.06082191077570717,0.12835617844858566,0.0
1588960162.823611,0.4874459674521279,-2.282337902356384,-9.547445967452129,-0.4955555555555556,0.14888888888888888,0.6677777777777778,0.01596270342420042,0.21807459315159916,0.0
1588960162.833611,0.49,-2.270411803088523,-9.530411803088523,-0.4814085244528223,0.14235948991839661,0.6612483788072855,0.0,0.005147538606539548,0.0
1588960162.843611,0.48130338826298974,-2.2873932234740204,-9.556089835211031,-0.4811111111111111,0.14222222222222222,0.6611111111111111,-0.054353823356314106,0.16306147006894234,-0.10870764671262821
1588960162.853611,0.48,-2.28021571311251,-9.608921434437448,-0.4811111111111111,0.14222222222222222,0.6611111111111111,0.059803586093621686,0.06519641390637831,-0.0026964139063783144
1588960162.863611,0.47098760414549884,-2.289341597236334,-9.617695590327168,-0.4811111111111111,0.14222222222222222,0.6611111111111111,0.122942491363544,0.05838498272708799,-0.0625
1588960162.873611,0.49065668328826223,-2.2762288778078252,-9.57180107232739,-0.4811111111111111,0.14222222222222222,0.6611111111111111,0.08196524314945368,-0.023569513701092643,-0.0625
1588960162.883611,0.4921590342568193,-2.27,-9.518636137027277,-0.48720964002247386,0.1378661301426774,0.6611111111111111,0.013493964105120722,-0.013493964105120722,-0.0625
1588960162.893611,0.4992941328843414,-2.2607058671156586,-9.51929413288434,-0.4888888888888889,0.13666666666666666,0.6611111111111111,0.0,0.0,-0.0625
1588960162.903611,0.4839903659706489,-2.2840144510440266,-9.600048170146755,-0.4888888888888889,0.13666666666666666,0.6611111111111111,0.10006021268344457,0.15009031902516687,-0.0625
1588960162.913611,0.4899161528976572,-2.280083847102343,-9.570419235511714,-0.4888888888888889,0.13666666666666666,0.6611111111111111,0.06302404438964242,0.0015721331689272366,0.061451911220715166
1588960162.923611,0.4822420597981904,-2.2644841195963807,-9.53896823919276,-0.4888888888888889,0.13666666666666666,0.6611111111111111,0.1109871262613099,0.19394850504523958,-0.0829613787839297
1588960162.933611,0.4860147653436865,-2.272029530687373,-9.536014765343685,-0.4808692017639736,0.14000820296871472,0.6778187926213514,0.08740771660195933,0.17481543320391865,-0.125
1588960162.943611,0.48163915227985343,-2.2716391522798536,-9.556721695440293,-0.4755555555555556,0.14222222222222222,0.6888888888888889,0.0625,0.0727447017490839,0.03176589475274827
1588960162.953611,0.49323013052809345,-2.2567698694719067,-9.606305456848327,-0.4755555555555556,0.14222222222222222,0.6888888888888889,0.02115584209970798,0.02115584209970798,-0.061532473700876056
1588960162.963611,0.5,-2.2847216274089934,-9.595278372591006,-0.4755555555555556,0.14222222222222222,0.6888888888888889,0.054252542826552466,0.0,-0.016494914346895068
1588960162.9736109,0.5155187775918721,-2.2822406112040636,-9.566721833612192,-0.4755555555555556,0.14222222222222222,0.6888888888888889,-0.03449235994920073,-0.09699235994920073,0.048496179974600366
1588960162.9836109,0.49358128374325133,-2.253581283743251,-9.524775044991001,-0.4990388588948877,0.14809304805705525,0.6644271145770846,-0.1175389922015597,0.09515596880623875,0.0074610077984403125
1588960162.9936109,0.464293299448617,-2.258568900183794,-9.537137800367589,-0.5022222222222222,0.14888888888888888,0.6611111111111111,0.08922250459485831,0.125,-0.05355562614871458
1588960163.0036108,0.4772814121526599,-2.26864070607633,-9.617766354686971,-0.5022222222222222,0.14888888888888888,0.6611111111111111,0.125,0.125,0.045508825954124435
1588960163.0136108,0.49887195201121814,-2.279435976005609,-9.582820119971954,-0.5022222222222222,0.14888888888888888,0.6611111111111111,0.007050299929886511,0.007050299929886511,-0.05544970007011349
1588960163.0236108,0.48662530266343823,-2.273312651331719,-9.539875907990314,-0.5022222222222222,0.14888888888888888,0.6611111111111111,-0.08359185835351089,0.041795929176755446,0.021091858353510892
1588960163.0336108,0.47420071441608214,-2.264200714416082,-9.531598571167835,-0.4983560318329437,0.15275507927816742,0.6566005556569527,-0.0525089302010273,0.02625446510051365,0.09874553489948634
1588960163.0436108,0.49438361336605624,-2.2681278711220187,-9.507488515511925,-0.4955555555555556,0.15555555555555556,0.6533333333333333,0.050799194512617205,-0.10159838902523441,0.02340161097476559
1588960163.0536108,0.5,-2.261937051971326,-9.588692428315412,-0.4955555555555556,0.15555555555555556,0.6533333333333333,-0.08868027553763441,0.07657370071684588,-0.10078685035842294
1588960163.0636108,0.4827051734884687,-2.26,-9.575410346976938,-0.4955555555555556,0.15555555555555556,0.6533333333333333,0.09118533139414087,0.016907334302929566,-0.07095366715146478
1588960163.0736108,0.487202376284213,-2.274404752568426,-9.541190494863148,-0.4955555555555556,0.15555555555555556,0.6533333333333333,0.07998514822366873,-0.09002970355266253,0.11755940710532506
1588960163.0836108,0.49,-2.28,-9.540100184309933,-0.4921888274522447,0.15218882745224466,0.6606279108905069,0.0625,-0.125,0.09281077209438128
1588960163.0936108,0.4847722702416652,-2.2695445404833303,-9.555227729758336,-0.4888888888888889,0.14888888888888888,0.6677777777777778,0.0625,0.005693243958370092,0.03267331098959252
1588960163.1036108,0.48,-2.2651865371979265,-9.596305760385487,-0.4888888888888889,0.14888888888888888,0.6677777777777778,0.0625,0.09258414251295904,-0.002331714974081925
1588960163.1136107,0.4747327650361951,-2.25946553007239,-9.59839659021717,-0.4888888888888889,0.14888888888888888,0.6677777777777778,0.09542021852378053,0.029579781476219466,-0.0625
1588960163.1236107,0.47,-2.262504529492026,-9.532486411523923,-0.4888888888888889,0.14888888888888888,0.6677777777777778,0.04684669067483839,0.15630661865032322,-0.0625
1588960163.1336107,0.4789107439770757,-2.261089256022924,-9.51,-0.5007698808583232,0.15482938487360606,0.6618372817930606,0.0,0.13861570028655323,-0.0625
1588960163.1436107,0.48638622321545943,-2.2663862232154592,-9.522772446430919,-0.5022222222222222,0.15555555555555556,0.6611111111111111,0.07982779019324307,0.08508610490337846,-0.022586104903378465
1588960163.1536107,0.49,-2.2625794093580303,-9.589364725135757,-0.5022222222222222,0.15555555555555556,0.6611111111111111,-0.014136074536933718,-0.030257383024622483,0.0
1588960163.1636107,0.4816770481669916,-2.26,-9.593354096333982,-0.5022222222222222,0.15555555555555556,0.6611111111111111,0.0415368979126052,-0.010481551043697399,0.0
1588960163.1736107,0.47388234262668766,-2.266117657373312,-9.547176398386814,-0.5022222222222222,0.15555555555555556,0.6611111111111111,0.024264641416798176,-0.038235358583201824,-0.038235358583201824
1588960163.1836107,0.47457743874248726,-2.274577438742487,-9.524577438742487,-0.49255874043252684,0.1591157856886012,0.6611111111111111,-0.02860899214054554,-0.0052820157189089195,-0.11971798428109108
1588960163.1936107,0.48731326159202404,-2.28,-9.559253046368097,-0.4811111111111111,0.16333333333333333,0.6611111111111111,-0.0625,-0.16603942475075167,-0.05037634514954897
1588960163.2036107,0.49,-2.2722722476257475,-9.60091100949701,-0.4811111111111111,0.16333333333333333,0.6611111111111111,-0.11079845233907844,-0.10510464298276467,-0.04829845233907844
1588960163.2136106,0.46620969967634296,-2.2541397997842285,-9.578279599568457,-0.4811111111111111,0.16333333333333333,0.6611111111111111,-0.025873748651428857,-0.0625,-0.0625
1588960163.2236106,0.49314543737457206,-2.25,-9.536854562625427,-0.4811111111111111,0.16333333333333333,0.6611111111111111,0.041431796718215085,0.10322718687286034,-0.10393179671821509
