time,acc_x,acc_y,acc_z,mag_x,mag_y,mag_z,gyr_x,gyr_y,gyr_z
1588960179.739999,0.69,-2.28,-9.55,-0.6,0.03,0.6677777777777778,-0.0625,0.6875,-0.6875
1588960179.749999,0.6815580468561308,-2.2209063279929153,-9.516232187424523,-0.5896820572686042,0.05720184901913426,0.6752817361278838,-0.009737792850817162,0.2654023428065373,-0.10711572135898884
1588960179.759999,0.6875372433571048,-2.2487686216785523,-9.558619648250133,-0.5877777777777777,0.06222222222222223,0.6766666666666666,-0.039411656472857395,-0.25,0.125
1588960179.769999,0.6681851215320403,-2.2436297569359196,-9.62362975693592,-0.5877777777777777,0.06222222222222223,0.6766666666666666,0.09097102872575497,-0.12522710532776823,0.13634299042474834
1588960179.779999,0.6615728961029466,-2.256854207794107,-9.632135519485267,-0.5877777777777777,0.06222222222222223,0.6766666666666666,-0.04283879871316809,0.4375,0.17766939935658405
1588960179.789999,0.6692395993273379,-2.2415208013453243,-9.59380200336331,-0.5877777777777777,0.06222222222222223,0.6766666666666666,0.05299499159172334,0.4375,0.12975250420413834
1588960179.799999,0.683799740681897,-2.2468998703409486,-9.569300388977155,-0.5831778642171455,0.05838896092169526,0.7111660183714092,-0.02374837926185651,0.48062418963092823,0.16812418963092826
1588960179.809999,0.7289713572153281,-2.25,-9.589228517911495,-0.5811111111111111,0.05666666666666665,0.7266666666666667,0.18107098259580115,1.5351766760321548,0.30928549129790056
1588960179.819999,0.7581864577465991,-2.2429533855633506,-9.6040932288733,-0.5811111111111111,0.05666666666666665,0.7266666666666667,0.011334639083755788,1.8267480413743664,0.26845865977093897
1588960179.829999,0.6653513513513514,-2.2685405405405406,-9.58145945945946,-0.5811111111111111,0.05666666666666665,0.7266666666666667,0.056418918918918926,0.03479729729729719,0.19054054054054054
1588960179.839999,0.7108510258379015,-2.2409422709497706,-9.558206703212328,-0.5811111111111111,0.05666666666666665,0.7266666666666667,-0.07370810492295057,-0.24411080656393405,0.051291895077049426
1588960179.849999,0.6694574962246478,-2.2305425037753523,-9.531627511326056,-0.5877777777777777,0.048888888888888885,0.7266666666666667,0.0016953242979756466,-0.23643740561619483,-0.06080467570202435
1588960179.859999,0.6534220939345861,-2.246577906065414,-9.579733718196241,-0.5877777777777777,0.048888888888888885,0.7266666666666667,0.05180595645441859,0.16444765163534875,-0.010694043545581407
1588960179.869999,0.6712846648451433,-2.2325693296902864,-9.641007346083997,-0.5877777777777777,0.048888888888888885,0.7266666666666667,0.15538337887141898,0.21961662112858102,-0.008029155282145253
1588960179.879999,0.6781469544019241,-2.2462939088038483,-9.592971319186532,-0.5877777777777777,0.048888888888888885,0.7266666666666667,-0.016173860048101313,0.3911738600481013,-0.05091846501202533
1588960179.889999,0.68,-2.23276021284383,-9.56276021284383,-0.5877777777777777,0.048888888888888885,0.7266666666666667,0.045248669726062105,0.49137433486303106,0.1529973394521242
1588960179.899999,0.698046772228989,-2.2390233861144946,-9.532929841656516,-0.574743997834619,0.05590707808905128,0.7527342265529842,0.0625,0.3872076735688185,0.018311510353227756
1588960179.909999,0.6972878587726672,-2.2490959529242223,-9.536328329530443,-0.5733333333333334,0.05666666666666665,0.7555555555555555,0.17054911732917016,-0.1875,-0.051199411552780114
1588960179.919999,0.6710143483459546,-2.24,-9.601014348345954,-0.5733333333333334,0.05666666666666665,0.7555555555555555,-0.006339677162216023,-0.16848096851335193,0.05616032283778398
1588960179.9299989,0.68,-2.242168421052632,-9.60457894736842,-0.5733333333333334,0.05666666666666665,0.7555555555555555,-0.0625,0.047434210526315794,0.01355263157894737
1588960179.9399989,0.68,-2.257659833795014,-9.565850415512466,-0.5733333333333334,0.05666666666666665,0.7555555555555555,-0.0625,0.38630886426592803,0.11037396121883658
1588960179.9499989,0.6803715065479088,-2.24,-9.56,-0.5733333333333334,0.06222222222222223,0.7266666666666667,-0.0011609579622146528,0.5023219159244293,0.125
1588960179.9599988,0.6981187720820022,-2.24,-9.56,-0.5733333333333334,0.06222222222222223,0.7266666666666667,-0.056621162756257004,0.613242325512514,0.125
1588960179.9699988,0.71,-2.25,-9.627944342496075,-0.5733333333333334,0.06222222222222223,0.7266666666666667,0.0625,0.4246521406004654,0.22430428120093077
1588960179.9799988,0.71,-2.25,-9.612074575758148,-0.5733333333333334,0.06222222222222223,0.7266666666666667,0.0625,0.32546609848843144,0.025932196976862942
1588960179.9899988,0.7156051777945178,-2.2387896444109643,-9.559553399849339,-0.5733333333333334,0.06222222222222223,0.7266666666666667,-0.007564722431472631,0.27746763878426367,0.0
1588960179.9999988,0.72,-2.2246839675210954,-9.535948097436714,-0.5774680252613703,0.05926887084505297,0.7266666666666667,0.03717560897946187,0.18354959401369209,0.09967560897946187
1588960180.0099988,0.7007724984601006,-2.232818334359933,-9.55,-0.5811111111111111,0.05666666666666665,0.7266666666666667,0.125,-0.2355156538731123,0.1875
1588960180.0199988,0.6641886597938145,-2.2658113402061857,-9.60162268041237,-0.5811111111111111,0.05666666666666665,0.7266666666666667,0.125,-0.3837263745704467,0.07995274914089348
1588960180.0299988,0.6742352499060504,-2.248647125140925,-9.61,-0.5811111111111111,0.05666666666666665,0.7266666666666667,0.08051484404359263,-0.019118752348741108,0.01801484404359264
1588960180.0399988,0.68,-2.2543304244774833,-9.574173938806291,-0.5811111111111111,0.05666666666666665,0.7266666666666667,0.017717423507864684,-0.09891288246067659,-0.044782576492135316
1588960180.0499988,0.687368890139788,-2.26,-9.56,-0.6007614848172124,0.05666666666666665,0.7053787618183903,0.04605556337367483,-0.14144443662632517,-0.016444436626325172
1588960180.0599988,0.7,-2.24,-9.583327192735311,-0.6077777777777778,0.05666666666666665,0.6977777777777778,0.1771025227021521,-0.031307568106456296,-0.05730126135107605
1588960180.0699987,0.7,-2.24,-9.619687913135822,-0.6077777777777778,0.05666666666666665,0.6977777777777778,0.06347527145055373,0.3095741856483388,-0.0004876357252768665
1588960180.0799987,0.7,-2.26,-9.59758661887694,-0.6077777777777778,0.05666666666666665,0.6977777777777778,0.0625,0.24622909199522103,0.007541816009557945
1588960180.0899987,0.7,-2.26,-9.570499531789855,-0.6077777777777778,0.05666666666666665,0.6977777777777778,0.0625,0.20390551842164745,0.0921889631567051
1588960180.0999987,0.6830299626705428,-2.234544944005814,-9.534544944005814,-0.5785516023770458,0.04441052859539199,0.7279467330301461,0.0625,0.028405900036338416,0.018937266690892282
1588960180.1099987,0.6880959192076804,-2.23,-9.54619183841536,-0.5733333333333334,0.042222222222222223,0.7333333333333333,0.11309949504800296,0.1011989900960059,-0.05059949504800295
1588960180.1199987,0.7095311165434571,-2.2397655582717286,-9.647655582717286,-0.5733333333333334,0.042222222222222223,0.7333333333333333,0.0029305216033929243,0.0029305216033929243,0.1206042175949106
1588960180.1299987,0.6944569939183318,-2.232228496959166,-9.587827975673328,-0.5733333333333334,0.042222222222222223,0.7333333333333333,0.1457156820156386,-0.1457156820156386,0.07642810599478714
1588960180.1399987,0.6949133673452755,-2.2349133673452757,-9.565086632654724,-0.5733333333333334,0.042222222222222223,0.7333333333333333,0.09537436227608352,-0.0032487245521670427,0.09320854590797216
1588960180.1499987,0.6915944411822275,-2.24,-9.555797220591113,-0.5733333333333334,0.04502407516147974,0.7333333333333333,0.07880211391661773,0.16123262869446076,0.07246525738892151
1588960180.1599987,0.6719524275587982,-2.24,-9.533904855117596,-0.5733333333333334,0.048888888888888885,0.7333333333333333,0.03660801672746686,0.125,-0.05029732775751104
1588960180.1699986,0.6779261185331301,-2.25585223706626,-9.609261185331302,-0.5733333333333334,0.048888888888888885,0.7333333333333333,0.14861472249618937,-0.0731529633282525,-0.012961759167936876
1588960180.1799986,0.6859861566351101,-2.2480276867297797,-9.60605537345956,-0.5733333333333334,0.048888888888888885,0.7333333333333333,0.11267304206112322,0.06206739484719195,0.07482695793887678
1588960180.1899986,0.7021153264355297,-2.24,-9.559711683911175,-0.5733333333333334,0.048888888888888885,0.7333333333333333,0.0625,0.37680197555515216,0.08713960488896957
1588960180.1999986,0.7155339266915494,-2.2455339266915497,-9.54,-0.5776374985378718,0.045199604427855936,0.7296440488723004,-0.04126112546655182,0.3270647908890803,0.027912958177816055
1588960180.2099986,0.7003574569890582,-2.2369049713260387,-9.553095028673962,-0.5811111111111111,0.042222222222222223,0.7266666666666667,-0.04315607078774232,0.10565607078774232,0.04092196460612884
1588960180.2199986,0.676851366835816,-2.236574316582092,-9.612594532656736,-0.5811111111111111,0.042222222222222223,0.7266666666666667,-0.041089478638074974,-0.019678957276149947,0.0625
1588960180.2299986,0.6601570128500567,-2.2301570128500567,-9.630157012850058,-0.5811111111111111,0.042222222222222223,0.7266666666666667,-0.0625,-0.18553733937429207,0.0625
1588960180.2399986,0.66,-2.2597646258015978,-9.563029591946405,-0.5811111111111111,0.042222222222222223,0.7266666666666667,0.030514455629993192,-0.2340072278149966,-0.0770216834449898
1588960180.2499986,0.6696302228412256,-2.2411093314763235,-9.54,-0.5875312596719282,0.05613254410399256,0.7330868152274836,0.0023111072423398285,-0.37037778551532036,-0.18518889275766018
1588960180.2599986,0.67,-2.2499423610097766,-9.549942361009778,-0.5877777777777777,0.05666666666666665,0.7333333333333333,0.06213975631110463,-0.31286024368889537,0.06105902524441853
1588960180.2699986,0.6606862591839925,-2.2406862591839927,-9.596568704080036,-0.5877777777777777,0.05666666666666665,0.7333333333333333,0.1207108801000469,-0.3707108801000469,-0.1121326403001407
1588960180.2799985,0.69647367927184,-2.25823683963592,-9.57264474054612,-0.5877777777777777,0.05666666666666665,0.7333333333333333,0.06800987613774984,-0.2040296284132495,-0.06800987613774984
1588960180.2899985,0.7,-2.254986213235294,-9.559972426470589,-0.5877777777777777,0.05666666666666665,0.7333333333333333,0.0625,-0.3128446691176471,-0.09383616727941177
1588960180.2999985,0.6967833981841763,-2.25,-9.55,-0.5886712782821731,0.05541576596051303,0.7311889321227842,0.0625,-0.4475518806744488,-0.125
1588960180.3099985,0.68,-2.25,-9.56941644319844,-0.5933333333333334,0.048888888888888885,0.72,0.0625,-0.3786472300097513,-0.04409815333983423
1588960180.3199985,0.6650343756930583,-2.2574828121534707,-9.609931248613883,-0.5933333333333334,0.048888888888888885,0.72,-0.12457030383677092,0.10840818363273452,-0.09353515191838546
1588960180.3299985,0.66,-2.265308703945387,-9.604073888163839,-0.5933333333333334,0.048888888888888885,0.72,-0.05478240136532475,0.3163587993173376,-0.025461801023993577
1588960180.3399985,0.6649554526015681,-2.265044547398432,-9.580089094796865,-0.5933333333333334,0.048888888888888885,0.72,0.0625,0.34402842124019956,0.000556842480399139
1588960180.3499985,0.6873360783579762,-2.251331960821012,-9.535327843284048,-0.5885177560116732,0.04311019610289683,0.72,-0.04585048973735105,0.20414951026264894,0.1000257346060266
1588960180.3599985,0.7047682236029714,-2.25,-9.552152335404458,-0.5877777777777777,0.042222222222222223,0.72,0.0298013975185715,0.04904790372214274,0.0326986024814285
1588960180.3699985,0.7043359939788865,-2.2443359939788867,-9.610976054190022,-0.5877777777777777,0.042222222222222223,0.72,0.13330007526391888,-0.07080007526391888,-0.03540003763195944
1588960180.3799984,0.6849956972350059,-2.255004302764994,-9.604987091705018,-0.5877777777777777,0.042222222222222223,0.72,0.1406115538593931,0.06255378456242752,-0.0625
1588960180.3899984,0.68,-2.239917049466611,-9.543139782088758,-0.5877777777777777,0.042222222222222223,0.72,0.041321039444212435,0.16683948027789378,0.06301844083368133
1588960180.3999984,0.6623723453950915,-2.2476276546049085,-9.528813827302454,-0.5877777777777777,0.042222222222222223,0.7258758848683029,0.055086420640339216,0.02224073807898236,0.06991357935966078
1588960180.4099984,0.66,-2.256346719224768,-9.523653280775232,-0.5877777777777777,0.042222222222222223,0.7266666666666667,-0.016833990309600075,0.15866798061920015,0.022833004845199963
1588960180.4199984,0.6923229008572952,-2.251919274785676,-9.600807252143237,-0.5877777777777777,0.042222222222222223,0.7266666666666667,-0.011995467410476225,0.30050453258952375,0.15151359776857132
1588960180.4299984,0.6910904961147638,-2.2232714883442917,-9.584361984459056,-0.5877777777777777,0.042222222222222223,0.7266666666666667,0.0,0.5909219964136282,0.13181560071727436
1588960180.4399984,0.6968148175155868,-2.226814817515587,-9.55955554745324,-0.5877777777777777,0.042222222222222223,0.7266666666666667,0.0,0.625,0.125
1588960180.4499984,0.7052452094139837,-2.23,-9.555245209413984,-0.5842809715017886,0.04571902849821142,0.7266666666666667,0.0,0.5922174411626013,0.09221744116260128
1588960180.4599984,0.6839219373783365,-2.2430390313108317,-9.573039031310833,-0.5811111111111111,0.048888888888888885,0.7266666666666667,0.04074697284634927,0.2772711900755551,0.14399394569269852
1588960180.4699984,0.6782505058999764,-2.241749494100024,-9.662505058999763,-0.5811111111111111,0.048888888888888885,0.7266666666666667,0.0625,0.07343433812514782,-0.07032830937426082
1588960180.4799984,0.6907839002475474,-2.24,-9.66382414962868,-0.5811111111111111,0.048888888888888885,0.7266666666666667,-0.004899376547171541,0.12989937654717154,-0.09130031172641423
1588960180.4899983,0.6878359133126934,-2.2440546955624354,-9.609453044375645,-0.5811111111111111,0.048888888888888885,0.7266666666666667,0.013525541795665633,0.13681630546955625,-0.011816305469556247
1588960180.4999983,0.6932765944058144,-2.242241135198062,-9.55,-0.5862836876457365,0.048888888888888885,0.7214940901320412,0.02801418997577322,-0.03448581002422678,-0.03448581002422678
1588960180.5099983,0.7,-2.247171101408683,-9.542828898591317,-0.5877777777777777,0.048888888888888885,0.72,0.0,-0.0625,0.02713876760853448
1588960180.5199983,0.7050449822038597,-2.2550449822038594,-9.570269893223157,-0.5877777777777777,0.048888888888888885,0.72,-0.03153113877412316,-0.12556227754824634,0.03096886122587684
1588960180.5299983,0.7044799379724752,-2.2489598759449505,-9.577919751889901,-0.5877777777777777,0.048888888888888885,0.72,0.006500775344058934,-0.3945023260321768,0.03450038767202947
1588960180.5399983,0.6937467588591184,-2.2462532411408818,-9.547493517718236,-0.5877777777777777,0.048888888888888885,0.72,-0.015665514261019878,-0.40616897147796027,0.0625
1588960180.5499983,0.6822877473437957,-2.242287747343796,-9.524575494687591,-0.5920623625867802,0.04374738711808602,0.72,-0.014298420898723074,-0.3125,0.014298420898723074
1588960180.5599983,0.68,-2.245867460157353,-9.549337300786766,-0.5933333333333334,0.042222222222222223,0.72,0.0,-0.3125,0.0
1588960180.5699983,0.6678373266078185,-2.25,-9.630813366960908,-0.5933333333333334,0.042222222222222223,0.72,0.038008354350567465,-0.1984749369482976,0.0
1588960180.5799983,0.6724176356589148,-2.243791182170543,-9.638955910852713,-0.5933333333333334,0.042222222222222223,0.72,0.02369488856589147,-0.16380511143410853,0.0
1588960180.5899982,0.696034566305928,-2.2506897108706188,-9.593275722823453,-0.5933333333333334,0.042222222222222223,0.72,0.03340534647068325,-0.1875,0.0
1588960180.5999982,0.7013338243197516,-2.26,-9.548334560799379,-0.5962220585600828,0.0484811268801794,0.72,0.035418200999223715,-0.24166359800155257,-0.02708179900077629
1588960180.6099982,0.6852440961558827,-2.26,-9.53902361537647,-0.6,0.05666666666666665,0.72,0.029724399025733348,-0.2530512019485333,-0.003051201948533304
1588960180.6199982,0.68,-2.25412276514494,-9.61289511369554,-0.6,0.05666666666666665,0.72,0.0625,-0.11403456431175144,-0.010965435688248565
1588960180.6299982,0.68,-2.2427332045231383,-9.577332045231383,-0.6,0.05666666666666665,0.72,0.0625,-0.15333494346077095,-0.017082528269614525
1588960180.6399982,0.6737484283810918,-2.24,-9.537496856762184,-0.6,0.05666666666666665,0.72,0.10157232261817636,-0.22657232261817636,0.0
1588960180.6499982,0.67,-2.2532047005079194,-9.53,-0.5955984331640269,0.047129938522058254,0.7288031336719462,0.042470621825504165,-0.37379406726174375,0.12379406726174376
1588960180.6599982,0.6823014534650285,-2.2476985465349717,-9.517698546534971,-0.5933333333333334,0.042222222222222223,0.7333333333333333,0.11532612623464225,-0.3990579579217859,0.07217387376535775
1588960180.6699982,0.6832594215340893,-2.2467405784659107,-9.604368098522752,-0.5933333333333334,0.042222222222222223,0.7333333333333333,0.14537138458805768,-0.41712861541194235,0.04212861541194233
1588960180.6799982,0.6740722074238737,-2.2559277925761263,-9.620361037119368,-0.5933333333333334,0.042222222222222223,0.7333333333333333,0.125,-0.3263538891976314,-0.011597407201579063
1588960180.6899981,0.6654195719060584,-2.2554195719060584,-9.595419571906058,-0.5933333333333334,0.042222222222222223,0.7333333333333333,0.039116973238594865,-0.3072553511742701,-0.03387232441286495
1588960180.6999981,0.6533012316310479,-2.25,-9.556506158155239,-0.5977991789126348,0.042222222222222223,0.7244016421747305,0.021234604611901936,-0.2493980930821471,0.04186730230595097
1588960180.7099981,0.6446536987443673,-2.2553463012556327,-9.550692602511266,-0.6,0.042222222222222223,0.72,0.16274314854311328,-0.1875,0.029085617152295573
1588960180.7199981,0.6504656624554584,-2.2547671687722706,-9.591396987366375,-0.6,0.042222222222222223,0.72,0.15188441448007775,-0.15479480482669258,-0.032705195173307416
1588960180.729998,0.6712179070070089,-2.244391046496496,-9.603173139489487,-0.6,0.042222222222222223,0.72,0.027444040603097283,-0.125,-0.027444040603097283
1588960180.739998,0.6845596834797323,-2.2445596834797326,-9.562641899121607,-0.6,0.042222222222222223,0.72,0.028498021748326576,-0.15349802174832658,-0.028498021748326576
1588960180.749998,0.69,-2.2543411523078585,-9.53,-0.5946941471792839,0.048492775555795765,0.7257882030771448,0.0625,-0.3231610096205816,-0.0896322019241163
1588960180.759998,0.69,-2.2543502096098034,-9.53,-0.5877777777777777,0.05666666666666665,0.7333333333333333,0.09781118993872945,-0.5706223798774589,-0.05437762012254112
1588960180.769998,0.6794189700165095,-2.2394189700165095,-9.577614634925705,-0.5877777777777777,0.05666666666666665,0.7333333333333333,0.02580284390477712,-0.5258028439047772,-0.06613143739681525
1588960180.779998,0.67,-2.241450432715522,-9.602824350926717,-0.5877777777777777,0.05666666666666665,0.7333333333333333,-0.02671739776399361,-0.1870217843479553,0.018130408944025567
1588960180.789998,0.6645486135989109,-2.266354159203267,-9.568194454395645,-0.5877777777777777,0.05666666666666665,0.7333333333333333,0.0,0.20442699004083972,0.15907116500680663
1588960180.799998,0.6755887339864356,-2.259215021351419,-9.565588733986436,-0.580272091043568,0.05666666666666665,0.7298691702252366,0.032476529138407435,0.6997652913840744,0.25245305827681486
1588960180.809998,0.6954437724746648,-2.256331317423995,-9.574556227525335,-0.5733333333333334,0.05666666666666665,0.7266666666666667,0.0625,0.7958585322000654,0.17640568813337693
1588960180.819998,0.6887322893363161,-2.258732289336316,-9.620704697986577,-0.5733333333333334,0.05666666666666665,0.7266666666666667,0.0625,0.44894202087994034,0.0625
1588960180.829998,0.6911358853070495,-2.2444320573464753,-9.626592344078851,-0.5733333333333334,0.05666666666666665,0.7266666666666667,-0.00709928316905957,0.20810107524641064,0.027700358415470215
1588960180.839998,0.7,-2.248553932723737,-9.582892134552527,-0.5733333333333334,0.05666666666666665,0.7266666666666667,-0.009037920476643632,0.044806880714965455,0.0
1588960180.849998,0.6836713456645416,-2.2640821635838644,-9.555917836416135,-0.57922979184336,0.058934535324369215,0.7266666666666667,0.036986477600846224,-0.13904056719746133,0.07654056719746133
1588960180.859998,0.6637166051402278,-2.266283394859772,-9.535133579439089,-0.5877777777777777,0.06222222222222223,0.7266666666666667,-0.02322878212642371,-0.2267712178735763,0.09458487149430515
1588960180.869998,0.6675591093117409,-2.2551182186234815,-9.53929068825911,-0.5877777777777777,0.06222222222222223,0.7266666666666667,-0.047244433198380564,-0.20275556680161944,-0.07775556680161944
1588960180.879998,0.671480817615234,-2.2476538784101563,-9.610865303974611,-0.5877777777777777,0.06222222222222223,0.7266666666666667,0.04783674006347536,-0.4413469602539014,-0.125
1588960180.889998,0.6854148880791254,-2.26,-9.576943258719417,-0.5877777777777777,0.06222222222222223,0.7266666666666667,0.125,-0.7786569495054659,-0.13455231650182198
1588960180.899998,0.66,-2.26,-9.549490468768733,-0.5803821817261452,0.05521586806804407,0.7266666666666667,0.125,-0.849920573072773,-0.20939485673180674
1588960180.909998,0.6633945350469813,-2.2667890700939624,-9.53,-0.5666666666666667,0.042222222222222223,0.7266666666666667,0.125,-0.4753415595636678,-0.1863524678691003
1588960180.919998,0.67,-2.2715196060812994,-9.5639215756748,-0.5666666666666667,0.042222222222222223,0.7266666666666667,0.07199753800812278,0.12300861697157026,0.017003692987815844
1588960180.929998,0.67,-2.25653131355635,-9.6030626271127,-0.5666666666666667,0.042222222222222223,0.7266666666666667,-0.021679290272810157,0.4833964513640508,0.10332070972718985
1588960180.939998,0.6655067157420076,-2.2544932842579923,-9.576520147226024,-0.5666666666666667,0.042222222222222223,0.7266666666666667,-0.006333946775094905,0.5751678935501898,0.09058302661245254
1588960180.949998,0.664166510816034,-2.2558334891839658,-9.543333956735864,-0.5805550360534464,0.04499989609957816,0.7206483732657288,0.036459307399788046,0.35937792219936415,0.15104069260021197
1588960180.959998,0.67,-2.2549304833266115,-9.539721933306447,-0.6,0.048888888888888885,0.7122222222222222,0.03081552079132262,0.2808155207913226,0.1875
1588960180.969998,0.6649801261917336,-2.2549801261917337,-9.60015899046613,-0.6,0.048888888888888885,0.7122222222222222,0.031125788698335044,0.21837736609500513,0.09337736609500515
1588960180.9799979,0.6774008980734875,-2.244199700642171,-9.622599101926513,-0.6,0.048888888888888885,0.7122222222222222,-0.07250374197286466,0.3787630969050263,0.03625187098643233
1588960180.9899979,0.69,-2.250234739826551,-9.58270736046253,-0.6,0.048888888888888885,0.7122222222222222,-0.08235525072270403,0.47721050144540805,0.10514474927729597
1588960180.9999979,0.69,-2.2677226484322883,-9.536072937513898,-0.6,0.048888888888888885,0.7122222222222222,-0.009488964865465868,0.3314779297309317,0.17801103513453415
1588960181.0099978,0.6639308612199779,-2.2520086423475028,-9.478077781127526,-0.5733333333333334,0.06888888888888889,0.7122222222222222,0.03766204401567682,0.04994598532810773,-0.04994598532810773
1588960181.0199978,0.6129812773403325,-2.2569455818022743,-9.554581627296589,-0.5733333333333334,0.06888888888888889,0.7122222222222222,0.16363735783027122,0.09067804024496938,0.019090113735783027
1588960181.0299978,0.7131028174167582,-2.2342242956458107,-9.600517136236126,-0.5733333333333334,0.06888888888888889,0.7122222222222222,-0.036098152213684606,0.23921362361263565,0.07219630442736921
1588960181.0399978,0.6545227630663297,-2.25452276306633,-9.59,-0.5733333333333334,0.06888888888888889,0.7122222222222222,0.11903453832912134,-1.1234399608101673,-0.20980180749368202
1588960181.0499978,0.6561887569279493,-2.26,-9.5823775138559,-0.5762976335004839,0.06126640274478754,0.7151865223893727,0.11603919239904989,-1.237977038796516,-0.21721892319873318
1588960181.0599978,0.6646313108222847,-2.264877103607428,-9.560245792785144,-0.5811111111111111,0.048888888888888885,0.72,0.030481897546426318,-0.6905724098142947,-0.0625
1588960181.0699978,0.6660841962058802,-2.26652104905147,-9.57435265663971,-0.5811111111111111,0.048888888888888885,0.72,0.040756556571687697,-0.41029589600181393,-0.040756556571687697
1588960181.0799978,0.6430428729372262,-2.2569571270627735,-9.607828508251094,-0.5811111111111111,0.048888888888888885,0.72,0.01901795585766349,-0.1440179558576635,0.0
1588960181.0899978,0.6544039887045535,-2.2544039887045533,-9.571192022590893,-0.5811111111111111,0.048888888888888885,0.72,0.007450141193081537,0.005174505824214609,0.0
1588960181.0999978,0.6632690342360756,-2.2632690342360755,-9.543654828819623,-0.576389172770113,0.05143147107250326,0.7243587123147675,-0.0625,0.2908629279509453,0.0
1588960181.1099977,0.67,-2.2646961340009657,-9.525911597997101,-0.5666666666666667,0.05666666666666665,0.7333333333333333,-0.0625,0.4412983249879267,0.09944748748189006
1588960181.1199977,0.6744625097457547,-2.2644625097457545,-9.553387529237263,-0.5666666666666667,0.05666666666666665,0.7333333333333333,-0.0625,0.5836720577328998,0.13171862817806684
1588960181.1299977,0.7053908222365229,-2.260478441661304,-9.582695411118262,-0.5666666666666667,0.05666666666666665,0.7333333333333333,-0.022826840255432898,0.866029218850552,0.1021731597445671
1588960181.1399977,0.720862812769629,-2.2432614322691977,-9.593692838654011,-0.5666666666666667,0.05666666666666665,0.7333333333333333,-0.039419758412424497,1.4742234685073339,0.2282679033649698
1588960181.1499977,0.6532795582503248,-2.25,-9.54937635339974,-0.5705029834945383,0.05666666666666665,0.7315627255666233,-0.1504033131225639,1.3067209831095714,0.17970441749675184
1588960181.1599977,0.6872671568627451,-2.2527328431372546,-9.528198529411764,-0.5811111111111111,0.05666666666666665,0.7266666666666667,0.056678921568627444,-0.3008578431372549,-0.11917892156862744
1588960181.1699977,0.6753909676841823,-2.2553909676841823,-9.582263226210724,-0.5811111111111111,0.05666666666666665,0.7266666666666667,0.019032259869304458,0.12011290394772178,0.0625
1588960181.1799977,0.67,-2.254809158249158,-9.59595420875421,-0.5811111111111111,0.05666666666666665,0.7266666666666667,0.15744276094276094,0.30772895622895624,0.09255723905723906
1588960181.1899977,0.6657849334424035,-2.26,-9.561569866884808,-0.5811111111111111,0.05666666666666665,0.7266666666666667,0.045967502045065806,0.49018833196995615,0.09865583401502194
1588960181.1999977,0.6630682687675348,-2.2507951936973956,-9.537726924929862,-0.5749745735760415,0.05666666666666665,0.7287121791783565,-0.10085335959418482,0.6775600787825545,0.024146640405815177
1588960181.2099977,0.67,-2.2379024566637287,-9.521853684995593,-0.5611111111111111,0.05666666666666665,0.7333333333333333,-0.11341446877754424,0.9128048229258481,0.03628070829660768
1588960181.2199976,0.6794469223907226,-2.246851025869759,-9.571489741302408,-0.5611111111111111,0.05666666666666665,0.7333333333333333,-0.039362176628010705,0.8356378233719893,0.1481378233719893
1588960181.2299976,0.6939245938489833,-2.2430377030755086,-9.636962296924493,-0.5611111111111111,0.05666666666666665,0.7333333333333333,-0.06804306733421886,0.7689856442219271,0.0625
1588960181.2399976,0.6919421250439709,-2.2460192916520096,-9.598154333216078,-0.5611111111111111,0.05666666666666665,0.7333333333333333,0.0625,0.6383440097754245,0.037620572825060636
1588960181.2499976,0.6995916565500496,-2.2426020858624875,-9.55,-0.5663152828360863,0.05666666666666665,0.7353571778930459,0.0462369633594526,0.375,0.0
1588960181.2599976,0.6729819271172077,-2.2470180728827924,-9.547018072882793,-0.5811111111111111,0.05666666666666665,0.7411111111111112,-0.03727408896509588,0.35636295551745206,0.0
1588960181.2699976,0.68,-2.2354807177767473,-9.56485605222789,-0.5811111111111111,0.05666666666666665,0.7411111111111112,-0.11087724305233491,0.27013172915700473,0.0
1588960181.2799976,0.68,-2.2342391954144247,-9.62152160917115,-0.5811111111111111,0.05666666666666665,0.7411111111111112,-0.04025125716496114,0.21399497134015544,-0.022248742835038856
1588960181.2899976,0.6772255572375634,-2.2586127786187813,-9.568612778618782,-0.5811111111111111,0.05666666666666665,0.7411111111111112,0.0,0.3836701336326147,-0.05382986636738529
1588960181.2999976,0.661935093033319,-2.2461298139333623,-9.558064906966681,-0.5811111111111111,0.053871532285206004,0.7383159767296505,-0.012094331458243185,0.5584433145824319,0.012094331458243185
1588960181.3099976,0.6752530671969385,-2.23,-9.564008179191836,-0.5811111111111111,0.042222222222222223,0.7266666666666667,-0.05155611000637827,0.9858927700446479,0.07344388999362172
1588960181.3199975,0.703850249840835,-2.23,-9.645400999363341,-0.5811111111111111,0.042222222222222223,0.7266666666666667,0.04812812301043737,0.4324875079582505,0.07687187698956263
1588960181.3299975,0.7039175880611444,-2.23,-9.654793970152861,-0.5811111111111111,0.042222222222222223,0.7266666666666667,0.14400753730892393,0.0679773880732282,0.019007537308923933
1588960181.3399975,0.6935026490311584,-2.237005298062317,-9.602486754844207,-0.5811111111111111,0.042222222222222223,0.7266666666666667,0.09993377422103664,-0.018716887110518318,0.0625
1588960181.3499975,0.6978982957500841,-2.2457965915001683,-9.55949147875042,-0.5794764522500655,0.041054608750046746,0.7222297354723999,-0.03622869687605177,0.07563565156197412,0.03622869687605177
1588960181.3599975,0.69,-2.2375466136390223,-9.516226693180489,-0.5733333333333334,0.03666666666666667,0.7055555555555556,0.10966633524388818,0.125,-0.015333664756111823
1588960181.3699975,0.6925236276220897,-2.2550472552441794,-9.537759903842987,-0.5733333333333334,0.03666666666666667,0.7055555555555556,0.14018198208581684,0.030363964171633687,0.0625
1588960181.3799975,0.6994296440214707,-2.2688592880429415,-9.613726084236177,-0.5733333333333334,0.03666666666666667,0.7055555555555556,0.010694174597424833,-0.22861165080515033,0.0625
1588960181.3899975,0.6780897538910217,-2.248089753891022,-9.562359015564086,-0.5733333333333334,0.03666666666666667,0.7055555555555556,-0.011939038181114782,-0.05056096181888522,0.011939038181114782
1588960181.3999975,0.6718487932625063,-2.2418487932625064,-9.537395173050024,-0.5733333333333334,0.03666666666666667,0.7055555555555556,-0.05094504210933548,-0.011554957890664519,0.05094504210933548
1588960181.4099975,0.679648800489922,-2.249648800489922,-9.521404798040312,-0.5933333333333334,0.08333333333333333,0.7333333333333333,-0.12061000612402481,0.19627998775195038,0.004389993875975185
1588960181.4199975,0.67,-2.238221356196415,-9.579565081839439,-0.5933333333333334,0.08333333333333333,0.7333333333333333,0.0,0.5264321901792673,0.11388347622759158
1588960181.4299974,0.6755087638621129,-2.235508763862113,-9.650719326482605,-0.5933333333333334,0.08333333333333333,0.7333333333333333,0.017214887069102743,0.9547148870691028,0.07971488706910274
1588960181.4399974,0.6910105241382877,-2.250252631034572,-9.598231582757997,-0.5933333333333334,0.08333333333333333,0.7333333333333333,0.06407894396607453,0.9921052801696274,0.12342105603392547
1588960181.4499974,0.7273672900092985,-2.2573672900092983,-9.528244860006199,-0.5922607477815661,0.07923800668113097,0.7333333333333333,0.11403037503874366,0.6875,0.0625
1588960181.4599974,0.7013668767434652,-2.2313668767434653,-9.51091125116231,-0.5816679868214117,0.03879291937872369,0.7333333333333333,0.005695319764438461,0.6875,0.0625
1588960181.4699974,0.7045715952658776,-2.242285797632939,-9.576000583430572,-0.5811111111111111,0.03666666666666667,0.7333333333333333,0.13928623520586764,1.301789881646941,0.10535870561760294
1588960181.4799974,0.7140701912938695,-2.2455526434704023,-9.627035095646935,-0.5811111111111111,0.03666666666666667,0.7333333333333333,0.1782346738966712,1.7801532610332882,0.2592653261033288
1588960181.4899974,0.6743538693488094,-2.225646130651191,-9.593061608046428,-0.5811111111111111,0.03666666666666667,0.7333333333333333,0.125,2.4536532662797663,0.3477883165699416
1588960181.4999974,0.6622713063247971,-2.244542612649594,-9.54318608102561,-0.5826253153276425,0.03944270773030759,0.7333333333333333,0.167586993589946,2.911869651709874,0.451695664529982
1588960181.5099974,0.6898344385901163,-2.2520662245639533,-9.52,-0.5877777777777777,0.048888888888888885,0.7333333333333333,0.2629139035247093,3.3243791447129363,0.5495860964752907
1588960181.5199974,0.7259403186866248,-2.2429701593433125,-9.5437612747465,-0.5877777777777777,0.048888888888888885,0.7333333333333333,0.1503730082085949,3.140484065668759,0.5693095123128923
1588960181.5299973,0.7412565421301855,-2.25,-9.594973831479258,-0.5877777777777777,0.048888888888888885,0.7333333333333333,0.07035338831365974,2.2804322337268053,0.3982330584317013
1588960181.5399973,0.7488930535145221,-2.250553473242739,-9.558893053514522,-0.5877777777777777,0.048888888888888885,0.7333333333333333,0.11808158446576292,1.1286934679589848,0.11808158446576292
1588960181.5499973,0.7350420223568845,-2.2574789888215574,-9.545042022356885,-0.5877777777777777,0.048888888888888885,0.7333333333333333,0.03151263973052855,0.39285743770949266,0.03151263973052855
1588960181.5599973,0.7122542883425623,-2.2588728558287188,-9.503005717790083,-0.5733333333333334,0.05666666666666665,0.7411111111111112,-0.004696434047004924,0.1945446510705074,0.002348217023502462
1588960181.5699973,0.7576463267257084,-2.2361768366371457,-9.563528435634279,-0.5733333333333334,0.05666666666666665,0.7411111111111112,-0.09926318067855919,0.33639477101783877,0.049631590339279594
1588960181.5799973,0.7164668739258887,-2.25,-9.656466873925888,-0.5733333333333334,0.05666666666666665,0.7411111111111112,-0.0625,-1.8236067932106512,-0.20958203796319538
1588960181.5899973,0.6921694633788402,-2.25,-9.63216946337884,-0.5733333333333334,0.05666666666666665,0.7411111111111112,-0.0625,-2.3298028462741613,-0.36144085388224845
1588960181.5999973,0.7025488232348522,-2.2405097646469705,-9.577451176765148,-0.574069660045624,0.056270183052356294,0.7403747843988205,0.059313970956434654,-2.054162493740611,-0.31568602904356535
1588960181.6099973,0.7445548322483726,-2.2489109664496745,-9.535445167751627,-0.5862047293161965,0.04973591498358648,0.7282397151282479,0.0068064596895343055,-2.946790185277917,-0.3681935403104657
1588960181.6199973,0.6901811742269446,-2.25,-9.544909412886527,-0.5877777777777777,0.048888888888888885,0.7266666666666667,-0.10946936157653363,-4.484846807882668,-0.6878774463061345
1588960181.6299973,0.6269909185724097,-2.2477507567856327,-9.585501513571264,-0.5877777777777777,0.048888888888888885,0.7266666666666667,-0.0625,-3.518995955330569,-0.443768919640813
1588960181.6399972,0.7105639507391188,-2.24,-9.541691852217356,-0.5877777777777777,0.048888888888888885,0.7266666666666667,-0.01826851908961944,-0.9410246921194926,-0.2205123460597463
1588960181.6499972,0.6535119652591703,-2.24,-9.464715574856015,-0.5877777777777777,0.050033433599912386,0.7276477049904011,0.15259170285503096,-0.3361244571745357,-0.0790138285749484
1588960181.6599972,0.5554496244671493,-2.24,-9.552410853237703,-0.5877777777777777,0.05666666666666665,0.7333333333333333,0.2672965017930848,2.7405524731037283,0.27790699641383043
1588960181.6699972,0.71863539481697,-2.24,-9.559505886731174,-0.5877777777777777,0.05666666666666665,0.7333333333333333,0.13426462379051357,4.736030643142296,0.5439707524189729
1588960181.6799972,0.729491453445164,-2.2664401741161484,-9.703897441341969,-0.5877777777777777,0.05666666666666665,0.7333333333333333,-0.06567841596772481,0.052938210001061664,0.08368059241957745
1588960181.6899972,0.7034779768708896,-2.207343121390716,-9.585410549130803,-0.5877777777777777,0.05666666666666665,0.7333333333333333,-0.10778955924051009,-3.4873164739240807,-0.6530791184810202
1588960181.6999972,0.5913991775656537,-2.2571559210819316,-9.554277549323793,-0.5877777777777777,0.05666666666666665,0.7333333333333333,0.008959190035777387,-2.553326479713781,-0.4195816199284452
1588960181.7099972,0.6417991631799164,-2.28,-9.489100418410041,-0.5877777777777777,0.04441306369130637,0.7333333333333333,-0.04354079497907949,-0.21626569037656895,-0.04739801255230125
1588960181.7199972,0.7017216592033938,-2.2349670044779635,-9.521523686071177,-0.5877777777777777,0.042222222222222223,0.7333333333333333,0.03145622201272684,-0.20819585199151544,-0.0625
1588960181.7299972,0.6605332312043366,-2.2596800612773977,-9.628613598868725,-0.5877777777777777,0.042222222222222223,0.7333333333333333,-0.12300038298373792,-0.31116692198915863,-0.0625
1588960181.7399971,0.6468240758660732,-2.2586351848267854,-9.595905554480355,-0.5877777777777777,0.042222222222222223,0.7333333333333333,-0.19603009483259146,0.12221066382814012,0.10793981033481712
1588960181.7499971,0.6874114573253338,-2.2505177085349333,-9.5715531256048,-0.5877777777777777,0.042222222222222223,0.7333333333333333,-0.2467643216566673,0.4773502515966712,0.006471356686665389
1588960181.7599971,0.69,-2.22507690354793,-9.561692301182644,-0.5822393118995399,0.05883761985693567,0.7628718180172683,0.009615588042397427,0.34423064717456153,0.10384623521695897
1588960181.7699971,0.7023871710197137,-2.23,-9.547957236732378,-0.5811111111111111,0.06222222222222223,0.7688888888888888,0.014919818873211248,0.4375,0.11505345408452583
1588960181.779997,0.723373361352947,-2.23,-9.617911204509824,-0.5811111111111111,0.06222222222222223,0.7688888888888888,0.14608350845591914,0.4375,0.027610994362720576
1588960181.789997,0.71032698108034,-2.24967301891966,-9.60065396216068,-0.5811111111111111,0.06222222222222223,0.7688888888888888,0.12602181587606254,0.37602181587606254,0.0
1588960181.799997,0.6766631828596696,-2.2583342042850822,-9.56666318285967,-0.5811111111111111,0.06222222222222223,0.7688888888888888,-0.031266330345298854,0.11455611609116856,0.0
1588960181.809997,0.6970888935466591,-2.25,-9.53436665968001,-0.6,0.042222222222222223,0.7411111111111112,0.027291623000069865,-0.32159720766669,0.0
1588960181.819997,0.6786481410009007,-2.2513518589990995,-9.573518589990995,-0.6,0.042222222222222223,0.7411111111111112,0.15370352502251383,-0.36655088125562846,-0.008449118744371542
1588960181.829997,0.67,-2.2555818721719456,-9.655581872171945,-0.6,0.042222222222222223,0.7411111111111112,-0.04409113404977376,-0.2940911340497738,-0.02568226809954751
1588960181.839997,0.67,-2.2333411694004526,-9.633341169400452,-0.6,0.042222222222222223,0.7411111111111112,0.04857846083144797,-0.20142153916855204,0.15965692166289594
1588960181.849997,0.7012313522749677,-2.2534235142062258,-9.559729457381323,-0.6,0.042222222222222223,0.7411111111111112,0.11129898792963702,0.056494939648185055,0.08990202414072597
1588960181.859997,0.7168240300870942,-2.2507939924782265,-9.499206007521774,-0.5933333333333334,0.06222222222222223,0.7333333333333333,0.1299624529889153,0.22022528206650832,0.125
1588960181.869997,0.68,-2.2581744242073816,-9.5000406668594,-0.5933333333333334,0.06222222222222223,0.7333333333333333,0.17609015129613567,-0.10218030259227137,0.11359015129613569
1588960181.879997,0.68,-2.2420067456875783,-9.58896289871832,-0.5933333333333334,0.06222222222222223,0.7333333333333333,0.07504216054736436,0.09991567890527128,0.012542160547364359
1588960181.889997,0.652134994148799,-2.2489325029256007,-9.61,-0.5933333333333334,0.06222222222222223,0.7333333333333333,0.05916407164250154,-0.3950155701449908,-0.05916407164250154
1588960181.899997,0.6854118650455203,-2.23229406747724,-9.61,-0.5933333333333334,0.06222222222222223,0.7333333333333333,0.0071689608663744395,-0.7069862348017534,-0.0071689608663744395
1588960181.909997,0.6750923482849605,-2.23745382585752,-9.62490765171504,-0.5891923189680446,0.04731457050718264,0.7283641160949869,-0.04658641160949868,-0.5170679419525066,-0.09317282321899736
1588960181.919997,0.6928170103959896,-2.2409390034653303,-9.502207045049289,-0.5877777777777777,0.042222222222222223,0.7266666666666667,0.011737543316623491,-0.15228737005012954,0.11913122834168825
1588960181.929997,0.7139839518218214,-2.2479946506072737,-9.59393045789456,-0.5877777777777777,0.042222222222222223,0.7266666666666667,0.09993313259092286,0.11229939777276854,0.07503343370453858
1588960181.939997,0.8380977748366283,-1.9472148233931674,-9.580951112581685,-0.5877777777777777,0.042222222222222223,0.7266666666666667,0.125,-0.032990735379270414,-0.15204628174373397
1588960181.949997,1.0046346265199768,-1.4614823393167342,-9.497682686740012,-0.5877777777777777,0.042222222222222223,0.7266666666666667,0.125,-0.3365735379270411,-0.9760567458019687
1588960181.959997,1.0290943872947123,-1.9598379353907236,-9.538155387114239,-0.5666666666666667,0.06222222222222223,0.7411111111111112,-0.06634294351200144,-1.4884711694639956,-4.9142336672080855
1588960181.969997,0.7717289297960657,-2.080951091860675,-9.515446670276123,-0.5666666666666667,0.06222222222222223,0.7411111111111112,-0.11365277025807616,-1.3465416892257716,-7.705513445226494
1588960181.979997,0.4693121815655396,-2.397540528022233,-9.641245947197778,-0.5666666666666667,0.06222222222222223,0.7411111111111112,-0.17581924502084298,0.7459037748957851,-9.839957735062528
1588960181.989997,0.7009423878576264,-2.248101685253144,-9.656189831474686,-0.5666666666666667,0.06222222222222223,0.7411111111111112,-0.03572032992482274,1.4463983503758864,-9.419660989774469
1588960181.999997,0.9760825911379101,-1.7691915140786634,-9.521707141671737,-0.5666666666666667,0.06222222222222223,0.7411111111111112,-0.10804129556895503,1.4629380566465675,-9.420541295568954
1588960182.009997,1.1647311693194635,-1.4756398044867778,-9.453580649204161,-0.5778416955619613,0.05190681093425798,0.7247783765718344,-0.36676745206166184,1.5825604712369972,-10.888104712369971
1588960182.019997,1.0318601111839185,-1.12572702868376,-9.237508507894905,-0.5811111111111111,0.048888888888888885,0.72,-0.33434309539411106,2.5938563486862964,-15.139163531251981
1588960182.0299969,0.7282966335746809,-0.6540382175113831,-9.403470428702944,-0.5811111111111111,0.048888888888888885,0.72,0.3125,4.8156505809758405,-17.21411510039561
1588960182.0399969,0.6688053353154939,-0.4476106706309878,-9.175221341261976,-0.5811111111111111,0.048888888888888885,0.72,0.3274333085563264,7.398499442517344,-18.188466561364386
1588960182.0499969,0.6514849686157912,-0.4129699372315824,-9.105939874463164,-0.5811111111111111,0.048888888888888885,0.72,0.5439378923026098,12.26985257680872,-19.108611042286093
1588960182.0599968,0.7174010114715678,-0.4498680152954237,-9.313700505735785,-0.5811111111111111,0.05666666666666665,0.7477777777777778,0.8433375477981991,13.481821265572961,-21.35545670408289
1588960182.0699968,0.7691377821635623,-0.5188503762180832,-9.33956889108178,-0.5811111111111111,0.05666666666666665,0.7477777777777778,1.0589074256815099,10.73330532256075,-23.403370543974344
1588960182.0799968,0.7965238990980563,-0.5796787729706265,-9.386416823421598,-0.5811111111111111,0.05666666666666665,0.7477777777777778,1.0625,7.413456205083683,-25.219574470650652
1588960182.0899968,0.859997220788502,-0.61,-9.360002779211499,-0.5811111111111111,0.05666666666666665,0.7477777777777778,1.0104195616786438,2.885575892325406,-28.31237840949696
1588960182.0999968,0.9081708776483676,-0.641809064706973,-9.305467309410238,-0.5811111111111111,0.05666666666666665,0.7477777777777778,1.159045323534865,2.0341706838139864,-30.2211692426975
1588960182.1099968,0.9627167537163519,-0.66,-9.14913298513459,-0.596560689254944,0.04030828980849069,0.7359633944913173,1.3522398553636,4.073156890317397,-32.1360184813178
1588960182.1199968,0.943349717725419,-0.6799877117059357,-9.246588840804261,-0.6,0.03666666666666667,0.7333333333333333,1.2917178678919343,6.686194368755677,-33.707514113729054
1588960182.1299968,0.9367179130837604,-0.6564104345811981,-9.363743304670084,-0.6,0.03666666666666667,0.7333333333333333,1.5439086974145169,8.925634789658067,-36.18043914126061
1588960182.1399968,0.9462750123011316,-0.7090251353124487,-9.346074913892078,-0.6,0.03666666666666667,0.7333333333333333,1.6875,9.735312961292438,-38.47437776775463
1588960182.1499968,0.95,-0.7277992902944656,-9.290399053725954,-0.6,0.03666666666666667,0.7333333333333333,1.8262544356595904,9.597491128680819,-40.7925473137023
1588960182.1599967,0.9777496902106567,-0.7292498967368856,-9.298499793473772,-0.5886945706549176,0.030500068842076275,0.7210001376841525,1.99062370921107,9.326564436183395,-42.98904378356051
1588960182.1699967,1.0190966760808169,-0.7059350423636759,-9.321806647838367,-0.5877777777777777,0.03,0.72,2.0625,9.30081197045405,-45.070572181186186
1588960182.1799967,1.0008724744731696,-0.6239261351292635,-9.35825505105366,-0.5877777777777777,0.03,0.72,2.0625,10.325923310884207,-46.49433793178362
1588960182.1899967,1.009527842725581,-0.5914164718232571,-9.321888629097677,-0.5877777777777777,0.03,0.72,2.241147051104643,10.970490170348809,-48.1107744429069
1588960182.1999967,1.01,-0.638307512541048,-9.279743739549126,-0.5877777777777777,0.03,0.72,2.3506406511271836,11.6038439067631,-49.495828464653385
1588960182.2099967,1.0969889477940518,-0.7756507023691857,-9.289330877287567,-0.5995910916757354,0.01818668610204238,0.7404048149146542,2.375,12.474907898283764,-50.71863487285471
1588960182.2199967,1.136132401097442,-0.7529006991769183,-9.308066200548721,-0.6,0.017777777777777778,0.7411111111111112,2.4314568767147535,14.024335671298346,-51.37102564386229
1588960182.2299967,1.145842027520796,-0.6974217523128353,-9.380104330249553,-0.6,0.017777777777777778,0.7411111111111112,2.4740126720049753,15.136829472129364,-52.204266112104484
1588960182.2399967,1.1445047357385583,-0.6545047357385584,-9.375047357385583,-0.6,0.017777777777777778,0.7411111111111112,2.671727008170053,16.258990221242136,-53.746016647386305
1588960182.2499967,1.1594613505841969,-0.65,-9.310538649415802,-0.6,0.017777777777777778,0.7411111111111112,2.934133441151231,16.168874595682883,-55.353117367483
1588960182.2599967,1.1970865054632953,-0.6628148790974715,-9.277185120902528,-0.6113910036421969,0.008759899894371908,0.7377887350488037,3.089197664786399,14.886570056408031,-56.93503461401917
1588960182.2699966,1.2085935940099832,-0.7199224209650582,-9.271406405990016,-0.6266666666666667,-0.0033333333333333327,0.7333333333333333,3.196290037437604,13.028309588186357,-58.72169041181365
1588960182.2799966,1.2689807162534434,-0.7758677685950414,-9.366225895316806,-0.6266666666666667,-0.0033333333333333327,0.7333333333333333,3.196108815426997,12.114152892561984,-60.12086776859504
1588960182.2899966,1.2863580277461606,-0.7609259167615183,-9.341851833523037,-0.6266666666666667,-0.0033333333333333327,0.7333333333333333,3.2272376734135038,12.658565101202553,-60.72685208096204
1588960182.2999966,1.3262930483237418,-0.7620976827745806,-9.30790231722542,-0.6266666666666667,-0.0033333333333333327,0.7333333333333333,3.287805258670564,14.134157760116928,-61.30244206936452
1588960182.3099966,1.35,-0.7383766375545852,-9.3,-0.6301803736050461,-0.011063488597768074,0.729116885007278,3.3520292030567687,16.298051310043668,-61.77670442139738
1588960182.3199966,1.4091658812441092,-0.7453568062474755,-9.333809074996633,-0.6322222222222222,-0.015555555555555557,0.7266666666666667,3.375,18.868280429513934,-62.46576679682241
1588960182.3299966,1.4705026144969346,-0.7415828975838442,-9.39891971691309,-0.6322222222222222,-0.015555555555555557,0.7266666666666667,3.4276068901009737,20.50267225252434,-63.29899646141363
1588960182.3399966,1.48,-0.8081349235384503,-9.384449403673083,-0.6322222222222222,-0.015555555555555557,0.7266666666666667,3.756882454086486,21.8678385893027,-64.28918654423063
1588960182.3499966,1.5089267997580158,-0.8995486993345433,-9.34384150030248,-0.6322222222222222,-0.015555555555555557,0.7266666666666667,3.993292498487598,22.1528962492438,-65.02507562008469
1588960182.3599966,1.574447408457162,-1.1895552591542837,-9.272668445074297,-0.6322222222222222,-0.042222222222222223,0.7411111111111112,4.488881478857095,18.126181407998665,-66.15279630285727
1588960182.3699965,1.661859616947669,-1.180814038305233,-9.325115770168601,-0.6322222222222222,-0.042222222222222223,0.7411111111111112,4.270350957630828,12.007326813663173,-66.69912260592294
1588960182.3799965,1.7687857395821036,-1.215922087120765,-9.419805217801912,-0.6322222222222222,-0.042222222222222223,0.7411111111111112,4.1938717388738045,7.789163026797309,-67.08676956675717
1588960182.3899965,1.8593137480357211,-1.2704723851136408,-9.3939482963474,-0.6322222222222222,-0.042222222222222223,0.7411111111111112,4.097370740868499,9.087455923498524,-66.98980611130276
1588960182.3999965,1.8972415251996404,-1.3551737267967634,-9.38,-0.6322222222222222,-0.042222222222222223,0.7411111111111112,4.288797662488762,13.008686339838173,-66.80172140250674
1588960182.4099965,1.9,-1.428944238578117,-9.366015931834824,-0.6485369684149279,-0.06086764644245728,0.7558720719521306,4.331299786983824,15.124004260323519,-67.18700213016176
1588960182.4199965,1.9,-1.443241673213818,-9.32620836606909,-0.6555555555555556,-0.06888888888888889,0.7622222222222222,4.396979084827274,13.810418303454515,-67.75515588172273
1588960182.4299965,1.997473160212883,-1.3490250504679757,-9.381480317489448,-0.6555555555555556,-0.06888888888888889,0.7622222222222222,4.23443091622316,11.253605879519178,-67.8156585497339
1588960182.4399965,2.039873600303663,-1.2443048016701461,-9.389620800910988,-0.6555555555555556,-0.06888888888888889,0.7622222222222222,4.1566449990510534,10.185920003795786,-67.93986999430632
1588960182.4499965,2.065654634395882,-1.2562157495923523,-9.36509351919941,-0.6555555555555556,-0.06888888888888889,0.7622222222222222,4.28300348498897,10.349010454966908,-68.60251742494485
1588960182.4599965,2.104915993567824,-1.334747980703473,-9.350336025728703,-0.6582866630932357,-0.08472931260743397,0.7665919942825106,4.4671748793967065,11.608198713564867,-69.21612479899451
1588960182.4699965,2.1236275250141587,-1.4317651500849538,-9.348170033352211,-0.6611111111111111,-0.10111111111111112,0.7711111111111111,4.5908906771128315,13.277985573595117,-69.46017203133849
1588960182.4799964,2.1610599315068493,-1.514205051369863,-9.412119863013698,-0.6611111111111111,-0.10111111111111112,0.7711111111111111,4.657906142979452,13.799250856164383,-69.06890785530823
1588960182.4899964,2.2907627829002513,-1.5949395282002157,-9.457911627350018,-0.6611111111111111,-0.10111111111111112,0.7711111111111111,4.588604658124775,12.177965213746857,-67.58659891031014
1588960182.4999964,2.4489063080927007,-1.7337408600817945,-9.391755483950924,-0.6611111111111111,-0.10111111111111112,0.7711111111111111,4.467715949931838,11.670323924897756,-66.50683557442062
1588960182.5099964,2.557900561347233,-1.8185004009623096,-9.389400160384925,-0.6276997237815202,-0.10650004455136773,0.7851223380557784,4.6193765036086605,13.261888532477947,-65.40124298315958
1588960182.5199964,2.585940201577194,-1.7940597984228062,-9.329472862986547,-0.6266666666666667,-0.10666666666666667,0.7855555555555556,4.679042086619154,14.285257559144773,-64.34820035423607
1588960182.5299964,2.63216316938853,-1.764702098366882,-9.40432633877706,-0.6266666666666667,-0.10666666666666667,0.7855555555555556,4.634796038264337,14.4375,-63.66046038264337
1588960182.5399964,2.7314209115281503,-1.8514209115281501,-9.444932975871312,-0.6266666666666667,-0.10666666666666667,0.7855555555555556,4.573056300268097,13.294738605898123,-62.419738605898125
1588960182.5499964,2.6989077165354334,-1.7532176377952755,-9.43540220472441,-0.6266666666666667,-0.10666666666666667,0.7855555555555556,4.51688188976378,13.244972440944881,-61.13828346456693
1588960182.5599964,2.743162789779235,-1.7157420717981122,-9.40128964100944,-0.6056124034069218,-0.12261686610586733,0.797677707129348,4.607663846214605,13.3125,-59.88868923028316
1588960182.5699964,2.8242588182556805,-1.7257098030426135,-9.357160787829546,-0.59,-0.13444444444444445,0.8066666666666666,4.651813730983666,13.348186269016333,-58.75039223377133
1588960182.5799963,2.82247047269532,-1.606117127128938,-9.38817667278319,-0.59,-0.13444444444444445,0.8066666666666666,4.711029772827127,13.504044659240689,-57.987866022277935
1588960182.5899963,2.849197809225522,-1.5597994523063805,-9.380601643080858,-0.59,-0.13444444444444445,0.8066666666666666,4.719376711542561,12.766294500106588,-57.751253423085124
1588960182.5999963,2.8936441874537753,-1.5627116250924495,-9.339067437638674,-0.59,-0.13444444444444445,0.8066666666666666,4.664723828413904,11.00367696497008,-57.89248554427486
1588960182.6099963,3.1139291487532246,-1.6292330180567498,-9.391309716251074,-0.5503834909716251,-0.15733398299417217,0.8295562052163944,4.625,7.790339638865005,-58.39856190885641
1588960182.6199963,3.1272381349371763,-1.6072381349371763,-9.360111157426706,-0.54,-0.16333333333333333,0.8355555555555556,4.625,8.399503017130154,-58.348412781119116
1588960182.6299963,3.0371529598962783,-1.5738117688658397,-9.36428234670124,-0.54,-0.16333333333333333,0.8355555555555556,4.827352889177004,12.100734449126323,-57.85720599935174
1588960182.6399963,2.9400178318883357,-1.4318489823525793,-9.311831150464243,-0.54,-0.16333333333333333,0.8355555555555556,5.011333241099428,14.42011006579352,-57.29555586300191
1588960182.6499963,2.950358264862252,-1.385765466408893,-9.278469067182213,-0.54,-0.16333333333333333,0.8355555555555556,5.0625,13.738804223054617,-56.72862418438859
1588960182.6599963,2.994216482582838,-1.3331340696686491,-9.255783517417163,-0.5107772302463891,-0.20361336731804022,0.819759463796847,5.0625,10.72445412064571,-55.771102378929484
1588960182.6699963,3.1214958457904562,-1.437018384235477,-9.288657769115146,-0.4988888888888889,-0.22,0.8133333333333334,4.9934682694372405,9.288230290216548,-54.98226202077931
1588960182.6799963,3.090087565674256,-1.325362065027031,-9.32,-0.4988888888888889,-0.22,0.8133333333333334,5.008104583872687,9.977475633899338,-53.64464040965507
1588960182.6899962,3.086440085126109,-1.2500107461177017,-9.29428264396637,-0.4988888888888889,-0.22,0.8133333333333334,5.223233475210181,10.955366737605091,-51.932915779936366
1588960182.6999962,3.195198074460098,-1.327599037230049,-9.29103961489202,-0.4988888888888889,-0.22,0.8133333333333334,5.243502406924877,10.068532493485845,-51.34050120346244
1588960182.7099962,3.1419674039580907,-1.2566356228172293,-9.220640279394646,-0.523267365153279,-0.2599392057948519,0.8019221316776614,5.158323632130384,9.633440046565774,-50.991559953434226
1588960182.7199962,3.1048254297371414,-1.1960464182997792,-9.227848638887032,-0.5511111111111111,-0.3055555555555556,0.7888888888888889,5.125,10.215842585780216,-50.265262357032974
1588960182.7299962,3.1660656077634473,-1.2481968232903413,-9.32426243105379,-0.5511111111111111,-0.3055555555555556,0.7888888888888889,4.935449757392278,9.275608592875212,-49.46925932069838
1588960182.7399962,3.1430112129452445,-1.2291556719374224,-9.343855541007821,-0.5511111111111111,-0.3055555555555556,0.7888888888888889,4.716111474804445,8.634791393896666,-48.30569753583778
1588960182.7499962,3.092040854363142,-1.1561225630894247,-9.32413277668021,-0.5511111111111111,-0.3055555555555556,0.7888888888888889,4.5376276698848175,8.65051067953927,-46.51498956275394
1588960182.7599962,3.1221030969570203,-1.0323986235746576,-9.247601376425342,-0.6354486501885462,-0.4159610612569253,0.8134234457114154,4.221864246677012,6.783676877403684,-42.96679542540989
1588960182.7699962,3.188533782988902,-1.0649560801537195,-9.189354731187013,-0.6733333333333333,-0.4655555555555556,0.8244444444444444,3.9644425708795734,5.803885141759147,-40.92540120975648
1588960182.7799962,3.1368929152409266,-1.023539013855388,-9.262983676445842,-0.6733333333333333,-0.4655555555555556,0.8244444444444444,3.7503856509788522,6.164995512424973,-38.94135650978852
1588960182.7899961,3.027589954117363,-0.8978417597857347,-9.221259028341859,-0.6733333333333333,-0.4655555555555556,0.8244444444444444,3.6875,7.877472503347896,-36.5433909244583
1588960182.7999961,3.0490441725115653,-0.894283129383674,-9.189681390837189,-0.6733333333333333,-0.4655555555555556,0.8244444444444444,3.502986960901358,7.39491307267572,-34.39491307267572
1588960182.8099961,3.1354400830019022,-0.9807041328030434,-9.220176033200762,-0.610015793417488,-0.5249157492266605,0.7554735527503986,3.1852995849904895,4.566794916133494,-32.04379647241916
1588960182.819996,3.2296949902014975,-1.0432316634004992,-9.257877996080598,-0.5488888888888889,-0.5822222222222222,0.6888888888888889,2.9173021037468803,3.410974951007487,-29.257625244962565
1588960182.829996,3.2587477285296673,-1.002977798846488,-9.29,-0.5488888888888889,-0.5822222222222222,0.6888888888888889,2.602156909220194,4.600996484158963,-25.870131152721815
1588960182.839996,3.15036859688196,-0.8604914625092799,-9.23073719376392,-0.5488888888888889,-0.5822222222222222,0.6888888888888889,2.375,5.87423208982925,-22.42276006867112
1588960182.849996,3.185462180462968,-0.8854621804629678,-9.208507164978217,-0.5488888888888889,-0.5822222222222222,0.6888888888888889,2.2065311532203036,4.421280378982731,-20.412691590992598
1588960182.859996,3.3349720640233205,-1.019981376015547,-9.23002483197927,-0.5427815715523886,-0.535584526198038,0.6411407715307955,1.7501163999028315,1.5003103997408838,-18.1882371993846
1588960182.869996,3.2905966082705236,-0.9367557038093298,-9.178079547769403,-0.5366666666666666,-0.4888888888888889,0.5933333333333334,1.5997514132206152,1.8567825040741495,-15.100177925748625
1588960182.879996,3.181535763235533,-0.8297098520222083,-9.188174088786674,-0.5366666666666666,-0.4888888888888889,0.5933333333333334,1.3220985202220827,2.8161268497223966,-12.222267231165935
1588960182.889996,3.106085809741516,-0.8288203672536361,-9.237640734507272,-0.5366666666666666,-0.4888888888888889,0.5933333333333334,1.0073727046647742,1.4157178653068403,-10.246481637318194
1588960182.899996,3.0745440273724465,-0.8290880547448928,-9.205440273724465,-0.5366666666666666,-0.4888888888888889,0.5933333333333334,0.8011006843111603,-0.6536945255107176,-8.562205645567072
1588960182.909996,3.1379313753627347,-0.8879313753627348,-9.227931375362735,-0.5647998625239609,-0.4580109909967367,0.5947056843507623,0.5717078829044293,-1.5239026276348098,-5.309157658088587
1588960182.919996,3.1861562178828366,-0.9176875642343268,-9.226906474820144,-0.5822222222222222,-0.4388888888888889,0.5955555555555555,0.30761819116135664,-0.26875642343268247,-1.2201310380267216
1588960182.929996,3.1843786882074103,-0.9493491825481281,-9.239349182548127,-0.5822222222222222,-0.4388888888888889,0.5955555555555555,0.1875,1.6242623585179452,2.7211579157395764
1588960182.939996,3.1586665473420443,-0.963999910506533,-9.21666636835511,-0.5822222222222222,-0.4388888888888889,0.5955555555555555,-0.012501118668337224,2.366665920887775,6.533344706461428
1588960182.949996,3.2055207060139628,-1.0111526589463653,-9.187472188270391,-0.5822222222222222,-0.4388888888888889,0.5955555555555555,-0.4059023533798761,0.8303847030308054,10.00511823869404
1588960182.959996,3.2755247842008894,-1.0417492806696311,-9.190699712267852,-0.5934807233993082,-0.4217330775714244,0.5987722701775802,-0.8985968970703636,-2.236424682840701,14.027058674470311
1588960182.969996,3.3200062365626692,-1.0371477572992402,-9.187144639017905,-0.6055555555555555,-0.4033333333333333,0.6022222222222222,-1.285730990792864,-3.642865495396432,17.848406394117937
1588960182.979996,3.413985245644326,-1.1279704912886517,-9.251955736932977,-0.6055555555555555,-0.4033333333333333,0.6022222222222222,-1.604889342332444,-3.9947417987757023,21.239022523936587
1588960182.989996,3.363914562296877,-1.1672055475416674,-9.327205547541666,-0.6055555555555555,-0.4033333333333333,0.6022222222222222,-1.8493793340169276,-4.163828012304697,24.982895297102836
1588960182.999996,3.228624587176859,-1.1268252476938845,-9.270899669741487,-0.6055555555555555,-0.4033333333333333,0.6022222222222222,-1.8978155961735566,-3.542657798086778,27.73377889761986
1588960183.009996,3.2506023406170717,-1.1590903510925608,-9.236969882969147,-0.615319265988306,-0.3854893108183066,0.5958253084904203,-2.3390058515426793,-4.520782183484737,31.687423275227104
1588960183.019996,3.420731335343146,-1.193968788792339,-9.23,-0.6377777777777778,-0.34444444444444444,0.5811111111111111,-2.792265915942543,-6.839102677779748,35.55777620145416
1588960183.029996,3.3434654182038948,-1.2199009947228319,-9.260297015831505,-0.6377777777777778,-0.34444444444444444,0.5811111111111111,-2.967821825526549,-7.243812170176995,39.10334113622566
1588960183.039996,3.179408160138896,-1.225887759791656,-9.258224480416688,-0.6377777777777778,-0.34444444444444444,0.5811111111111111,-2.9411989991319003,-6.128507506510749,41.41957948220395
1588960183.049996,3.179364150342411,-1.263410375856028,-9.26277452619844,-0.6377777777777778,-0.34444444444444444,0.5811111111111111,-3.23410375856028,-6.389811275680841,44.08814849100175
1588960183.059996,3.1078769142281977,-1.2133517866129844,-9.25072614853692,-0.6298696287775302,-0.32862814644394917,0.59266917503455,-3.7395256668344237,-9.001051477460637,49.10335933568193
1588960183.0699959,3.1316026961243213,-1.2507629657367534,-9.251221213255945,-0.6233333333333333,-0.31555555555555553,0.6022222222222222,-3.9375,-10.5,51.875
1588960183.0799959,3.209507844541371,-1.3793822016795783,-9.325801054618841,-0.6233333333333333,-0.31555555555555553,0.6022222222222222,-4.069437211119068,-10.514659690124342,52.40274884447627
1588960183.0899959,2.921791832880461,-1.331875855157927,-9.360284635100498,-0.6233333333333333,-0.31555555555555553,0.6022222222222222,-4.5,-9.696919986124762,55.12374616985604
1588960183.0999959,2.6464718830091964,-1.2411322176993818,-9.280226443539876,-0.6233333333333333,-0.31555555555555553,0.6022222222222222,-4.723703452434796,-9.003834991708127,59.65389906527966
1588960183.1099958,2.9503247666538805,-1.40838746110898,-9.29161253889102,-0.6351830304924538,-0.3131038940743582,0.6046738837034196,-5.4669373055449,-11.217735104206623,69.10244986787708
1588960183.1199958,3.0963815127045864,-1.4618092436477068,-9.281809243647707,-0.6555555555555556,-0.3088888888888889,0.6088888888888889,-5.700726540443426,-10.412965686758406,72.34066701545872
1588960183.1299958,2.9649548422954006,-1.5275225788522997,-9.34380644713075,-0.6555555555555556,-0.3088888888888889,0.6088888888888889,-5.952983882173128,-9.920322703904404,74.52040346672224
1588960183.1399958,2.9895384775808136,-1.51,-9.303487174139729,-0.6555555555555556,-0.3088888888888889,0.6088888888888889,-6.127884515119916,-11.691665797705944,77.33269160583941
1588960183.1499958,3.0025884619284193,-1.572461218696137,-9.323578525803509,-0.6555555555555556,-0.3088888888888889,0.6088888888888889,-6.266973157254385,-13.089463145087702,78.50998998783332
1588960183.1599958,3.1299469226115173,-1.7508946152576865,-9.363631538419229,-0.6644326494692261,-0.2875031626423189,0.6121169230393145,-6.28980288487982,-13.273692316154227,79.8289423024036
1588960183.1699958,3.120233533251951,-1.7351021707977283,-9.310175149938962,-0.68,-0.25,0.6177777777777778,-6.312317552146913,-11.875364895706173,80.625
1588960183.1799958,2.9559968697069103,-1.7,-9.329061769687614,-0.68,-0.25,0.6177777777777778,-6.375,-13.170641174074312,80.77941751892112
1588960183.1899958,2.9577986803666767,-1.8155245794298378,-9.428483932708774,-0.68,-0.25,0.6177777777777778,-6.432762289714919,-14.769405724287298,81.0819057242873
1588960183.1999958,2.963410337857349,-1.9091351429396477,-9.420280103956106,-0.68,-0.25,0.6177777777777778,-6.453562662431418,-14.148065261334104,81.64471736933295
1588960183.2099957,2.805520530417587,-1.853801326043969,-9.37,-0.68,-0.23742545849327285,0.6116438550915694,-6.392251657554961,-12.726241712225194,82.55402320576945
1588960183.2199957,2.7883624498674457,-1.858362449867446,-9.359454149955814,-0.68,-0.20444444444444448,0.5955555555555555,-6.4375,-12.796602032492693,83.1875
1588960183.2299957,2.675351347521081,-1.8648553274913195,-9.38485532749132,-0.68,-0.20444444444444448,0.5955555555555555,-6.40637917188275,-13.560433249875995,83.3742249687035
1588960183.2399957,2.6172304857180464,-1.9771530428677986,-9.46084572857707,-0.68,-0.20444444444444448,0.5955555555555555,-6.403365089289632,-13.835579285682945,84.32835741082006
1588960183.2499957,2.588813494911962,-2.066400793818351,-9.481206350546806,-0.68,-0.20444444444444448,0.5955555555555555,-6.527480154541232,-13.135094265929148,85.76738588861208
1588960183.2599957,2.467319565138349,-2.102268116205505,-9.396185507035597,-0.6884536232411009,-0.1936425925252599,0.6105842190952906,-6.6875,-12.85051630731193,87.42719203359634
1588960183.2699957,2.45,-2.16,-9.35,-0.7,-0.17888888888888888,0.6311111111111111,-6.6875,-13.5,88.4375
1588960183.2799957,2.6340165921888463,-2.3520173135883615,-9.486012263791755,-0.7,-0.17888888888888888,0.6311111111111111,-6.737504508746969,-13.700018034987876,89.78762173616816
1588960183.2899957,2.5756081808396125,-2.3617761033369216,-9.51177610333692,-0.7,-0.17888888888888888,0.6311111111111111,-6.851049515608181,-13.203848223896664,90.25935145317546
1588960183.2999957,2.496573618293975,-2.3634662595800364,-9.473306748083994,-0.7,-0.17888888888888888,0.6311111111111111,-6.937250763287432,-14.126495420275406,89.64516870209982
1588960183.3099957,2.391403361344538,-2.3837394957983196,-9.456915966386555,-0.6982866479925303,-0.1713501400560224,0.6376218487394958,-6.8125,-15.241228991596639,89.40887605042016
1588960183.3199956,2.199555838460994,-2.33579461065139,-9.501145059763774,-0.6944444444444444,-0.15444444444444444,0.6522222222222223,-6.957798465237994,-16.004380613904804,89.97371631657118
1588960183.3299956,2.13,-2.4033026767330132,-9.56,-0.6944444444444444,-0.15444444444444444,0.6522222222222223,-7.083716540837337,-15.565948867536033,91.24195264241592
1588960183.3399956,2.115680252986648,-2.4151141953619115,-9.556931482782854,-0.6944444444444444,-0.15444444444444444,0.6522222222222223,-7.019178232607168,-15.00428232607168,93.18538958186929
1588960183.3499956,1.9289700529450695,-2.3311590006618133,-9.49609447385837,-0.6944444444444444,-0.15444444444444444,0.6522222222222223,-7.314645723031105,-17.87419341495698,95.59656529202515
1588960183.3599956,1.8710703363914374,-2.1990871559633027,-9.46358868501529,-0.7168369011213048,-0.15478372409106353,0.647811586816174,-7.600668960244648,-20.683696483180427,98.00288608562691
1588960183.3699956,1.9622749221535267,-2.4786772868811773,-9.51396813935647,-0.7677777777777778,-0.15555555555555556,0.6377777777777778,-7.660383478496322,-20.61937305383817,101.03042781713977
1588960183.3799956,1.8594431342349713,-2.5062227463060114,-9.516501179188527,-0.7677777777777778,-0.15555555555555556,0.6377777777777778,-7.548955876690571,-17.94718619146171,103.28752947971314
1588960183.3899956,1.7672446629146779,-2.5422832514069955,-9.545433497186009,-0.7677777777777778,-0.15555555555555556,0.6377777777777778,-7.565450535489539,-16.33809010709791,105.52065374842678
1588960183.3999956,1.6956329384900812,-2.573924035148525,-9.520443026361393,-0.7677777777777778,-0.15555555555555556,0.6377777777777778,-7.75,-16.831882403310974,107.13884457379355
1588960183.4099956,1.65,-2.623810640608035,-9.529176981541802,-0.7884617686089999,-0.16565703944987334,0.6269547593195801,-7.736471226927253,-18.201593376764386,107.99351791530944
1588960183.4199955,1.6457917788547836,-2.7604986537425957,-9.51104110572608,-0.8633333333333333,-0.20222222222222225,0.5877777777777777,-7.700650691078801,-20.18085621970921,109.12486313049722
1588960183.4299955,1.5208745787930504,-2.915079865213776,-9.629285151634502,-0.8633333333333333,-0.20222222222222225,0.5877777777777777,-7.777281355301738,-20.788688131810424,110.44443897422433
1588960183.4399955,1.3651037401665362,-2.821587155541243,-9.650207480333073,-0.8633333333333333,-0.20222222222222225,0.5877777777777777,-7.882326217969361,-21.23275405989787,111.42628352578552
1588960183.4499955,1.3085483178853416,-2.6739514675592173,-9.596854831788534,-0.8633333333333333,-0.20222222222222225,0.5877777777777777,-8.019657301321661,-21.76260110925163,112.64314602643323
1588960183.4599955,1.206196516150854,-2.4652099892891366,-9.559013473138283,-0.944086100306293,-0.23226976342146308,0.551157336941203,-7.974470094142849,-21.83362224477141,113.71127177405717
1588960183.4699955,1.101732113920398,-2.307307154431841,-9.501921463295522,-1.15,-0.3088888888888889,0.4577777777777778,-7.818504572798508,-21.044486281604474,114.45551371839552
1588960183.4799955,1.053853966937866,-2.230043530082396,-9.544613152303466,-1.15,-0.3088888888888889,0.4577777777777778,-7.908667798103332,-20.629835596206664,114.87016440379334
1588960183.4899955,1.0031377934393948,-1.9474819920194848,-9.559103487588745,-1.15,-0.3088888888888889,0.4577777777777778,-7.818103202570348,-20.448706405140694,115.0512935948593
1588960183.4999955,0.9128095737810785,-1.911404786890539,-9.487134928963513,-1.15,-0.3088888888888889,0.4577777777777778,-7.625,-21.27738032773652,114.73209330602195
1588960183.5099955,0.8473156118724606,-1.8650471730597065,-9.46865780593623,-1.2757723297293575,-0.26402421014775534,0.344859934654026,-7.582466772260863,-22.053521623855108,114.4606561187246
1588960183.5199955,0.77,-1.78,-9.43,-1.7044444444444444,-0.1111111111111111,-0.04,-7.4375,-22.875,113.6875
1588960183.5299954,0.8381782289904117,-1.762955442752397,-9.421477721376199,-1.7044444444444444,-0.1111111111111111,-0.04,-7.2777072758037225,-23.141321206993794,112.30262972363226
1588960183.5399954,0.6981413754321656,-1.5186349814637397,-9.453388178447952,-1.7044444444444444,-0.1111111111111111,-0.04,-6.707647769400592,-23.40882086474778,107.50986431040947
1588960183.5499954,0.6394159116647792,-1.6129204416761043,-9.468247734994337,-1.7044444444444444,-0.1111111111111111,-0.04,-6.474446135334088,-24.275113250283127,103.96846687429219
1588960183.5599954,0.633704841117509,-1.6210991682661549,-9.434442738323735,-1.6480485296556953,-0.02610558991493092,0.07073358451221537,-5.981456600554489,-25.84958679889102,99.60391074856047
1588960183.5699954,0.6406920587503112,-1.4526594117856253,-9.412659411785626,-1.4,0.3477777777777778,0.5577777777777778,-5.566825367189445,-26.471082719869127,95.2144724207831
1588960183.5799954,0.587420567855332,-1.4403177285786715,-9.478233691059659,-1.4,0.3477777777777778,0.5577777777777778,-5.001985803616698,-25.480782332685482,88.38977601613993
1588960183.5899954,0.6057255769095058,-1.3785488461809885,-9.525646538542965,-1.4,0.3477777777777778,0.5577777777777778,-4.5085757215779445,-24.222049881207216,83.04114964362165
1588960183.5999954,0.6270258377069036,-1.321896649172386,-9.444683891804603,-1.4,0.3477777777777778,0.5577777777777778,-3.9454027048849416,-21.79858447719015,76.8831777351635
1588960183.6099954,0.6511992813295404,-1.2288007186704597,-9.445608624045516,-1.3369711034586016,0.3320538670126932,0.5784320673420839,-3.5025359335229824,-18.102850351849078,70.22807493636772
1588960183.6199954,0.6476454146408677,-1.2274127512154793,-9.344941834143652,-0.8744444444444445,0.21666666666666667,0.73,-3.0161703049032536,-12.53071176899002,61.133550184044246
1588960183.6299953,0.6060245438398192,-1.2526503041067871,-9.367288336293665,-0.8744444444444445,0.21666666666666667,0.73,-2.8253067979977393,-8.393098390656117,54.278681575972875
1588960183.6399953,0.5608735669304054,-1.2827509553797298,-9.450065127294257,-0.8744444444444445,0.21666666666666667,0.73,-2.260919586630066,-5.759291404273642,47.50603503956079
1588960183.6499953,0.5183504699425976,-1.2919073151243718,-9.414433020038269,-0.8744444444444445,0.21666666666666667,0.73,-1.7065079690489708,-2.9146270947665007,35.7458183519418
1588960183.6599953,0.5684075320716372,-1.1825479486853803,-9.38,-0.867296032854905,0.21404794162891458,0.7306369871713451,-1.4295376603581862,-1.9641694716118379,28.090346357805156
1588960183.6699953,0.5159132265315589,-1.245696292860456,-9.371826453063118,-0.65,0.13444444444444445,0.75,-1.0725594962000928,-0.6706613265779428,17.675078941734757
1588960183.6799953,0.5009480144146715,-1.1933180504513505,-9.341896028829343,-0.65,0.13444444444444445,0.75,-0.6516629054126378,0.07759927926642163,11.221331216327112
1588960183.6899953,0.3788289265749935,-1.3335132202750195,-9.502342146850012,-0.65,0.13444444444444445,0.75,-0.22972881335943582,0.22972881335943582,1.4338234426964174
1588960183.6999953,0.4009438567941416,-1.2273213995117982,-9.427321399511797,-0.65,0.13444444444444445,0.75,0.11910089503661514,-0.017219283970707898,-4.99569772172498
1588960183.7099953,0.3594846179696331,-1.1777307304555036,-9.375153820303668,-0.6465068551275132,0.13392906241407754,0.7515461460911007,0.3846634130693795,0.24870161610607033,-10.352402392081386
1588960183.7199953,0.3175544066695539,-1.3878407860545692,-9.46115120181897,-0.5822222222222222,0.12444444444444445,0.78,0.5993699924209615,2.0939648522087486,-17.16229969683846
1588960183.7299953,0.20059633839725202,-1.668210984808244,-9.482218208860086,-0.5822222222222222,0.12444444444444445,0.78,0.7754546017918481,4.30504577003435,-21.672591540068698
1588960183.7399952,0.10124789877441243,-1.9591848772884257,-9.585840337418626,-0.5822222222222222,0.12444444444444445,0.78,1.010399156453437,5.591097680246952,-24.265493673400776
1588960183.7499952,0.10356888694675073,-1.745241484070999,-9.501012963772187,-0.5822222222222222,0.12444444444444445,0.78,1.263766204715234,6.31883102357617,-26.40665511788085
1588960183.7599952,0.027489324249437688,-1.829191576751312,-9.522510675750562,-0.5747730655974617,0.12363475350697048,0.781619381874948,1.3307180460931642,6.471409769534179,-27.725199253512404
1588960183.7699952,0.1512451624516245,-1.5298053730537307,-9.398754837548376,-0.5311111111111111,0.11888888888888888,0.7911111111111111,1.4375,5.73832660201602,-28.66658604086041
1588960183.7799952,0.19,-1.42,-9.36,-0.5311111111111111,0.11888888888888888,0.7911111111111111,1.4375,5.375,-29.3125
1588960183.7899952,0.20871493704520064,-1.4293574685226003,-9.462932153748604,-0.5311111111111111,0.11888888888888888,0.7911111111111111,1.554468356532504,6.018325960928772,-30.365215208792534
1588960183.7999952,0.23440591732902882,-1.3323763306838847,-9.461864694223658,-0.5311111111111111,0.11888888888888888,0.7911111111111111,1.5625,6.977721899838581,-30.69172830551072
1588960183.8099952,0.24651907032181167,-1.2513283671036948,-9.42088557806913,-0.5311111111111111,0.11888888888888888,0.7911111111111111,1.521755810488677,8.491314064362337,-30.790744189511322
1588960183.8199952,0.19361145320197046,-1.1448152709359605,-9.353009544334975,-0.5206687876299946,0.11157926245210728,0.757695675971538,1.6174761391625616,9.363714208743842,-30.577547721674875
1588960183.8299952,0.1540974993482664,-1.2404391681873783,-9.422292498044799,-0.52,0.1111111111111111,0.7555555555555555,1.5625,8.394515661660016,-28.738114634928912
1588960183.8399951,0.17933041891431206,-1.181562355866605,-9.497991256742937,-0.52,0.1111111111111111,0.7555555555555555,1.5625,6.975163936069946,-26.74050850261696
1588960183.8499951,0.18,-1.197203530874081,-9.405380580192555,-0.52,0.1111111111111111,0.7555555555555555,1.616261033981503,5.270907946573409,-24.8596248446289
1588960183.8599951,0.20800729811201013,-1.3867153207467342,-9.41800729811201,-0.52,0.1111111111111111,0.7555555555555555,1.3332573113332276,4.47486316039981,-22.52030117933259
1588960183.869995,0.24138411333970072,-1.3450778016555238,-9.42,-0.5356920566698504,0.09193193073684955,0.7511966509250415,0.9201985832537408,5.025952125119389,-20.413492916268705
1588960183.879995,0.2077372093023256,-1.2337713178294574,-9.369805426356589,-0.54,0.08666666666666667,0.75,0.8077858527131783,5.831356589147287,-17.158149224806202
1588960183.889995,0.1833517441860465,-1.2744137596899225,-9.475475775193798,-0.54,0.08666666666666667,0.75,0.7569828003875969,6.034568798449612,-14.821208817829458
1588960183.899995,0.13938501814173518,-1.384768291002618,-9.512923345427824,-0.54,0.08666666666666667,0.75,0.4080139392825977,4.61699696872273,-10.443608482983512
1588960183.909995,0.06777973512850356,-1.5855594702570073,-9.456665827802071,-0.5370362913796177,0.08802503311767523,0.7470362913796177,0.15276903960489477,2.2985132435748215,-6.277658938626569
1588960183.919995,0.13,-1.71,-9.43,-0.5133333333333333,0.09888888888888887,0.7233333333333334,-0.125,-0.8125,-2.5
1588960183.929995,0.14189201632311396,-1.6851348749607618,-9.432162184786021,-0.5133333333333333,0.09888888888888887,0.7233333333333334,-0.13851365491262949,-1.0962867531652192,-1.7026943601548603
1588960183.939995,0.23844386313696767,-1.483253740713613,-9.449717066024903,-0.5133333333333333,0.09888888888888887,0.7233333333333334,-0.24823166265564506,-3.4003649157685465,4.7706680966830595
1588960183.949995,0.14506679436582506,-1.64,-9.55789312901468,-0.5133333333333333,0.09888888888888887,0.7233333333333334,-0.724499042256312,-2.729830619726217,8.295992338050496
1588960183.959995,0.11043692927558249,-1.64,-9.613300913159069,-0.5133333333333333,0.09888888888888887,0.7233333333333334,-0.9842230304331314,-3.465715252893872,10.373784243465051
1588960183.969995,0.46998020585906564,-3.2433551068883615,-10.689481393507522,-0.5222222222222223,0.10666666666666667,0.7088888888888889,-0.8869754552652415,-9.576590954077593,12.714073634204276
1588960183.979995,3.9074624347757854,-22.130916473773,-23.884601985170075,-0.5222222222222223,0.10666666666666667,0.7088888888888889,11.728216093216682,8.535049433088787,-36.848998587626035
1588960183.989995,2.977736082231551,12.680341912197417,4.583125269724192,-0.5222222222222223,0.10666666666666667,0.7088888888888889,78.32089455255209,92.30298241398252,-259.15027193102907
1588960183.999995,-22.363264516129032,-6.461096774193548,-13.483083870967741,-0.5222222222222223,0.10666666666666667,0.7088888888888889,182.6084677419355,167.72185483870967,-578.8381451612903
1588960184.009995,-1.3280939278937396,1.7762855787476273,-18.186748576850096,-0.5222222222222223,0.10666666666666667,0.7088888888888889,109.4867765654649,14.464759250474373,-471.4935128083491
1588960184.019995,0.7511521962419189,1.8219535576903714,-14.531721346142227,-0.5316395339209671,0.1118033821387093,0.7140256043609315,50.28274852476184,-39.210850804583814,-352.2652067850885
1588960184.029995,0.5040081965795707,-2.0272895951858065,-1.6122870877933217,-0.5344444444444445,0.11333333333333333,0.7155555555555555,-107.27711226201387,-28.512879567345102,-257.48305996991127
1588960184.039995,2.259218558162859,1.439613515710111,-9.996680385273825,-0.5344444444444445,0.11333333333333333,0.7155555555555555,-139.2806896193951,11.876904321361259,-235.8149155268118
1588960184.049995,2.961307784808879,0.6186143473889645,-9.199295049973387,-0.5344444444444445,0.11333333333333333,0.7155555555555555,-30.961053778066905,64.48761630886905,-136.7404673546632
1588960184.059995,0.0921806927277391,-1.5890425217339876,-2.526714175882666,-0.5344444444444445,0.11333333333333333,0.7155555555555555,19.527728083663533,66.76142020028782,-105.88908273700396
1588960184.069995,1.7906131229831481,-0.1908864188677742,-7.475294609776503,-0.6,-0.008888888888888889,0.7088888888888889,4.231522150511932,32.13291054141269,-91.66150750966096
1588960184.079995,3.5200663320186445,-0.3746930401179236,-8.101908091311103,-0.6,-0.008888888888888889,0.7088888888888889,7.469025138440699,-6.873778684116168,-76.25725942193537
1588960184.089995,2.7835415168943203,-1.2082292415528397,-8.162740609273904,-0.6,-0.008888888888888889,0.7088888888888889,5.280400509974839,2.62858189926312,-57.845885660046726
1588960184.099995,2.5862051872948237,-1.3164110702871927,-9.412389068852317,-0.6,-0.008888888888888889,0.7088888888888889,1.4568246298671652,3.884118801226167,-41.54384117442442
1588960184.109995,2.057324173315651,-1.945597104158967,-9.120592647346566,-0.6,-0.008888888888888889,0.7088888888888889,2.1977139813466096,-2.9548598278148575,-16.86652662130139
1588960184.1199949,2.094612580414582,-1.9932394567548248,-9.385634024303073,-0.6344444444444445,-0.06555555555555556,0.6877777777777778,1.1353422087205147,-3.1195005360972123,1.1062946747676912
1588960184.1299949,1.9244685926318579,-2.019573283858998,-9.75276172806785,-0.6344444444444445,-0.06555555555555556,0.6877777777777778,-0.7958686721441823,-7.3404287039491125,2.3776669758812616
1588960184.1399949,1.98,-1.890095627298733,-9.290159378831222,-0.6344444444444445,-0.06555555555555556,0.6877777777777778,0.18696873722926033,-7.684578054760932,3.187035145075603
1588960184.1499949,1.9873066956779744,-1.9758247453268718,-9.42956186331718,-0.6344444444444445,-0.06555555555555556,0.6877777777777778,-0.25378548115913363,-4.637403570368905,2.626047126891504
1588960184.1599948,2.0453822569478786,-1.9426387103154978,-9.346596775788745,-0.6344444444444445,-0.06555555555555556,0.6877777777777778,0.21289313618830985,-2.252157303926417,1.640836712491346
1588960184.1699948,1.9715364292246722,-2.0380794634691597,-9.516543034244487,-0.6322649008117964,-0.06991464282085155,0.6826921759682658,0.045667784439250764,-1.2451711377570032,0.8269040239813027
1588960184.1799948,2.049259259259259,-1.9537037037037037,-9.235185185185186,-0.6311111111111111,-0.07222222222222223,0.68,-0.0625,0.09259259259259267,0.2777777777777778
1588960184.1899948,2.018503934354412,-1.9493110246170955,-9.414606311816543,-0.6311111111111111,-0.07222222222222223,0.68,-0.1831939038568468,-0.3132382179986184,0.1293060961431532
1588960184.1999948,1.99,-1.9379607192059063,-9.491228584549084,-0.6311111111111111,-0.07222222222222223,0.68,-0.06633932671588541,0.06372752481542976,0.1543303366420573
1588960184.2099948,1.953951629789907,-2.008104802121868,-9.560120925525231,-0.6311111111111111,-0.07222222222222223,0.68,0.15020154254205345,0.16229845745794655,0.1875
1588960184.2199948,1.9368498958108786,-2.0394503125673635,-9.62,-0.6311111111111111,-0.07754991896401683,0.6898942939490471,0.12156445354602285,0.2765592440899619,0.059064453546022855
1588960184.2299948,1.9897664102179455,-1.9660146154340696,-9.399605897606241,-0.6311111111111111,-0.08,0.6944444444444444,0.0625,-0.15821153804941823,0.04443429483745152
1588960184.2399948,1.970009837678308,-1.959995081160846,-9.599928676832267,-0.6311111111111111,-0.08,0.6944444444444444,-0.2499231431382194,0.2498462862764388,0.0625
1588960184.2499948,1.97,-2.0337465928075265,-9.61843664820188,-0.6311111111111111,-0.08,0.6944444444444444,-0.07715642310735951,-0.03807262815440077,0.0048854743691198466
1588960184.2599947,1.9471958415841584,-2.032398613861386,-9.612398613861385,-0.6311111111111111,-0.08,0.6944444444444444,-0.014991336633663366,0.2700606435643564,0.09501732673267327
1588960184.2699947,2.009970093238726,-1.9600299067612736,-9.321373365390253,-0.6418009864670277,-0.0858308411032272,0.7012470923982095,0.21865654137101975,0.04701518794347037,0.17966413534275494
1588960184.2799947,1.9830625153223829,-1.9961718558470214,-9.510859279235106,-0.6433333333333333,-0.08666666666666667,0.7022222222222222,-0.03857409904388326,0.057714819808776664,0.12978518019122334
1588960184.2899947,2.007894610778443,-1.9349125748502993,-9.4649125748503,-0.6433333333333333,-0.08666666666666667,0.7022222222222222,-0.12061377245508982,-0.16995508982035928,0.24122754491017964
1588960184.2999947,1.9442076226269633,-1.9863934663197456,-9.647978221065818,-0.6433333333333333,-0.08666666666666667,0.7022222222222222,-0.18374319408306833,-0.1875,-0.04371597041534159
1588960184.3099947,2.0071722102395277,-1.9526821054224845,-9.421165474703901,-0.6433333333333333,-0.08666666666666667,0.7022222222222222,0.04573684110947138,0.04573684110947138,-0.015852631778105725
1588960184.3199947,1.9821080786255216,-1.9938784115462878,-9.471702783779815,-0.6433333333333333,-0.08999249453989432,0.7022222222222222,0.08758443642618893,0.05016887285237785,0.037415563573811074
1588960184.3299947,1.985611583795176,-1.976582624307236,-9.488776832409648,-0.6433333333333333,-0.09222222222222222,0.7022222222222222,0.2294292990398876,0.1669292990398876,0.0625
1588960184.3399947,1.9658712541620422,-1.9941287458379577,-9.576514983351831,-0.6433333333333333,-0.09222222222222222,0.7022222222222222,0.06149417314095451,-0.07640815760266373,-0.050603496115427304
1588960184.3499947,1.9973201182783922,-1.9745099112912057,-9.503954659949622,-0.6433333333333333,-0.09222222222222222,0.7022222222222222,-0.0625,-0.028186945570036148,-0.014093472785018074
1588960184.3599946,2.013659115464319,-1.9663408845356807,-9.377318230928639,-0.6433333333333333,-0.09222222222222222,0.7022222222222222,0.005587018898669832,0.022869471651995252,0.09654350944933492
1588960184.3699946,1.993783452658984,-1.9924330946820323,-9.41216547341016,-0.6357353310276469,-0.07978912754018999,0.6932427649518657,0.023646579118649258,0.1317671044067537,0.24156026264405223
1588960184.3799946,1.9780445239959727,-1.9880445239959728,-9.45,-0.6311111111111111,-0.07222222222222223,0.6877777777777778,0.0747217250251706,0.10055654994965879,0.12569568743707352
1588960184.3899946,2.0089617841704603,-1.9644152863318158,-9.465584713668184,-0.6311111111111111,-0.07222222222222223,0.6877777777777778,0.027595539573849498,0.04870223021307525,-0.14610669063922574
1588960184.3999946,2.007738512906561,-1.9538692564532805,-9.445477025813123,-0.6311111111111111,-0.07222222222222223,0.6877777777777778,-0.07663429433399434,-0.12908573583498584,-0.14918285283300284
1588960184.4099946,1.995210604124383,-1.973946979378085,-9.468315167004937,-0.6311111111111111,-0.07222222222222223,0.6877777777777778,-0.06513255155478714,-0.040463930441755,-0.035198827332180715
1588960184.4199946,1.9845212435233162,-1.9726062176165804,-9.482606217616581,-0.6347636154289004,-0.07222222222222223,0.6914302820955671,0.0,0.08477331606217617,0.028257772020725387
1588960184.4299946,1.9882561353829558,-1.983024541531823,-9.40220705231931,-0.6377777777777778,-0.07222222222222223,0.6944444444444444,0.051600846143473565,0.2580042307173679,0.10320169228694713
1588960184.4399946,1.99,-1.9719600147185086,-9.480199926407458,-0.6377777777777778,-0.07222222222222223,0.6944444444444444,-0.10662486201398258,0.0306252299766957,0.01225009199067828
1588960184.4499946,1.9644841652285003,-1.987010556514333,-9.558042226057333,-0.6377777777777778,-0.07222222222222223,0.6944444444444444,-0.07184201089270906,0.05315798910729094,0.0
1588960184.4599946,1.9878361742424242,-1.9691228693181817,-9.479532433712121,-0.6377777777777778,-0.07222222222222223,0.6944444444444444,-0.10599402225378787,-0.02448804450757576,-0.08698804450757576
1588960184.4699945,1.9931465550647136,-1.9874137797411455,-9.460560334805859,-0.6332088144875868,-0.08212164268430254,0.6944444444444444,-0.039331938308920414,0.06600209253661937,-0.039331938308920414
1588960184.4799945,2.0076624532668683,-1.9735063200996974,-9.408181413565961,-0.6311111111111111,-0.08666666666666667,0.6944444444444444,0.11039033291792771,0.06980483354103614,0.0
1588960184.4899945,1.9844281709094986,-2.0040957721206683,-9.570478860603341,-0.6311111111111111,-0.08666666666666667,0.6944444444444444,0.07172535606145565,0.11577464393854435,0.0
1588960184.4999945,2.0007243743773073,-1.9823675008302564,-9.510194377698333,-0.6311111111111111,-0.08666666666666667,0.6944444444444444,-0.11020311981089687,0.125,0.0
1588960184.5099945,2.001305679472668,-1.978694320527332,-9.47,-0.6311111111111111,-0.08666666666666667,0.6944444444444444,-0.10599074505626206,0.07066049670417471,0.027169751647912643
1588960184.5199945,1.99,-1.9810377217274155,-9.455062869545694,-0.6404053256160134,-0.08235149564653345,0.69676799807067,0.0,0.05601423920365242,0.04382858693211586
1588960184.5299945,1.9852111280802411,-1.9791554876790358,-9.439155487679036,-0.6622222222222223,-0.07222222222222223,0.7022222222222222,0.059860898996986836,0.09770865150451975,0.029930449498493418
1588960184.5399945,1.98,-2.0197862504938757,-9.51935875148163,-0.6622222222222223,-0.07222222222222223,0.7022222222222222,0.16622135519557488,0.04122135519557488,-0.019942710391149754
1588960184.5499945,1.99699554618706,-2.001674089688233,-9.504678543501173,-0.6622222222222223,-0.07222222222222223,0.7022222222222222,0.08127783633087411,-0.008314775779417263,-0.0625
1588960184.5599945,1.9910864126527676,-1.9752716031631918,-9.484185190510425,-0.6622222222222223,-0.07222222222222223,0.7022222222222222,-0.05910496046010065,0.026157440690150968,-0.1807099209202013
1588960184.5699944,1.97,-1.9750934075416342,-9.489813184916732,-0.6424145262269777,-0.07618376142127113,0.6948650779954171,-0.029498608594356712,0.125,-0.089663420053499
1588960184.5799944,1.97,-1.98,-9.51991102241071,-0.6233333333333333,-0.08,0.6877777777777778,0.012611221986611784,0.32455511205355286,0.02522244397322357
1588960184.5899944,1.9867824257369742,-1.988391212868487,-9.513217574263026,-0.6233333333333333,-0.08,0.6877777777777778,0.15733524128413384,0.11277459785977695,0.15733524128413384
1588960184.5999944,1.9731432235584485,-1.99,-9.51,-0.6233333333333333,-0.08,0.6877777777777778,0.1348225736201515,-0.04285485275969704,0.029467720860454433
1588960184.6099944,1.9764397049740217,-1.964241180103913,-9.452042655233804,-0.6233333333333333,-0.08,0.6877777777777778,0.04450368782472841,0.01799631217527159,-0.040248156087635795
1588960184.6199944,1.9721681679576601,-1.9656636640846799,-9.47482282429638,-0.6389969974180131,-0.08,0.6816863528559579,-0.04894895026462444,0.013551049735375562,-0.013551049735375562
1588960184.6299944,1.9933390627039729,-1.97,-9.458881249728035,-0.6433333333333333,-0.08,0.68,0.13199218919977374,-0.048623047299943434,-0.1458691418998303
1588960184.6399944,1.9848147173512596,-1.9851852826487404,-9.533519054568073,-0.6433333333333333,-0.08,0.68,0.14004599172268606,0.03240801655462788,0.0023160331092557662
1588960184.6499944,1.9876621722306342,-1.99,-9.483378277693658,-0.6433333333333333,-0.08,0.68,0.17288857644146416,-0.033277152882928346,0.0625
1588960184.6599944,1.99,-1.99,-9.468971691939235,-0.6433333333333333,-0.08,0.68,0.1033903880696771,0.021609611930322903,0.034463462689892366
1588960184.6699944,1.9909228465600126,-1.9881543068799747,-9.477231460319963,-0.642820640799993,-0.08112792357334875,0.6813330005866849,-0.005767791000078808,0.13076779100007882,0.0
1588960184.6799943,1.9938395620866052,-1.9761604379133948,-9.456160437913395,-0.6377777777777778,-0.09222222222222222,0.6944444444444444,-0.0625,0.07199178912384738,0.03850273695871754
1588960184.6899943,1.99,-1.98,-9.528366051593599,-0.6377777777777778,-0.09222222222222222,0.6944444444444444,-0.019771217754000994,0.042728782245999006,0.0625
1588960184.6999943,1.99,-1.9851559420076268,-9.523908405946614,-0.6377777777777778,-0.09222222222222222,0.6944444444444444,0.09667391264300057,0.15917391264300057,0.030275362452333143
1588960184.7099943,1.985604247429631,-1.985604247429631,-9.468021237148154,-0.6377777777777778,-0.09222222222222222,0.6944444444444444,0.10507963930557897,0.19505309287038597,0.027473453564807012
1588960184.7199943,1.9844530158537326,-1.9755469841462674,-9.44,-0.6313456437668307,-0.08677964728988236,0.6979079012195698,0.0,0.125,0.03466865091417118
1588960184.7299943,1.9842941753284957,-1.97,-9.474234948029025,-0.6233333333333333,-0.08,0.7022222222222222,-0.03566140419690136,0.125,0.03566140419690136
1588960184.7399943,1.98,-1.9985024598832128,-9.521376844912409,-0.6233333333333333,-0.08,0.7022222222222222,-0.017964906432479652,0.035929812864959304,0.0625
1588960184.7499943,1.98,-2.002236491653701,-9.498945966614805,-0.6233333333333333,-0.08,0.7022222222222222,0.09704385432873606,0.1455657814931041,0.013978072835631968
1588960184.7599943,1.9856042741341193,-1.9887914517317613,-9.467582903463523,-0.6233333333333333,-0.08,0.7022222222222222,0.16002671333824614,-0.022660280029476787,0.03502671333824613
1588960184.7699943,1.9714287967819537,-1.9676191978546358,-9.462380802145365,-0.6322750237716519,-0.08,0.6802119072971303,0.07142997988721064,0.044640040225578714,-0.014880013408526252
1588960184.7799942,1.9828110794450855,-1.9752073862967237,-9.439585227406553,-0.6377777777777778,-0.08,0.6666666666666666,-0.0950461643545234,0.1399769178227383,0.0325461643545234
1588960184.7899942,1.99,-1.9644024941084053,-9.531383788295365,-0.6377777777777778,-0.08,0.6666666666666666,-0.027515588177533384,0.125,0.013757794088766692
1588960184.7999942,1.99,-1.9754620903080602,-9.4826895484597,-0.6377777777777778,-0.08,0.6666666666666666,0.14495709663806441,0.028361935574623715,0.14495709663806441
1588960184.8099942,1.994270851258157,-1.975729148741843,-9.46,-0.6377777777777778,-0.08,0.6666666666666666,0.107421538909553,0.0,0.107421538909553
1588960184.8199942,1.9998227593418667,-1.9701772406581333,-9.46,-0.6377777777777778,-0.08,0.6666666666666666,0.0033232623400002714,0.0,0.0033232623400002714
1588960184.8299942,1.9853432505452295,-1.99,-9.476716252726147,-0.6311111111111111,-0.08666666666666667,0.6877777777777778,-0.0916046840923147,-0.05391873636925881,0.029104684092314703
1588960184.8399942,1.975420447351762,-1.997289776324119,-9.543738657944715,-0.6311111111111111,-0.08666666666666667,0.6877777777777778,0.02862220405148766,0.0625,0.09112220405148766
1588960184.8499942,1.9805551204066327,-1.9894448795933672,-9.528334638780102,-0.6311111111111111,-0.08666666666666667,0.6877777777777778,0.1284695025414549,0.1284695025414549,0.05903049745854512
1588960184.8599942,1.99,-1.9873183981927225,-9.489022402710917,-0.6311111111111111,-0.08666666666666667,0.6877777777777778,0.1417600112954845,0.07315002823871125,0.022869994352257752
1588960184.8699942,1.99,-1.989801010680636,-9.46320067378709,-0.6333775531820809,-0.08666666666666667,0.6851335953616464,-0.0012436832460248348,-0.10375210558465839,0.0625
1588960184.8799942,1.99,-1.97,-9.45,-0.6377777777777778,-0.08666666666666667,0.68,-0.0948530540208717,-0.01727958103130755,0.04742652701043585
1588960184.8899941,1.99,-1.981054173679945,-9.458290630259958,-0.6377777777777778,-0.08666666666666667,0.68,0.05181643912474285,0.125,0.0
1588960184.8999941,1.99,-2.0019720715666103,-9.473979053674958,-0.6377777777777778,-0.08666666666666667,0.68,0.149869085468487,0.125,0.0
1588960184.9099941,1.9941112189224872,-1.9976663432325383,-9.459443905387564,-0.6377777777777778,-0.08666666666666667,0.68,0.13610976346891057,0.125,-0.02569511826554472
1588960184.919994,1.998194291584122,-1.98,-9.433611416831756,-0.6387809491199322,-0.08666666666666667,0.6826082454896014,0.07378567759923692,0.11371432240076308,-0.03992864480152616
1588960184.929994,1.99,-1.9760185598830362,-9.446018559883036,-0.6433333333333333,-0.08666666666666667,0.6944444444444444,0.05034799780692849,0.03761599926897616,0.0625
1588960184.939994,1.9849546889736336,-1.97,-9.500543732316398,-0.6433333333333333,-0.08666666666666667,0.6944444444444444,-0.030966806085209332,0.0,0.0625
1588960184.949994,1.98,-1.9754724726926178,-9.538110109229528,-0.6433333333333333,-0.08666666666666667,0.6944444444444444,0.034202954328861515,0.06840590865772303,0.0625
1588960184.959994,1.9840755100593395,-1.98,-9.499622449703303,-0.6433333333333333,-0.08666666666666667,0.6944444444444444,0.0625,0.04858418638738504,0.0625
1588960184.969994,1.9933991704920673,-1.9901975114762018,-9.459802488523799,-0.6433333333333333,-0.08175675373368053,0.6970882437160524,0.02001036884915841,-0.10498963115084159,0.0837448155754208
1588960184.979994,1.9932617173129277,-1.9998925759693913,-9.446738282687072,-0.6433333333333333,-0.07222222222222223,0.7022222222222222,-0.08355713339710102,-0.16644286660289898,0.06182859980869693
1588960184.989994,1.992336376295838,-1.98,-9.52168188147919,-0.6433333333333333,-0.07222222222222223,0.7022222222222222,-0.04789764815101345,-0.0093464722265202,-0.13960235184898656
1588960184.999994,1.986916890080429,-1.9865415549597856,-9.533833780160858,-0.6433333333333333,-0.07222222222222223,0.7022222222222222,-0.04088471849865952,-0.019269436997319034,-0.10573056300268097
1588960185.009994,1.98,-1.99,-9.483747351843865,-0.6433333333333333,-0.07222222222222223,0.7022222222222222,0.0022368717073810856,0.0022368717073810856,-0.09486843585369054
1588960185.019994,1.98,-1.9946291647649474,-9.445370835235051,-0.6407615751305847,-0.08148055175211724,0.6986217607383741,-0.024296839342765872,0.09143227978092196,-0.03820316065723413
1588960185.029994,1.9852106580104145,-1.9843680259687564,-9.434789341989585,-0.6377777777777778,-0.09222222222222222,0.6944444444444444,-0.05986677486981809,-0.00526645026036382,-0.00263322513018191
1588960185.039994,1.9845756892756055,-1.9754243107243945,-9.48966741796834,-0.6377777777777778,-0.09222222222222222,0.6944444444444444,-0.03390194202746619,-0.19280388405493237,-0.028598057972533807
1588960185.049994,1.9851998470883065,-1.98,-9.529600305823386,-0.6377777777777778,-0.09222222222222222,0.6944444444444444,0.034997132905746936,-0.08750477849042179,0.06499808860383129
1588960185.059994,1.99,-1.9839570759252818,-9.496257544448309,-0.6377777777777778,-0.09222222222222222,0.6944444444444444,0.05080482640096569,0.03776827546698856,0.07553655093397713
1588960185.069994,1.99,-1.9858179121582904,-9.45581791215829,-0.634989719216638,-0.08989884008793908,0.6916563858833047,-0.03636195098931473,-0.026138049010685272,0.0
1588960185.079994,1.99,-1.98,-9.463034730412435,-0.6311111111111111,-0.08666666666666667,0.6877777777777778,-0.0543113767184777,-0.0625,0.02715568835923885
1588960185.089994,1.9866196067628525,-1.98,-9.50704314589718,-0.6311111111111111,-0.08666666666666667,0.6877777777777778,-0.14612745773217176,-0.020245084535656488,0.041372542267828244
1588960185.099994,1.984220744236164,-1.975779255763836,-9.551558511527672,-0.6311111111111111,-0.08666666666666667,0.6877777777777778,-0.10836104557192487,0.03612034852397496,-0.10551860590410019
1588960185.109994,1.99,-1.972727982275039,-9.515448159524649,-0.6311111111111111,-0.08666666666666667,0.6877777777777778,-0.03409977843798781,0.0,-0.18180044312402438
1588960185.119994,1.99,-1.9853350762883228,-9.45,-0.6311111111111111,-0.08666666666666667,0.6877777777777778,-0.09165577319798199,-0.016672113401009006,-0.016672113401009006
1588960185.129994,1.9857298290235976,-1.9935947435353965,-9.441459658047195,-0.6311111111111111,-0.08666666666666667,0.6877777777777778,0.0,-0.035811431397484814,-0.0625
1588960185.139994,1.9810692991337608,-1.9755346495668804,-9.470881145235685,-0.6311111111111111,-0.08666666666666667,0.6877777777777778,0.0,-0.006683119586005176,-0.0625
1588960185.149994,1.99,-1.965287576903539,-9.50528757690354,-0.6311111111111111,-0.08666666666666667,0.6877777777777778,0.0,-0.03184911854903953,-0.0011982370980790635
1588960185.159994,1.986523387228865,-1.9604298383134051,-9.479570161686595,-0.6311111111111111,-0.08666666666666667,0.6877777777777778,0.021728829819594262,0.0,0.0625
1588960185.1699939,1.9841320954283699,-1.9841320954283699,-9.45173580914326,-0.6384570585393243,-0.08666666666666667,0.6877777777777778,0.010848807145375484,0.025825596427312258,0.010848807145375484
1588960185.1799939,1.9857469172845004,-1.9814938345690005,-9.422987669138001,-0.6488888888888888,-0.08666666666666667,0.6877777777777778,-0.08908176697187324,0.00933646605625351,-0.0625
1588960185.1899939,1.98,-1.97,-9.453644123440577,-0.6488888888888888,-0.08666666666666667,0.6877777777777778,-0.125,-0.08644826939311509,-0.11039653878623018
1588960185.1999938,1.98,-1.97,-9.530059290748405,-0.6488888888888888,-0.08666666666666667,0.6877777777777778,-0.09393528358876832,-0.06287056717753664,-0.12537056717753664
1588960185.2099938,1.9879037563451776,-1.9779037563451776,-9.500240609137055,-0.6488888888888888,-0.08666666666666667,0.6877777777777778,-0.0625,0.024699238578680203,-0.0378007614213198
1588960185.2199938,1.9963490013515544,-1.99,-9.459047004054662,-0.6423982246249853,-0.08423266756770285,0.6902117768767416,-0.0625,0.0396812584472143,-0.045637483105571405
1588960185.2299938,1.99,-1.99,-9.443614315496871,-0.6311111111111111,-0.08,0.6944444444444444,-0.03991052814454482,-0.022589471855455175,-0.10241052814454482
1588960185.2399938,1.99,-1.99,-9.466627664689854,-0.6311111111111111,-0.08,0.6944444444444444,0.012990363038948549,-0.07549036303894854,-0.04950963696105145
1588960185.2499938,1.99,-1.99,-9.53,-0.6311111111111111,-0.08,0.6944444444444444,0.038018036319954776,-0.07603607263990955,0.02448196368004522
1588960185.2599938,1.9935884447205563,-1.988205777639722,-9.517440443478053,-0.6311111111111111,-0.08,0.6944444444444444,-0.01121388975173831,0.0,0.040072220496523384
1588960185.2699938,2.0048098327074086,-1.981730055764197,-9.453079776943213,-0.634186765803017,-0.0832678831101501,0.6932910739349797,-0.08412569705246387,0.02162569705246387,-0.0625
1588960185.2799938,1.982436682740345,-1.9948733654806898,-9.42,-0.6488888888888888,-0.09888888888888887,0.6877777777777778,-0.12658293149137667,0.09454146574568834,-0.04727073287284417
1588960185.2899938,1.99,-1.994259928569901,-9.493453666673796,-0.6488888888888888,-0.09888888888888887,0.6877777777777778,0.09529181547937296,0.03279181547937295,0.0
1588960185.2999938,1.9762538634937603,-1.9570897724896006,-9.50501545397504,-0.6488888888888888,-0.09888888888888887,0.6877777777777778,0.06772443122400129,0.033862215612000646,-0.02863778438799935
1588960185.3099937,1.9672531537143747,-1.9336265768571872,-9.436373423142813,-0.6488888888888888,-0.09888888888888887,0.6877777777777778,-0.045332210714841926,0.022666105357420963,-0.10783221071484192
1588960185.3199937,1.9772177382787703,-1.9372177382787703,-9.42721773827877,-0.6488888888888888,-0.09548834678516369,0.6917966002639985,-0.10761086424231432,0.010332592726942959,-0.15272172848462864
1588960185.3299937,1.9779134453229374,-1.9339567226614687,-9.416043277338531,-0.6488888888888888,-0.08666666666666667,0.7022222222222222,-0.0625,-0.125,-0.0625
1588960185.3399937,1.9790245767897205,-1.947316948806853,-9.450243218437691,-0.6488888888888888,-0.08666666666666667,0.7022222222222222,-0.08536546502141545,-0.10213453497858455,0.0060963950642463904
1588960185.3499937,1.9568538145356016,-1.950561443606805,-9.504269072678008,-0.6488888888888888,-0.08666666666666667,0.7022222222222222,-0.125,-0.0625,0.06600902254253221
1588960185.3599937,1.9525984875371973,-1.9325984875371973,-9.463503781157007,-0.6488888888888888,-0.08666666666666667,0.7022222222222222,-0.11687972644625844,-0.07874054710748314,-0.04625945289251686
1588960185.3699937,1.97,-1.9454697548909377,-9.42,-0.6476304874697049,-0.08666666666666667,0.7004604602353647,-0.09081403193163931,-0.1591859680683607,0.048342984034180345
1588960185.3799937,1.9685760920841588,-1.931423907915841,-9.417152184168318,-0.6433333333333333,-0.08666666666666667,0.6944444444444444,-0.16970115105198602,-0.07139942447400699,-0.008899424474006982
1588960185.3899937,1.9606615718464007,-1.9393384281535992,-9.401323143692801,-0.6433333333333333,-0.08666666666666667,0.6944444444444444,-0.07076964808000755,-0.12086517595999623,-0.05836517595999623
1588960185.3999937,1.977965409186129,-1.947965409186129,-9.485757864302903,-0.6433333333333333,-0.08666666666666667,0.6944444444444444,-0.03706761482661311,0.0,-0.11228380741330656
1588960185.4099936,1.9707039351811775,-1.9407039351811775,-9.434927546268243,-0.6433333333333333,-0.08666666666666667,0.6944444444444444,0.05370081023527987,0.0,-0.06689959488236007
1588960185.4199936,1.96,-1.9310630273169243,-9.418936972683076,-0.6439239040649579,-0.08666666666666667,0.6922002756642709,-0.06914392073077677,-0.006643920730776777,-0.05585607926922322
1588960185.4299936,1.960669674326801,-1.94,-9.408325814182998,-0.6488888888888888,-0.08666666666666667,0.6733333333333333,-0.11872180318623995,-0.060407267728746654,0.0
1588960185.4399936,1.9773294712643679,-1.94,-9.408069517241378,-0.6488888888888888,-0.08666666666666667,0.6733333333333333,0.0625,0.01669080459770115,0.01669080459770115
1588960185.4499936,1.971457577449065,-1.94,-9.53416969020374,-0.6488888888888888,-0.08666666666666667,0.6733333333333333,0.07616478858498466,0.057945070471671786,0.053390140943343566
1588960185.4599936,1.99,-1.9426389175080705,-9.45472216498386,-0.6488888888888888,-0.08666666666666667,0.6733333333333333,0.15104059344735216,0.01649323442544131,-0.04600676557455869
1588960185.4699936,1.99,-1.9498411635414519,-9.440317672917095,-0.6488888888888888,-0.08666666666666667,0.6733333333333333,-0.11904363280445085,0.06150727213407515,-0.0009927278659248515
1588960185.4799936,1.9588558450462803,-1.9377860387384298,-9.39106980630785,-0.6311111111111111,-0.08,0.6944444444444444,0.03482548423037367,-0.02098822634556051,-0.048662742115186834
1588960185.4899936,1.99,-1.933578658322424,-9.444314633289697,-0.6311111111111111,-0.08,0.6944444444444444,-0.04013338548484945,0.125,0.0
1588960185.4999936,1.99,-1.95,-9.505905845548352,-0.6311111111111111,-0.08,0.6944444444444444,0.011323069354391098,0.04823460403158665,0.02558846532280445
1588960185.5099936,1.99,-1.9467388665036158,-9.47717206552531,-0.6311111111111111,-0.08,0.6944444444444444,-0.10326416870480179,-0.0828820843524009,0.042117915647599105
1588960185.5199935,1.9884029801687302,-1.9407985099156349,-9.429201490084365,-0.632530684294462,-0.08,0.6944444444444444,-0.16753725210912676,-0.1200093130272817,0.004990686972718308
1588960185.5299935,1.9700210364851538,-1.949989481757423,-9.420010518242577,-0.6488701897909742,-0.08,0.6944444444444444,0.062237043935575775,-0.06256573901610606,0.062434260983893944
1588960185.5399935,1.9929055420896284,-1.942364819303457,-9.42,-0.6488888888888888,-0.08,0.6944444444444444,0.1102198793533925,0.032939758706785005,0.0625
1588960185.5499935,1.98,-1.96,-9.508560817084494,-0.6488888888888888,-0.08,0.6944444444444444,0.05890204271123491,0.0035979572887650884,0.0625
1588960185.5599935,1.98,-1.96,-9.468821745968583,-0.6488888888888888,-0.08,0.6944444444444444,-0.04044563507854396,0.10294563507854396,0.0625
1588960185.5699935,1.9802324827865532,-1.9304649655731065,-9.42930255164034,-0.6486305746816075,-0.08,0.6944444444444444,-0.06395301741595788,0.12209396516808424,-0.0014530174159578778
1588960185.5799935,1.9887264074524098,-1.9474528149048198,-9.403820777642771,-0.6391928806084335,-0.08,0.6944444444444444,-0.11704004657756177,0.015919906844876458,-0.05454004657756177
1588960185.5899935,1.9813507663507663,-1.9354030654030654,-9.436753831753832,-0.6377777777777778,-0.08,0.6944444444444444,-0.09123084123084124,0.0625,0.016884579384579382
1588960185.5999935,1.9895296595296594,-1.9681186381186382,-9.477648297648297,-0.6377777777777778,-0.08,0.6944444444444444,0.11324148824148822,0.0625,0.11912074412074411
1588960185.6099935,1.977774229753869,-1.945548459507738,-9.476645378523214,-0.6377777777777778,-0.08,0.6944444444444444,0.09717787192336269,0.013911064038318658,0.17358893596168135
1588960185.6199934,1.9711438688566054,-1.9322877377132106,-9.436863213139633,-0.6377777777777778,-0.08,0.6944444444444444,0.014298360707567306,0.05535081964621635,0.13214918035378365
1588960185.6299934,1.9674221227841566,-1.94,-9.412577877215844,-0.6166666666666667,-0.08,0.68,-0.016111732599021465,0.125,0.03027653480195707
1588960185.6399934,1.96305126541207,-1.94,-9.44746138870863,-0.6166666666666667,-0.08,0.68,-0.0625,0.08685918234912395,-0.024359182349123945
1588960185.6499934,1.97,-1.947015280763807,-9.488954157708578,-0.6166666666666667,-0.08,0.68,-0.018654495226206165,0.043845504773793835,0.04057724761310308
1588960185.6599934,1.97,-1.96,-9.439628243746375,-0.6166666666666667,-0.08,0.68,0.0625,0.07638239256113305,0.0
1588960185.6699934,1.9704736503079834,-1.9590526993840331,-9.41,-0.6176665950946317,-0.08057890593197972,0.6813683231119522,0.056579371150207336,-0.053619056725311004,0.0
1588960185.6799934,1.9789166230524577,-1.9421667538950842,-9.41,-0.6354906486662999,-0.0908980948418929,0.7057591332626559,-0.04895778815572287,0.1046866822335843,0.0
1588960185.6899934,1.98,-1.9329076624636274,-9.395815324927256,-0.6377777777777778,-0.09222222222222222,0.7088888888888889,0.07048132880698352,0.08067289039767217,-0.04432710960232784
1588960185.6999934,1.98,-1.93,-9.528013312852021,-0.6377777777777778,-0.09222222222222222,0.7088888888888889,0.06338691390534709,-0.06072617218930583,0.12233925828395875
1588960185.7099934,1.9625651580105465,-1.9374348419894534,-9.45230452596836,-0.6377777777777778,-0.09222222222222222,0.7088888888888889,0.07853223756591676,-0.10733881217041619,0.15543552486816647
1588960185.7199934,1.970822951605175,-1.93,-9.43,-0.6365890699036363,-0.09121639248256402,0.7059628387371559,0.11985655246765692,0.11471310493531385,0.06764344753234308
1588960185.7299933,1.98,-1.9348088013108335,-9.432404400655416,-0.6233333333333333,-0.08,0.6733333333333333,0.03244499180729045,-0.015027504096354777,0.07991748771093568
1588960185.7399933,1.978819807739523,-1.948819807739523,-9.448261345823338,-0.6233333333333333,-0.08,0.6733333333333333,-0.055123798372018355,-0.04774759674403671,-0.04774759674403671
1588960185.7499933,1.970898411679163,-1.940898411679163,-9.503711118245858,-0.6233333333333333,-0.08,0.6733333333333333,-0.005615072994768551,0.0512698540104629,0.0512698540104629
1588960185.7599933,1.9717208715330161,-1.931720871533016,-9.48623302773587,-0.6233333333333333,-0.08,0.6733333333333333,0.051744552918649184,0.1854673175118951,0.0625
1588960185.7699933,1.9778052106301496,-1.9378052106301495,-9.437558314958803,-0.6233333333333333,-0.08,0.6733333333333333,0.013717433561564352,-0.04269539863061389,0.0625
1588960185.7799933,1.970083949704142,-1.94,-9.380335798816569,-0.6552850509533202,-0.08,0.6799440335305721,0.06197531434911243,0.060925943047337255,0.0625
1588960185.7899933,1.97,-1.9476464550186963,-9.387646455018697,-0.6555555555555556,-0.08,0.68,0.014709656133147592,-0.08087103160055722,0.11029034386685241
1588960185.7999933,1.971301212440696,-1.9313012124406959,-9.51783131259884,-0.6555555555555556,-0.08,0.68,0.002710859251449657,0.06792171850289931,0.0625
1588960185.8099933,1.9978334211913549,-1.9578334211913548,-9.473610964681075,-0.6555555555555556,-0.08,0.68,0.05798629414865577,0.17847258829731155,0.0625
1588960185.8199933,1.9734205865439907,-1.9511401955146637,-9.452280391029326,-0.6555555555555556,-0.08,0.68,0.1178737780333525,0.0213786658999425,0.0625
1588960185.8299932,1.97,-1.9391479373276215,-9.45542603133619,-0.648923739477991,-0.08,0.6727652915517478,0.023261912446452676,0.0,0.1303253917023649
1588960185.8399932,1.97,-1.9320989724491586,-9.470494862245793,-0.6433333333333333,-0.08,0.6666666666666666,-0.0756185778072416,0.026237155614483202,0.1481442665782752
1588960185.8499932,1.9708085578537085,-1.9391914421462915,-9.508382884292583,-0.6433333333333333,-0.08,0.6666666666666666,-0.11741977012148283,0.11994651341432189,-0.0025267432928390565
1588960185.8599932,1.9853496490301155,-1.9215501169899614,-9.462249415050193,-0.6433333333333333,-0.08,0.6666666666666666,0.0625,0.0,-0.0625
1588960185.8699932,1.9616065363423654,-1.9294644878858782,-9.422677560570609,-0.6433333333333333,-0.08,0.6666666666666666,0.0625,0.0,-0.0625
1588960185.8799932,1.9813760122051403,-1.9413760122051402,-9.40862398779486,-0.6433333333333333,-0.09222222222222222,0.6877777777777778,-0.017200152564253023,-0.008600076282126511,0.0
1588960185.8899932,1.9895798615186011,-1.949579861518601,-9.4004201384814,-0.6433333333333333,-0.09222222222222222,0.6877777777777778,-0.1197482689825138,-0.0598741344912569,0.0
1588960185.8999932,1.9823257159386751,-1.9653485681226497,-9.469068556551925,-0.6433333333333333,-0.09222222222222222,0.6877777777777778,-0.0770357246167197,-0.0625,-0.047964275383280304
1588960185.9099932,1.9703721063160904,-1.9303721063160904,-9.449255787367818,-0.6433333333333333,-0.09222222222222222,0.6877777777777778,0.0,0.002325664475564447,0.0625
1588960185.9199932,1.9783635324378395,-1.9383635324378394,-9.433272935124322,-0.6433333333333333,-0.09222222222222222,0.6877777777777778,0.0,0.05227207773649614,0.0625
1588960185.9299932,1.97,-1.9306278197532205,-9.390627819753222,-0.6377777777777778,-0.08666666666666667,0.6877777777777778,0.0625,0.12107612654237104,-0.05465225308474208
1588960185.9399931,1.97,-1.9382274283850627,-9.398227428385063,-0.6377777777777778,-0.08666666666666667,0.6877777777777778,0.0625,0.07357857259335762,0.04034285481328477
1588960185.9499931,1.9905102198524014,-1.9410204397048028,-9.516938680885591,-0.6377777777777778,-0.08666666666666667,0.6877777777777778,-0.05293337776747421,0.0625,-0.006377748155017194
1588960185.9599931,1.9986132684208493,-1.9572265368416986,-9.468320389474904,-0.6377777777777778,-0.08666666666666667,0.6877777777777778,0.09899878289092384,0.0625,-0.10766585526061591
1588960185.969993,1.973291933418694,-1.933291933418694,-9.433291933418694,-0.6377777777777778,-0.08666666666666667,0.6877777777777778,-0.04192541613316261,0.0625,-0.013716389244558258
1588960185.979993,1.985844325234038,-1.953766487851057,-9.398311349531925,-0.6324963360330984,-0.09106786812056614,0.7045023433025958,0.03652703271273798,0.0625,0.0
1588960185.989993,1.9686948786942116,-1.9313051213057884,-9.413051213057885,-0.6311111111111111,-0.09222222222222222,0.7088888888888889,0.0081570081611777,0.0543429918388223,-0.1168429918388223
1588960185.999993,1.9607039219570168,-1.939296078042983,-9.498592156085966,-0.6311111111111111,-0.09222222222222222,0.7088888888888889,0.0625,0.008799024462711696,-0.06689951223135585
1588960186.009993,1.9683667254665305,-1.9308166372667346,-9.475100176399591,-0.6311111111111111,-0.09222222222222222,0.7088888888888889,0.057396017082907806,0.11479203416581561,-0.11989601708290781
1588960186.019993,1.952790455853681,-1.9386047720731594,-9.428371367561043,-0.6311111111111111,-0.09222222222222222,0.7088888888888889,0.008720174542753693,0.017440349085507387,-0.0712201745427537
1588960186.029993,1.9882095693779904,-1.949104784688995,-9.4,-0.6488888888888888,-0.08666666666666667,0.6666666666666666,-0.01119019138755981,0.1138098086124402,0.005595095693779905
1588960186.039993,1.970853358520406,-1.940853358520406,-9.409386943724465,-0.6488888888888888,-0.08666666666666667,0.6666666666666666,-0.10899952774238897,0.005333490752537012,0.04649952774238897
1588960186.049993,1.98,-1.9499198492528995,-9.509599246264496,-0.6488888888888888,-0.08666666666666667,0.6666666666666666,0.0625,0.0625,-0.12449905783062183
1588960186.059993,1.978688194903324,-1.94,-9.458688194903324,-0.6488888888888888,-0.08666666666666667,0.6666666666666666,0.05430121814577528,0.05020182721866291,-0.05840060907288764
1588960186.069993,1.9666380325796535,-1.94,-9.446638032579653,-0.6488888888888888,-0.08666666666666667,0.6666666666666666,-0.021012296377165507,-0.06276844456574826,-0.020743851811417247
1588960186.079993,1.9735058789790652,-1.9332470605104675,-9.419741181531402,-0.6488888888888888,-0.0821647070069783,0.6756705859860435,-0.0625,0.12823523085747063,-0.08441174361915686
