time,acc_x,acc_y,acc_z,mag_x,mag_y,mag_z,gyr_x,gyr_y,gyr_z
1588960219.5140278,1.17,-2.17,-9.57,-0.5866666666666667,0.06555555555555556,0.6533333333333333,-0.4375,-6.4375,-1.25
1588960219.5240278,1.1286466816842835,-2.19,-9.592706636631432,-0.5866666666666667,0.06555555555555556,0.6533333333333333,-0.6129907198829396,-7.82476799707349,-1.7344396792391075
1588960219.5340278,1.2013255934846647,-2.19,-9.44734881303067,-0.5866666666666667,0.06555555555555556,0.6533333333333333,-0.5120477868268546,-5.301194670671364,-1.0783106143745547
1588960219.5440278,1.263202535031585,-2.1747992757052614,-9.414799275705262,-0.5866666666666667,0.07062246365380176,0.6752899350924001,-0.4049954731578839,-1.294823453157472,-0.3824705755262454
1588960219.5540278,1.31,-2.1877213442582333,-9.407595519139223,-0.5866666666666667,0.07222222222222223,0.6822222222222222,-0.2547471994620136,1.207275204841878,0.24050560107597288
1588960219.5640278,1.31,-2.165453483639195,-9.481821721202683,-0.5866666666666667,0.07222222222222223,0.6822222222222222,-0.3011385757516768,0.789752818234909,0.14772284849664644
1588960219.5740278,1.2251230221818457,-2.1887807555454613,-9.468780755545462,-0.5866666666666667,0.07222222222222223,0.6822222222222222,-0.14024055568173216,-0.5899055568173215,-0.13262027784086608
1588960219.5840278,1.1933696721932017,-2.1808424180483006,-9.460842418048301,-0.5866666666666667,0.07222222222222223,0.6822222222222222,-0.23946977439624498,-1.58219774396245,-0.18223488719812247
1588960219.5940278,1.1613409788240028,-2.1713409788240026,-9.504022936472008,-0.5866666666666667,0.045555555555555564,0.6611111111111111,-0.09985664704994718,-2.7957377646999646,-0.4458811176500176
1588960219.6040277,1.1773698408416509,-2.1836849204208257,-9.541054761262476,-0.5866666666666667,0.045555555555555564,0.6611111111111111,0.09704612894523873,-2.5953769894793632,-0.5
1588960219.6140277,1.2196296378483933,-2.196148144860643,-9.572666651872892,-0.5866666666666667,0.045555555555555564,0.6611111111111111,0.23796295268950826,-1.9708331484111485,-0.4398147634475413
1588960219.6240277,1.258919685896439,-2.18,-9.489196858964391,-0.5866666666666667,0.045555555555555564,0.6611111111111111,0.17399607370548903,-1.0017323316747007,-0.18074803685274451
1588960219.6340277,1.2507671823977609,-2.18,-9.407671823977608,-0.5866666666666667,0.045555555555555564,0.6611111111111111,0.07208977997201058,-0.5431540098740476,-0.1297948899860053
1588960219.6440277,1.1653575406549341,-2.1884642459345067,-9.391535754065494,-0.575381005420658,0.0624840474245687,0.6733372441276206,-0.14910614836266428,-0.07678770327467144,0.13950768545333037
1588960219.6540277,1.1835142321871033,-2.1923428214580687,-9.457571160935517,-0.5733333333333334,0.06555555555555556,0.6755555555555556,-0.07714263411293085,1.4301786829435346,0.3125
1588960219.6640277,1.208862029370883,-2.209241352913922,-9.584310146854415,-0.5733333333333334,0.06555555555555556,0.6755555555555556,-0.18275845571201224,1.3773707721439938,0.3125
1588960219.6740277,1.24,-2.1984158210379965,-9.556831642075993,-0.5733333333333334,0.06555555555555556,0.6755555555555556,-0.20730223702504721,-1.2803246072755192,-0.2846539147938326
1588960219.6840277,1.24,-2.1810081138849116,-9.522016227769823,-0.5733333333333334,0.06555555555555556,0.6755555555555556,-0.4248985764386063,-3.6738843408246695,-0.6654475087675611
1588960219.6940277,1.2811073631679875,-2.1633220895039624,-9.496677910496038,-0.5933333333333334,0.08,0.6611111111111111,-0.25692101979992144,-5.263420395998429,-1.0901840791996857
1588960219.7040277,1.2855028083028084,-2.1905621489621487,-9.473935042735043,-0.5933333333333334,0.08,0.6611111111111111,-0.33006715506715506,-6.522564102564102,-1.333580586080586
1588960219.7140276,1.2308761904761905,-2.1973904761904763,-9.521733333333334,-0.5933333333333334,0.08,0.6611111111111111,-0.543452380952381,-8.315,-1.5896428571428571
1588960219.7240276,1.129444510280263,-2.2096296735201753,-9.469444510280264,-0.5933333333333334,0.08,0.6611111111111111,-1.063657270249452,-11.826965878118148,-2.3153931756236297
1588960219.7340276,1.092166261776382,-2.1847775078509213,-9.432166261776382,-0.5933333333333334,0.08,0.6611111111111111,-1.1413202879658708,-12.797753599573383,-2.5095507199146767
1588960219.7440276,1.042272819927433,-2.1907953850544253,-9.389204614945575,-0.5833207405293508,0.06459601107079602,0.6857574933978374,-1.1875,-12.681820498185822,-2.4517051245464554
1588960219.7540276,1.0432136755418195,-2.180179486687271,-9.446068377709098,-0.5788888888888889,0.057777777777777775,0.6966666666666667,-1.022329055727257,-10.888461501545313,-2.1685363196590712
1588960219.7640276,1.0886140504415627,-2.1603464873896097,-9.566881613493516,-0.5788888888888889,0.057777777777777775,0.6966666666666667,-0.5754932771103509,-7.832290755032222,-1.5194899156655262
1588960219.7740276,1.09,-2.152331161192748,-9.577668838807252,-0.5788888888888889,0.057777777777777775,0.6966666666666667,-0.5625,-6.264162481094909,-1.3562092723640233
1588960219.7840276,1.0814341378307648,-2.15,-9.494341378307649,-0.5788888888888889,0.057777777777777775,0.6966666666666667,-0.4018900843268392,-5.009450421634196,-1.2054267228845594
1588960219.7940276,1.0654929936305733,-2.1645070063694267,-9.465492993630575,-0.5748591648973815,0.04891238499646144,0.6757121019108281,-0.3296656050955414,-4.330987261146497,-0.8701592356687898
1588960219.8040276,1.0593539006950945,-2.1790308510426417,-9.482907446872074,-0.5733333333333334,0.045555555555555564,0.6677777777777778,-0.31048093967217033,-3.2540381206556592,-0.6310571809834891
1588960219.8140275,1.0426465374733613,-2.153969806210042,-9.558090581369875,-0.5733333333333334,0.045555555555555564,0.6677777777777778,-0.2582704296042542,-3.3584591407914917,-0.7876887111872374
1588960219.8240275,1.030624352744364,-2.1787512945112724,-9.538126941766908,-0.5733333333333334,0.045555555555555564,0.6677777777777778,-0.30859779534772563,-3.984326455827292,-0.8164022046522743
1588960219.8340275,1.0389775352505377,-2.162044929498925,-9.513067394248386,-0.5733333333333334,0.045555555555555564,0.6677777777777778,-0.25639040468413926,-4.610815143790329,-0.8686095953158608
1588960219.8440275,1.01979832563375,-2.16,-9.48858827943625,-0.5733333333333334,0.06555555555555556,0.7033333333333334,-0.3724790704218746,-4.666072098585935,-0.9324581408437492
1588960219.8540275,1.0101147385216658,-2.1600860538912494,-9.420344215564997,-0.5733333333333334,0.06555555555555556,0.7033333333333334,-0.25,-3.6198009107370157,-0.6864243263593826
1588960219.8640275,1.0401927248606107,-2.182644543645458,-9.51057817458183,-0.5733333333333334,0.06555555555555556,0.7033333333333334,-0.25,-2.256892154753581,-0.4044432044317754
1588960219.8740275,1.0386514180397766,-2.179460567215911,-9.488921134431822,-0.5733333333333334,0.06555555555555556,0.7033333333333334,-0.19255718235083763,-1.2668572745027922,-0.06755718235083762
1588960219.8840275,1.0098071685968146,-2.167922867438726,-9.465845734877451,-0.5733333333333334,0.06555555555555556,0.7033333333333334,-0.3007231177619454,-1.6274103925398178,-0.17572311776194538
1588960219.8940275,0.9795755989211486,-2.16,-9.45,-0.5698585329737162,0.05918508822959085,0.6958045992208296,-0.3098474932571791,-1.940152506742821,-0.3151525067428209
1588960219.9040275,0.9760595979471367,-2.1539404020528634,-9.480297989735684,-0.5666666666666667,0.05333333333333334,0.6888888888888889,-0.21212751283039535,-1.6591476154735583,-0.3371275128303953
1588960219.9140275,0.9638453260635627,-2.1580773369682187,-9.588850706650405,-0.5666666666666667,0.05333333333333334,0.6888888888888889,-0.1875,-0.5287995910753999,-0.26201664394863333
1588960219.9240274,1.0008155751422514,-2.16,-9.63448934508535,-0.5666666666666667,0.05333333333333334,0.6888888888888889,-0.03444159321655693,0.7589088474841013,0.10713628249470042
1588960219.9340274,1.040909799426934,-2.175454899713467,-9.53181570200573,-0.5666666666666667,0.05333333333333334,0.6888888888888889,0.04829656160458453,1.8210415472779369,0.47727936962750717
1588960219.9440274,1.0431430100620853,-2.1662860201241707,-9.472572040248341,-0.5750474321463404,0.061714098813006976,0.6797462356383358,0.1910685613359024,2.448205684007707,0.4767876257760651
1588960219.9540274,1.0306138750215184,-2.1693861249784816,-9.441227750043037,-0.5788888888888889,0.06555555555555556,0.6755555555555556,0.07401015665346874,1.9797039077293854,0.20284687553795833
1588960219.9640274,1.015622225404554,-2.177188887297723,-9.504699985679506,-0.5788888888888889,0.06555555555555556,0.6755555555555556,-0.027361091221538014,1.2635418158384648,0.1875
1588960219.9740274,0.9917651759963863,-2.189117412001807,-9.511765175996386,-0.5788888888888889,0.06555555555555556,0.6755555555555556,-0.11948382501129295,0.20222644984189864,0.13051617498870705
1588960219.9840274,1.004474955458002,-2.182762522270999,-9.51,-0.5788888888888889,0.06555555555555556,0.6755555555555556,-0.034531528387487825,0.30593694322502435,0.17023423580625607
1588960219.9940274,1.0365472666271955,-2.1623018222485366,-9.501150911124268,-0.5739727284023712,0.05474000248521662,0.6755555555555556,-0.16592041641997238,1.0386816656798894,0.13219319452667588
1588960220.0040274,1.0489483729807738,-2.1689483729807737,-9.517896745961547,-0.5733333333333334,0.05333333333333334,0.6755555555555556,-0.24342733112983567,0.9012906754806573,0.06907266887016433
1588960220.0140274,1.05,-2.1601567554772365,-9.598745956182109,-0.5733333333333334,0.05333333333333334,0.6755555555555556,-0.1269594434654533,0.013716104258173156,0.000979721732726646
1588960220.0240273,1.0588474953459013,-2.168847495345901,-9.564610018616396,-0.5733333333333334,0.05333333333333334,0.6755555555555556,0.04089053773564719,-0.3317810754712944,-0.05529684591188239
1588960220.0340273,1.036660654717252,-2.164165163679313,-9.501651636793131,-0.5733333333333334,0.05333333333333334,0.6755555555555556,0.026032272995706512,-0.9220159050644023,-0.13543545400858698
1588960220.0440273,1.02,-2.1726396809571287,-9.453680159521436,-0.5817597873047524,0.05614215132380636,0.6839820095269746,0.0,-1.82598703888335,-0.26649800598205386
1588960220.0540273,1.0015586245772266,-2.18,-9.440779312288614,-0.5866666666666667,0.057777777777777775,0.6888888888888889,0.0,-2.182629298196167,-0.48538789458850057
1588960220.0640273,0.9900892970074119,-2.170089297007412,-9.519285623940704,-0.5866666666666667,0.057777777777777775,0.6888888888888889,0.0,-2.311383787407351,-0.3761162125926488
1588960220.0740273,0.9965334527231884,-2.1830669054463767,-9.52,-0.5866666666666667,0.057777777777777775,0.6888888888888889,-0.12250223855978133,-1.7816569662409476,-0.2524977614402187
1588960220.0840273,1.0186285107313569,-2.183790496422881,-9.52620950357712,-0.5866666666666667,0.057777777777777775,0.6888888888888889,-0.14869060264300665,-0.9954778343590864,-0.14869060264300665
1588960220.0940273,1.03,-2.168673581823018,-9.507347163646035,-0.579115721215345,0.05085607778073298,0.6731577525319689,-0.125,-0.33354943196929976,-0.05420988639385996
1588960220.1040273,1.0089211541995957,-2.16,-9.475947436133064,-0.5733333333333334,0.045555555555555564,0.6611111111111111,-0.0810857379158243,0.20098557250505422,0.1317427862525271
1588960220.1140273,1.0265342033586111,-2.1666335508396526,-9.529701957556876,-0.5733333333333334,0.045555555555555564,0.6611111111111111,-0.10395969274782983,0.9758550839652773,0.14604030725217015
1588960220.1240273,1.0492926298408887,-2.1607073701591113,-9.504244220954668,-0.5733333333333334,0.045555555555555564,0.6611111111111111,-0.008842126988892224,1.0801842539777844,0.1830789365055539
1588960220.1340272,1.05,-2.16,-9.5,-0.5733333333333334,0.045555555555555564,0.6611111111111111,0.04427903151639489,0.3540354957376818,0.09894193696721022
1588960220.1440272,1.006796429541135,-2.16,-9.474077857724682,-0.5848542854556974,0.045555555555555564,0.6793526186381874,-0.045508926147162634,-1.0175892614716264,-0.15351785229432527
1588960220.1540272,1.0085859774589236,-2.16,-9.504343909835695,-0.5866666666666667,0.045555555555555564,0.6822222222222222,-0.2234870773548183,-1.3484870773548183,-0.29482471823654555
1588960220.1640272,1.0005338389731622,-2.16,-9.576263127187865,-0.5866666666666667,0.045555555555555564,0.6822222222222222,-0.25,-1.138345974329055,-0.25333649358226373
1588960220.1740272,1.0229689567234868,-2.1523436810921712,-9.549374724368684,-0.5866666666666667,0.045555555555555564,0.6822222222222222,-0.1542960136521389,-1.125,-0.25
1588960220.1840272,1.0085063400993202,-2.1714936599006798,-9.49701268019864,-0.5866666666666667,0.045555555555555564,0.6822222222222222,-0.2593353743792488,-1.438449206884914,-0.2947784581264163
1588960220.1940272,0.9940390274732871,-2.185960972526713,-9.468078054946576,-0.5820303547014456,0.0415815738710803,0.6861962039066974,-0.27524392170804446,-1.9723168612115107,-0.46152431316782205
1588960220.2040272,0.99,-2.1668867620174215,-9.436886762017421,-0.5788888888888889,0.03888888888888889,0.6888888888888889,-0.29815257913037246,-2.4426103165214896,-0.6106525791303724
1588960220.2140272,0.9616498813393694,-2.1741750593303153,-9.48670023732126,-0.5788888888888889,0.03888888888888889,0.6888888888888889,-0.4896882416289412,-2.2785146979638236,-0.5807029395927646
1588960220.2240272,0.9306873410567957,-2.170343670528398,-9.505171835264198,-0.5788888888888889,0.03888888888888889,0.6888888888888889,-0.3814438224074598,-2.1573239704012432,-0.5021479408024866
1588960220.2340271,0.9564665334257862,-2.1703258963168417,-9.494837051841579,-0.5788888888888889,0.03888888888888889,0.6888888888888889,-0.2520368519802586,-0.8342629603948282,-0.2116210180690949
1588960220.2440271,1.0339095639758789,-2.18565159399598,-9.49565159399598,-0.5757491144466779,0.042656618219542086,0.6970523024386375,-0.10056522515075803,1.3287064868215888,0.24725723732411567
1588960220.2540271,1.0470049778761061,-2.183502488938053,-9.532487555309736,-0.5733333333333334,0.045555555555555564,0.7033333333333334,0.02189055586283186,1.2503111172566372,0.19384333517699115
1588960220.264027,1.0236782965623397,-2.169118864374893,-9.58264340687532,-0.5733333333333334,0.045555555555555564,0.7033333333333334,0.0,-0.7176596972806568,-0.1075177441422952
1588960220.274027,0.9918379149172146,-2.1539459716390716,-9.585783886556285,-0.5733333333333334,0.045555555555555564,0.7033333333333334,-0.0756753545116058,-3.059454963162481,-0.47702606353481736
1588960220.284027,0.965561625282167,-2.15,-9.497808126410836,-0.5733333333333334,0.045555555555555564,0.7033333333333334,-0.260359762979684,-3.659760158013544,-0.670119920993228
1588960220.294027,0.96,-2.1767791605146596,-9.461073613161782,-0.5673824087745202,0.06340832923199513,0.6785378143382784,-0.3125,-3.290260493566758,-0.6317100822611263
1588960220.304027,0.96,-2.18641323418832,-9.47282646837664,-0.5666666666666667,0.06555555555555556,0.6755555555555556,-0.3125,-2.6888420085220153,-0.5448345726460022
1588960220.314027,0.96,-2.182256673977161,-9.549689934205551,-0.5666666666666667,0.06555555555555556,0.6755555555555556,-0.3125,-2.0846252741435376,-0.3064168494290252
1588960220.324027,0.9534571875454677,-2.1603715626364033,-9.54382875018187,-0.5666666666666667,0.06555555555555556,0.6755555555555556,-0.23071484431834716,-1.8773222664775207,-0.16821484431834716
1588960220.334027,0.9440778804937251,-2.1618442390125496,-9.51815576098745,-0.5666666666666667,0.06555555555555556,0.6755555555555556,-0.29853974074265355,-1.6274337654289108,-0.16201324691421784
1588960220.344027,0.9461963321012226,-2.1638036678987773,-9.48521467159511,-0.5625357785991849,0.06555555555555556,0.6707361861434935,-0.29754584873471707,-0.9190938655103782,-0.14877292436735853
1588960220.354027,0.9582279285578084,-2.1682279285578083,-9.527595499904658,-0.56,0.06555555555555556,0.6677777777777778,-0.14715089302739465,0.6202647301849615,0.0806982139452107
1588960220.364027,1.009418399239027,-2.177059771319861,-9.568239085279444,-0.56,0.06555555555555556,0.6677777777777778,0.007370712247393857,2.507572117717858,0.3897414244947877
1588960220.374027,1.0447026226270164,-2.172648688686492,-9.550594754745967,-0.56,0.06555555555555556,0.6677777777777778,0.1543913914188522,4.382088088445078,0.6837827828377043
1588960220.384027,1.0315454961133974,-2.1823030025910684,-9.496939490931261,-0.56,0.06555555555555556,0.6677777777777778,0.11060623380582228,3.6206466239902455,0.5577655845145557
1588960220.394027,0.9933824369542152,-2.1722549579694768,-9.474436260507632,-0.5629575070050872,0.06210513071628717,0.6712282026170462,0.00704674365461519,1.987747898473843,0.298866859136538
1588960220.404027,0.9715958749851831,-2.1557979374925917,-9.491595874985183,-0.5666666666666667,0.057777777777777775,0.6755555555555556,-0.09873710932869731,0.2589691414121459,0.052525781342605396
1588960220.414027,0.9874288154897494,-2.1525711845102506,-9.559430523917996,-0.5666666666666667,0.057777777777777775,0.6755555555555556,-0.17143009681093394,-0.0017796127562642317,0.04643009681093394
1588960220.424027,0.983753489025884,-2.156246510974116,-9.573753489025885,-0.5666666666666667,0.057777777777777775,0.6755555555555556,-0.14845930641177535,0.14058138717644933,-0.01558138717644933
1588960220.434027,0.9917542085839948,-2.1639180695279983,-9.522983165664021,-0.5666666666666667,0.057777777777777775,0.6755555555555556,-0.07602413090002191,0.3099396727499452,-0.013524130900021913
1588960220.444027,1.0122718800962958,-2.17,-9.447728119903704,-0.5681812533975305,0.057777777777777775,0.6722739509720173,-0.02839850120369651,0.3438082433796692,0.03410149879630349
1588960220.454027,1.01072449129895,-2.17,-9.44,-0.5733333333333334,0.057777777777777775,0.6611111111111111,-0.125,-0.1875,-0.0625
1588960220.464027,0.9814095324147278,-2.163803177471576,-9.53295233792636,-0.5733333333333334,0.057777777777777775,0.6611111111111111,-0.16373014080265041,-0.7297219712371057,-0.0625
1588960220.474027,0.97,-2.16,-9.579263942275272,-0.5733333333333334,0.057777777777777775,0.6611111111111111,-0.12039963922044643,-0.7605483764920089,-0.09605018038977678
1588960220.484027,0.9659443852665807,-2.1518887705331617,-9.557833155799742,-0.5733333333333334,0.057777777777777775,0.6611111111111111,-0.03715240791612939,-0.34791444749677636,-0.023609631664517572
1588960220.494027,0.95531684733514,-2.1493663053297203,-9.5165842366757,-0.5759350848138112,0.05205392452072669,0.6709977667369266,0.0,0.48966378726287263,0.21280911246612466
1588960220.504027,0.9699978263232257,-2.166665942107742,-9.496665942107741,-0.5788888888888889,0.045555555555555564,0.6822222222222222,-0.04166213817338695,2.3540398688548345,0.5208106908669348
1588960220.5140269,0.9944130659681715,-2.1772065329840857,-9.543239197904516,-0.5788888888888889,0.045555555555555564,0.6822222222222222,0.027581662301071952,3.6581532984085756,0.534918337698928
1588960220.5240269,0.9933521203581656,-2.1733521203581656,-9.54670424071633,-0.5788888888888889,0.045555555555555564,0.6822222222222222,0.020950752238534612,4.103696991045862,0.6661969910458616
1588960220.5340269,1.0071694658416466,-2.175723155280549,-9.499937913036158,-0.5788888888888889,0.045555555555555564,0.6822222222222222,-0.07153944100686113,4.008651397482847,0.6784605589931388
1588960220.5440269,1.0134556130633494,-2.166911226126699,-9.47654438693665,-0.56652726911966,0.05355425070035076,0.6822222222222222,-0.04319516329186719,3.670487908229668,0.7068048367081328
1588960220.5540268,1.01,-2.16,-9.506774257208638,-0.56,0.057777777777777775,0.6822222222222222,0.08366955377699814,3.604334776888499,0.708165223111501
1588960220.5640268,1.0229724509259484,-2.153513774537026,-9.55243112731487,-0.56,0.057777777777777775,0.6822222222222222,0.08446109085641162,3.8682334548615303,0.7685778182871768
1588960220.5740268,1.0355029835452956,-2.15,-9.553491049364112,-0.56,0.057777777777777775,0.6822222222222222,0.09689364715809776,4.171968235790489,0.8125
1588960220.5840268,1.050229768836512,-2.163639691782016,-9.529770231163488,-0.56,0.057777777777777775,0.6822222222222222,0.125,4.4616841288658,0.8338120184094
1588960220.5940268,1.0718399537901004,-2.186320092419799,-9.500800231049498,-0.5624532717201339,0.06043548880792282,0.6795645111920772,0.125,4.543005198613703,0.875
1588960220.6040268,1.08,-2.17,-9.493104319745402,-0.5733333333333334,0.07222222222222223,0.6677777777777778,0.021549000795619416,2.762908339963495,0.5991306687883184
1588960220.6140268,1.06613549937635,-2.18386450062365,-9.58932250311825,-0.5733333333333334,0.07222222222222223,0.6677777777777778,-0.2791328222445316,0.8060296309817163,0.15836717775546835
1588960220.6240268,1.044215454740632,-2.1794769698270877,-9.588430909481264,-0.5733333333333334,0.07222222222222223,0.6677777777777778,-0.44076893858070054,-0.3419204472263051,-0.06903787716140114
1588960220.6340268,1.0336119061247855,-2.17,-9.538328563251289,-0.5733333333333334,0.07222222222222223,0.6677777777777778,-0.5451488265598168,-0.8975744132799084,-0.23264882655981683
1588960220.6440268,1.044047546146444,-2.17,-9.475714723121337,-0.5733333333333334,0.061428765831705215,0.670925869225012,-0.625,-0.7098255292625317,-0.23660850975417724
1588960220.6540267,1.0355797101449276,-2.1748067632850243,-9.435193236714975,-0.5733333333333334,0.045555555555555564,0.6755555555555556,-0.4747886473429952,-0.07457729468599034,-0.06491545893719806
1588960220.6640267,1.0261508836593896,-2.1738491163406106,-9.497659720253283,-0.5733333333333334,0.045555555555555564,0.6755555555555556,-0.15872790851526322,0.8650883659389471,0.19221511435592098
1588960220.6740267,1.0163593097763952,-2.163179654888198,-9.505898274440987,-0.5733333333333334,0.045555555555555564,0.6755555555555556,0.10800862779505996,2.4861875515141847,0.48300862779505993
1588960220.6840267,1.0457810395676708,-2.1753347312432876,-9.469553691675616,-0.5733333333333334,0.045555555555555564,0.6755555555555556,0.12360528648630219,3.3500262108116403,0.5625
1588960220.6940267,1.08,-2.1779381818181816,-9.443969090909091,-0.5652921212121212,0.045555555555555564,0.6795761616161616,0.10019318181818182,2.4942045454545454,0.3740340909090909
1588960220.7040267,1.08,-2.17,-9.44,-0.56,0.045555555555555564,0.6822222222222222,0.125,1.75,0.25
1588960220.7140267,1.0733515073765234,-2.1567030147530466,-9.559672867222577,-0.56,0.045555555555555564,0.6822222222222222,-0.08276539448364337,0.8358322642719691,0.16689384220654266
1588960220.7240267,1.0746111120490267,-2.15,-9.601555551803893,-0.56,0.045555555555555564,0.6822222222222222,-0.1010416490807489,0.5190972515320851,0.125
1588960220.7340267,1.0980345468721886,-2.15,-9.564971210939843,-0.56,0.045555555555555564,0.6822222222222222,0.0,0.5935700683740179,0.10621401367480357
1588960220.7440267,1.1439478426799532,-2.16184352803986,-9.403669034241492,-0.5674570361732453,0.04862609986218595,0.6879246616488215,0.04934803349941694,-0.8340268207357151,-0.13489213399766775
1588960220.7540267,1.0876709652207892,-2.172520515826495,-9.292274325908558,-0.5788888888888889,0.05333333333333334,0.6966666666666667,-0.07756936303243453,-3.2952080890973034,-0.5309935521688159
1588960220.7640266,0.9086610200036043,-2.15,-9.538845197332853,-0.5788888888888889,0.05333333333333334,0.6966666666666667,-0.6802824833303298,-4.8759956748963775,-0.7836299333213191
1588960220.7740266,1.0617267228262888,-2.1617267228262884,-9.525863361413144,-0.5788888888888889,0.05333333333333334,0.6966666666666667,-0.507530986751772,-0.739207982335696,-0.22088497791962
1588960220.7840266,1.0743308342097229,-2.19,-9.551751874342708,-0.5788888888888889,0.05333333333333334,0.6966666666666667,-0.38316102384910267,-1.2317039556264207,-0.12241535773654035
1588960220.7940266,0.97,-2.1631272236131243,-9.501010673342996,-0.5759030248459027,0.05333333333333334,0.6811401736431385,-0.3703180590328107,-6.325728439188299,-1.139045822901568
1588960220.8040266,0.9987028083530501,-2.14574056167061,-9.435924493364881,-0.5733333333333334,0.05333333333333334,0.6677777777777778,-0.2766214895586874,-4.865803415286493,-0.9537148955868737
1588960220.8140266,1.0356556349966832,-2.1552185449988945,-9.51696690499005,-0.5733333333333334,0.05333333333333334,0.6677777777777778,-0.15215228127073044,-3.2445363750276406,-0.5570363750276406
1588960220.8240266,1.0209992002270323,-2.1658001599545935,-9.54259952013622,-0.5733333333333334,0.05333333333333334,0.6677777777777778,0.08250399886483836,-3.378756998013467,-0.5100019994324192
1588960220.8340266,0.990058108003409,-2.1650290540017045,-9.515087162005113,-0.5733333333333334,0.05333333333333334,0.6677777777777778,0.09429476253195941,-3.189679050127838,-0.5003631750213062
1588960220.8440266,0.9903928455284553,-2.1548035772357723,-9.463625040650406,-0.5664047696476965,0.04929167118337851,0.6862539476061428,-0.0974329268292683,-2.422768292682927,-0.3725447154471545
1588960220.8540266,0.999416011344592,-2.151167977310816,-9.436423875209488,-0.56,0.045555555555555564,0.7033333333333334,-0.20209971638520047,-2.091699432770401,-0.3197998581926002
1588960220.8640265,0.9856778512791903,-2.1656778512791903,-9.565932892324858,-0.56,0.045555555555555564,0.7033333333333334,-0.4375,-2.643540288515183,-0.4510067147525305
1588960220.8740265,0.9903122719976652,-2.15,-9.643750182401867,-0.56,0.045555555555555564,0.7033333333333334,-0.4375,-2.302741500072961,-0.4238289800087553
1588960220.8840265,1.0271059600978636,-2.15,-9.582101546144727,-0.56,0.045555555555555564,0.7033333333333334,-0.40789183292556813,-1.4934326682977275,-0.2976959164627841
1588960220.8940265,1.0453291235362296,-2.1523354382318853,-9.46,-0.5644113833268943,0.050226432019326,0.6984029637326867,-0.28330702210143477,-2.3712806242756086,-0.38136840054354343
1588960220.9040265,1.0228393442622952,-2.1610229508196723,-9.455908196721312,-0.5788888888888889,0.06555555555555556,0.6822222222222222,-0.1875,-4.217377049180328,-0.8252868852459017
1588960220.9140265,0.9502362498832757,-2.1667454166277587,-9.46556416721138,-0.5788888888888889,0.06555555555555556,0.6822222222222222,-0.1875,-6.002953123540947,-0.9375
1588960220.9240265,0.93,-2.163342401609207,-9.543287991953967,-0.5788888888888889,0.06555555555555556,0.6822222222222222,-0.1875,-5.39486982902178,-0.8957199798849154
1588960220.9340265,0.9315506130407483,-2.169483128986417,-9.508966257972835,-0.5788888888888889,0.06555555555555556,0.6822222222222222,-0.1907304438348921,-4.661656449320863,-0.8060391123302159
1588960220.9440265,0.9574747917580009,-2.157474791758001,-9.495050416483998,-0.5721550002435579,0.060505139071557315,0.6749271761897803,-0.21843489697501095,-4.108587242437528,-0.6717174484875055
1588960220.9540265,0.9489831140269132,-2.15,-9.505932456107653,-0.5522222222222222,0.045555555555555564,0.6533333333333333,-0.125,-3.8686444626682075,-0.6377110746635852
1588960220.9640265,0.94,-2.1455269226912663,-9.53262308232227,-0.5522222222222222,0.045555555555555564,0.6533333333333333,-0.09704326682041511,-3.8125,-0.6102163341020757
1588960220.9740264,0.9239452872821174,-2.150703141811922,-9.572539003658273,-0.5522222222222222,0.045555555555555564,0.6533333333333333,0.00439463632451044,-3.4445795002151924,-0.4709473181622552
1588960220.9840264,0.9188100596577716,-2.1555949701711143,-9.54,-0.5522222222222222,0.045555555555555564,0.6533333333333333,0.09003143643053621,-2.959811381416783,-0.4449371271389276
1588960220.9940264,0.93,-2.1538530478955007,-9.509175616835995,-0.5624970166102241,0.045555555555555564,0.6563301483631672,0.02867380261248187,-2.7740815493468793,-0.4472446480406386
1588960221.0040264,0.9133256081497908,-2.155831402037448,-9.489180185737867,-0.5788888888888889,0.045555555555555564,0.6611111111111111,-0.15105373726595195,-2.864607474531904,-0.5103925254680961
1588960221.0140264,0.8953554684497733,-2.1526777342248864,-9.551421873799093,-0.5788888888888889,0.045555555555555564,0.6611111111111111,-0.1875,-2.837084966566751,-0.40402832218891704
1588960221.0240264,0.9188566011453336,-2.1644283005726668,-9.601143398854665,-0.5788888888888889,0.045555555555555564,0.6611111111111111,-0.2151768785791673,-2.4517924856833306,-0.3678537571583346
1588960221.0340264,0.9208804551446611,-2.166960151714887,-9.55960151714887,-0.5788888888888889,0.045555555555555564,0.6611111111111111,-0.2120018964360878,-2.1985056893082633,-0.3995018964360878
1588960221.0440264,0.8951951659671108,-2.16,-9.477987914917778,-0.5775542127686418,0.045555555555555564,0.6645812690237534,-0.14001510635277897,-1.8323942555305472,-0.3125
1588960221.0540264,0.8833672010235568,-2.16,-9.43831639948822,-0.5733333333333334,0.045555555555555564,0.6755555555555556,-0.16645499360276964,-1.447387484006924,-0.2914549936027696
1588960221.0640264,0.9087402545919042,-2.16,-9.478071400255473,-0.5733333333333334,0.045555555555555564,0.6755555555555556,-0.08981329559970047,-1.0509335220014977,-0.16018670440029953
1588960221.0740263,0.9080058579448377,-2.16,-9.54,-0.5733333333333334,0.045555555555555564,0.6755555555555556,-0.05003661215523554,-1.0249267756895288,-0.125
1588960221.0840263,0.8935548499436649,-2.156445150056335,-9.522225750281676,-0.5733333333333334,0.045555555555555564,0.6755555555555556,0.01806437570418929,-1.1389109392604733,-0.16943562429581072
1588960221.0940263,0.9,-2.147017359134889,-9.498947922595333,-0.565379624359704,0.045555555555555564,0.6795324100423702,-0.08114150540694365,-0.9188584945930564,-0.26864150540694365
1588960221.1040263,0.9,-2.1433581379082556,-9.530074413724765,-0.5466666666666666,0.045555555555555564,0.6888888888888889,-0.125,-0.9799418096329829,-0.2915116380734034
1588960221.1140263,0.9027593811132848,-2.15,-9.563796905566424,-0.5466666666666666,0.045555555555555564,0.6888888888888889,-0.10775386804197049,-1.1702538680419705,-0.21550773608394097
1588960221.1240263,0.91,-2.15,-9.6,-0.5466666666666666,0.045555555555555564,0.6888888888888889,-0.0625,-1.125,-0.125
1588960221.1340263,0.8815775280898877,-2.15,-9.552629213483147,-0.5466666666666666,0.045555555555555564,0.6888888888888889,0.11514044943820226,-0.8289325842696629,-0.18421348314606742
1588960221.1440263,0.88,-2.15,-9.478247970087834,-0.5466666666666666,0.045555555555555564,0.6888888888888889,0.125,-0.7564437266311201,-0.019331179893360473
1588960221.1540263,0.8776947425306879,-2.174610514938624,-9.464610514938625,-0.5666666666666667,0.03333333333333333,0.6888888888888889,0.31736856326719676,-0.5913157183664016,-0.3605921408167992
1588960221.1640263,0.8691871351901908,-2.19,-9.485690053668664,-0.5666666666666667,0.03333333333333333,0.6888888888888889,0.125,-0.6417763544482313,-0.30741959493869236
1588960221.1740263,0.8636364530275915,-2.19,-9.560909359082775,-0.5666666666666667,0.03333333333333333,0.6888888888888889,0.056816505732659436,0.07955048280202168,-0.18181650573265945
1588960221.1840262,0.8764444195428059,-2.183555580457194,-9.571407440609592,-0.5666666666666667,0.03333333333333333,0.6888888888888889,-0.03564825190497535,0.5046293702375616,-0.02222237785746302
1588960221.1940262,0.8980764089997773,-2.1580764089997775,-9.536152817999554,-0.5653842726665181,0.03205093933318482,0.6888888888888889,0.038455112497215414,0.7980897750055692,0.1370224437513923
1588960221.2040262,0.8936279265386233,-2.15,-9.512744146922753,-0.56,0.02666666666666667,0.6888888888888889,0.028198163465582515,1.0453490817327913,0.1875
1588960221.2140262,0.9,-2.15,-9.533431852009356,-0.56,0.02666666666666667,0.6888888888888889,0.14106687220922814,1.171433127790772,0.1875
1588960221.2240262,0.9028286374411139,-2.1528286374411136,-9.56737090047109,-0.56,0.02666666666666667,0.6888888888888889,0.08017898400696133,1.1616050799651934,0.20517898400696133
1588960221.2340262,0.9168748333015813,-2.1565625833492095,-9.50312516669842,-0.56,0.02666666666666667,0.6888888888888889,0.10351614593255859,0.7656291674604687,0.16406458373023433
1588960221.2440262,0.927629048582996,-2.15,-9.487629048582995,-0.5615806342780028,0.029564496176338283,0.6907329622132253,0.0625,0.2744970900809717,-0.044455339068825914
1588960221.2540262,0.9164242436401573,-2.1464242436401575,-9.5050302945189,-0.5666666666666667,0.03888888888888889,0.6966666666666667,-0.004545431747050799,-0.5181817269882032,-0.20984847724901692
1588960221.2640262,0.904471037307403,-2.1427644813462985,-9.574880332116686,-0.5666666666666667,0.03888888888888889,0.6966666666666667,-0.14227800841436572,-1.1555020757292915,-0.25
1588960221.2740262,0.8824447807785083,-2.1537776096107457,-9.624889561557017,-0.5666666666666667,0.03888888888888889,0.6966666666666667,-0.1875,-1.4444496996641916,-0.25
1588960221.2840261,0.8677717112390945,-2.1577717112390946,-9.575488823630039,-0.5666666666666667,0.03888888888888889,0.6966666666666667,-0.15964639048868107,-1.0828783429320865,-0.19429278097736216
1588960221.2940261,0.8617924958658836,-2.1517924958658834,-9.509717454524719,-0.5666666666666667,0.03888888888888889,0.6966666666666667,-0.08490619832354451,-0.634437189941267,-0.044812396647089026
1588960221.3040261,0.8626083725538767,-2.140869457517959,-9.450869457517959,-0.56,0.045555555555555564,0.6755555555555556,-0.130434109487243,-0.002724795640326974,0.08423643794897201
1588960221.314026,0.8865844781921076,-2.1488614927307026,-9.458861492730703,-0.56,0.045555555555555564,0.6755555555555556,-0.18038432956689088,0.5467276252357997,0.2840373182675635
1588960221.324026,0.9116162447178491,-2.16,-9.526767510564301,-0.56,0.045555555555555564,0.6755555555555556,-0.10479694102688755,1.397093882053775,0.23989847051344376
1588960221.334026,0.9194586963838302,-2.16,-9.51108260723234,-0.56,0.045555555555555564,0.6755555555555556,-0.006766295202124073,1.2010325904042483,0.19088314760106204
1588960221.344026,0.908937752697239,-2.15,-9.516813258091716,-0.5591738076534082,0.04484739068704822,0.6769718852925702,-0.07577809128451277,0.5066390456422564,0.1808609543577436
1588960221.354026,0.9002250576594004,-2.15,-9.491125288297003,-0.5522222222222222,0.03888888888888889,0.6888888888888889,-0.18468677925749571,0.5695330518562607,0.125
1588960221.364026,0.9126893035551817,-2.158067910665545,-9.550757214220726,-0.5522222222222222,0.03888888888888889,0.6888888888888889,-0.045691852780114325,0.8413837055602287,0.125
1588960221.374026,0.9198894477537638,-2.1796683432612913,-9.579557791015056,-0.5522222222222222,0.03888888888888889,0.6888888888888889,-0.0006909515389765322,0.751381903077953,0.125
1588960221.384026,0.9027243833206733,-2.17,-9.50365370007596,-0.5522222222222222,0.03888888888888889,0.6888888888888889,0.011417812737376562,-0.5735205193299484,-0.11358218726262344
1588960221.394026,0.9136491643637321,-2.1663508356362677,-9.463649164363733,-0.5512085654545188,0.037875232121185536,0.6888888888888889,-0.125,-1.4945181931833136,-0.27280727727332543
1588960221.404026,0.9328041078137047,-2.1359794609314764,-9.48,-0.5466666666666666,0.03333333333333333,0.6888888888888889,-0.10747432616434535,-1.8902053906852372,-0.3925256738356546
1588960221.414026,0.9396848598192168,-2.1015757009039158,-9.48,-0.5466666666666666,0.03333333333333333,0.6888888888888889,-0.06446962612989485,-2.2342429909608414,-0.4355303738701052
1588960221.424026,0.9569773713816043,-1.9765093879228417,-9.606279248966173,-0.5466666666666666,0.03333333333333333,0.6888888888888889,-0.1642453060385791,-3.311037551691367,-0.8662734698071045
1588960221.434026,0.8899580249331897,-2.18,-9.578523457066503,-0.5466666666666666,0.03333333333333333,0.6888888888888889,-0.0625,-4.098101852499616,-1.3839660491667949
1588960221.444026,0.848878286297939,-2.18,-9.531575184340502,-0.5466666666666666,0.03333333333333333,0.6888888888888889,-0.0625,-3.988066838298051,-1.4206443872339831
1588960221.454026,0.8481714697983886,-2.1527427953024167,-9.491828530201612,-0.551714297166219,0.03838096383288575,0.682831732289426,0.051071686239929456,-2.688211451360776,-0.9832132550402821
1588960221.464026,0.866882475631039,-2.200647426893117,-9.473117524368961,-0.5522222222222222,0.03888888888888889,0.6822222222222222,0.0625,-1.6128607457540545,-0.831984527306006
1588960221.474026,0.886787961409396,-2.191606019295302,-9.555181942114094,-0.5522222222222222,0.03888888888888889,0.6822222222222222,-0.020075241191275166,-1.8827633441694631,-0.7399623794043624
1588960221.484026,0.872126677852349,-2.1989366610738257,-9.533190016778523,-0.5522222222222222,0.03888888888888889,0.6822222222222222,-0.1117082634228188,-2.203478921979866,-0.6941458682885906
1588960221.494026,0.8428567782768477,-2.1757148325847284,-9.517143221723153,-0.5533331915521074,0.03888888888888889,0.6831744816478381,-0.25,-2.5357256788485096,-0.616072567884851
1588960221.504026,0.8621382328104609,-2.1371706031372346,-9.514967629673226,-0.56,0.03888888888888889,0.6888888888888889,-0.23663604493461962,-1.9465441797384784,-0.5491360449346196
1588960221.514026,0.8623575989782887,-2.091910600255428,-9.575731800766283,-0.56,0.03888888888888889,0.6888888888888889,-0.1875,-1.7141762452107279,-0.535823754789272
1588960221.524026,0.8337885057471264,-2.0990528735632186,-9.597158620689655,-0.56,0.03888888888888889,0.6888888888888889,-0.1875,-1.5802586206896552,-0.6697413793103448
1588960221.534026,0.8,-2.1745835496551216,-9.525416450344878,-0.56,0.03888888888888889,0.6888888888888889,-0.04947897352221316,-0.5911425498776237,-0.7239579470444263
1588960221.544026,0.8,-2.22902265816213,-9.470977341837871,-0.56,0.03888888888888889,0.6888888888888889,-0.0008726266409552694,0.23516534710376025,-0.6267452532819106
1588960221.554026,0.8247019473762449,-2.16178831574253,-9.445298052623754,-0.5788888888888889,0.03888888888888889,0.6888888888888889,0.0662256577969377,1.558565296566077,-0.1949513155938754
1588960221.5640259,0.84963698093497,-2.065181509532515,-9.461320188038652,-0.5788888888888889,0.03888888888888889,0.6888888888888889,-0.0647688691564377,3.149753525724732,0.2326733481326717
1588960221.5740259,0.8764292032043668,-2.019648227237118,-9.558214601602185,-0.5788888888888889,0.03888888888888889,0.6888888888888889,0.10268252002729272,5.011158739986354,0.33036504005458545
1588960221.5840259,0.8506196839100861,-1.834438464706133,-9.547319909688596,-0.5788888888888889,0.03888888888888889,0.6888888888888889,-0.025125846669411984,4.8698685088678415,0.0914988711074507
1588960221.5940259,0.8089286170711274,-1.6319389972026186,-9.535408176306037,-0.5788888888888889,0.03888888888888889,0.6888888888888889,-0.13679834713090894,4.013712671996364,-0.05739779617454527
1588960221.6040258,0.7417064426557942,-1.4514618115356226,-9.409266106639485,-0.5636853615768241,0.03441726320886983,0.7005151156569385,-0.690557889002144,2.467966855295069,0.025917366700643207
1588960221.6140258,0.5592624376893754,-1.0316123546085427,-9.066981135763855,-0.56,0.03333333333333333,0.7033333333333334,-1.0348145342586257,0.4089837259309941,0.9072952301827778
1588960221.6240258,0.7328780784215605,-0.7242731529470636,-9.639488865854094,-0.56,0.03333333333333333,0.7033333333333334,-0.5178048039460985,-6.8094885977767445,1.7964756764485112
1588960221.6340258,0.7900216538347646,-0.7383968759253776,-9.343903797749482,-0.56,0.03333333333333333,0.7033333333333334,-1.8064341501332544,-21.058140314998518,-0.4272098015990524
1588960221.6440258,0.551339572644754,-0.6303856345492473,-8.980081186220895,-0.5599842137903818,0.03335814023416211,0.7032904850500836,-1.9984777583582343,-24.68572405141794,-2.7522833624626486
1588960221.6540258,1.0715774933754298,-0.7801510965777753,-9.011610757174267,-0.5538534638827811,0.04299217580324871,0.6866498781580249,-1.4072983029824662,-23.996014686812877,-3.639052545526301
1588960221.6640258,1.6067856829700295,-0.20581993230801607,-9.460412465145643,-0.5522222222222222,0.045555555555555564,0.6822222222222222,1.2260436578222822,-7.0751681339108785,-4.562908826263087
1588960221.6740258,1.0845485155112848,-0.4191280711291935,-9.29859249776406,-0.5522222222222222,0.045555555555555564,0.6822222222222222,-0.5208764445925329,20.185979780088736,-6.6316300001753685
1588960221.6840258,0.821314936364364,-0.22705194909149123,-9.34005302969663,-0.5522222222222222,0.045555555555555564,0.6822222222222222,0.8842126590890899,46.12009600376211,-12.237472984871529
1588960221.6940258,0.9472144400864484,-0.32777155206915876,-9.281299927959656,-0.5522222222222222,0.045555555555555564,0.6822222222222222,0.569463899783879,41.661155246938286,-16.224290602737533
1588960221.7040257,0.9648426119180474,-0.40389828342633216,-9.073898283426331,-0.5466666666666666,0.03888888888888889,0.6966666666666667,1.1986984601950845,20.50877986965967,-24.342916737658133
1588960221.7140257,1.0015778994524638,-0.5200696864111498,-9.204454952712792,-0.5466666666666666,0.03888888888888889,0.6966666666666667,1.6699539571926332,5.7369337979094075,-29.620800149328023
1588960221.7240257,1.1383213899405082,-0.5818491977645573,-9.347226203353163,-0.5466666666666666,0.03888888888888889,0.6966666666666667,1.9548362290427257,-6.152997960609339,-34.120905726068145
1588960221.7340257,1.2186621269777689,-0.6003344682555578,-9.319665531744443,-0.5466666666666666,0.03888888888888889,0.6966666666666667,2.127090426597236,-12.579223412777889,-38.500425595834166
1588960221.7440257,1.1850606849589425,-0.6087348287602643,-9.311265171239736,-0.5466666666666666,0.03888888888888889,0.6966666666666667,2.1795926797516523,-12.999241438013218,-41.65056078509914
1588960221.7540257,1.2151693936477381,-0.6424153031761309,-9.267584696823869,-0.5666666666666667,0.03333333333333333,0.7033333333333334,2.010063763233879,-5.602207651588065,-44.93617961982676
1588960221.7640257,1.1584640415190708,-0.6723039377213939,-9.252287667847433,-0.5666666666666667,0.03333333333333333,0.7033333333333334,2.148999351264519,4.787077034763984,-47.249694939863254
1588960221.7740257,1.141187906746849,-0.6982181398797265,-9.390496746025208,-0.5666666666666667,0.03333333333333333,0.7033333333333334,2.4189389570804845,14.342939080649147,-49.35522386522778
1588960221.7840257,1.0825195716545655,-0.6900782866182615,-9.302519571654566,-0.5666666666666667,0.03333333333333333,0.7033333333333334,2.3959964304547112,22.865969658865048,-51.91321162738815
1588960221.7940257,1.1080395895022919,-0.7921583580091673,-9.328039589502293,-0.5666666666666667,0.03333333333333333,0.7033333333333334,2.6086632458524317,24.67363758974567,-54.19937989291364
1588960221.8040257,1.118735505121148,-0.8,-9.198967423182783,-0.5724903367474319,0.004214982929507137,0.7033333333333334,2.7341938140143482,22.68322062672021,-56.668070094301314
1588960221.8140256,1.1806508612470603,-0.7080474162588191,-9.203905167482361,-0.5733333333333334,0.0,0.7033333333333334,3.199703648382381,18.044019735587618,-59.73741896014746
1588960221.8240256,1.187315674060891,-0.6880529778173267,-9.243894044365346,-0.5733333333333334,0.0,0.7033333333333334,3.3246688886417086,15.294784449882414,-61.52858740386449
1588960221.8340256,1.3022772942890226,-0.7922772942890226,-9.344207970716766,-0.5733333333333334,0.0,0.7033333333333334,3.433477757442199,10.912745583236843,-64.99845459978336
1588960221.8440256,1.3710821834591684,-0.8698082096676213,-9.35,-0.5733333333333334,0.0,0.7033333333333334,3.6011129914084874,9.651284387746246,-67.36900655211316
1588960221.8540256,1.4203123295468019,-0.965627386344772,-9.399063011359594,-0.6,0.0,0.6888888888888889,3.7011644176725875,11.622979759053289,-69.80856179002538
1588960221.8640256,1.4305074398198658,-0.8284776805404025,-9.369492560180133,-0.6,0.0,0.6888888888888889,4.129757248311242,15.537402214536085,-71.6662294853641
1588960221.8740256,1.449980036676803,-0.7700598899695907,-9.350019963323197,-0.6,0.0,0.6888888888888889,4.312312843845029,19.371069720745606,-73.24837797999025
1588960221.8840256,1.4598301426426425,-0.8584712837837838,-9.271358858858859,-0.6,0.0,0.6888888888888889,4.251061608483483,22.20116600975976,-75.40034370307808
1588960221.8940256,1.4681647650740828,-0.8436704698518342,-9.23734093970367,-0.6,0.0,0.6888888888888889,4.607208471991126,22.30102978171302,-77.37663170509468
1588960221.9040256,1.5216500358080687,-0.8787624731439484,-9.210618763428027,-0.5933333333333334,-0.02666666666666667,0.7033333333333334,4.757734542850322,20.249334566722368,-80.22875089520171
1588960221.9140255,1.601316934060974,-0.820564400311846,-9.242257601247385,-0.5933333333333334,-0.02666666666666667,0.7033333333333334,5.127351667966026,17.19591163678142,-82.2333575253375
1588960221.9240255,1.6615526650527266,-0.8463797135940256,-9.345518854376103,-0.5933333333333334,-0.02666666666666667,0.7033333333333334,5.23491547330844,14.721944113905872,-84.33085172951459
1588960221.9340255,1.6820368999376558,-0.9,-9.349185240024937,-0.5933333333333334,-0.02666666666666667,0.7033333333333334,5.257638374766209,13.701383747662096,-87.07892987258417
1588960221.9440255,1.7228947163341646,-0.9,-9.332842113466334,-0.5933333333333334,-0.02666666666666667,0.7033333333333334,5.410855186253118,15.233551862531172,-88.66217025794887
1588960221.9540255,1.7628740120213924,-0.9605748024042784,-9.318850395191443,-0.6177777777777778,-0.05111111111111112,0.6966666666666667,5.628592515026741,18.020127845615033,-90.37357275545459
1588960221.9640255,1.8159587803219976,-0.9759587803219976,-9.302103098937176,-0.6177777777777778,-0.05111111111111112,0.6966666666666667,5.6940721841786734,19.39471655253602,-91.41224237701249
1588960221.9740255,1.9341844771268923,-1.0941844771268923,-9.34382981545655,-0.6177777777777778,-0.05111111111111112,0.6966666666666667,5.824468173301719,19.78590451990516,-92.15115298204307
1588960221.9840255,1.8933702722235606,-1.063568523530829,-9.230594753921805,-0.6177777777777778,-0.05111111111111112,0.6966666666666667,6.256195353352133,21.15776230390976,-93.66341119078322
1588960221.9940255,1.9944133943628042,-1.1705553587370867,-9.248425893122848,-0.6177777777777778,-0.05111111111111112,0.6966666666666667,6.441936386696331,20.26620534385761,-94.81500559751726
1588960222.0040255,2.1244729401457527,-1.2693058818844332,-9.27758352913066,-0.6255926796136265,-0.07846326753658202,0.7051328103221696,6.5625,17.672720620445222,-96.47830880888853
1588960222.0140254,2.2234425036390104,-1.2525818777292577,-9.353442503639009,-0.6311111111111111,-0.09777777777777777,0.7111111111111111,6.747310544032024,15.795720751455605,-98.5242051037118
1588960222.0240254,2.299758005822416,-1.3098185043668122,-9.429758005822416,-0.6311111111111111,-0.09777777777777777,0.7111111111111111,6.687689057951237,16.809286014828967,-99.06079847843887
1588960222.0340254,2.344000491116061,-1.2146656025818672,-9.363999263325908,-0.6311111111111111,-0.09777777777777777,0.7111111111111111,6.549998465262308,17.866678432988966,-99.47500460421307
1588960222.0440254,2.4422541450059985,-1.418537020517395,-9.2824220984958,-0.6311111111111111,-0.09777777777777777,0.7111111111111111,6.808453043772494,20.30635362514996,-99.77922652188624
1588960222.0540254,2.517068418225326,-1.491205254675978,-9.393159642525761,-0.6077777777777778,-0.1288888888888889,0.7033333333333334,7.399429848122283,23.52300446842799,-99.53501642086243
1588960222.0640254,2.4670574855695984,-1.3219247687917088,-9.263849537583416,-0.6077777777777778,-0.1288888888888889,0.7033333333333334,7.858960260069094,25.107301300345473,-98.95589071519001
1588960222.0740254,2.5660581936785185,-1.3489249619123234,-9.317849923824646,-0.6077777777777778,-0.1288888888888889,0.7033333333333334,7.63395865073064,23.982293253653197,-98.33713628950926
1588960222.0840254,2.7278288877458543,-1.4782359712935067,-9.36932152742058,-0.6077777777777778,-0.1288888888888889,0.7033333333333334,7.501696181448551,19.74517016925074,-98.37415190927572
1588960222.0940254,2.737923462745999,-1.3690715215560152,-9.346229611762002,-0.6077777777777778,-0.1288888888888889,0.7033333333333334,7.35143507351252,17.112374607550347,-97.78074029405008
1588960222.1040254,2.6908892472880717,-1.2107113978304576,-9.21035569891523,-0.6466666666666666,-0.16111111111111112,0.7333333333333333,7.312277688177982,16.122554569957803,-95.87099838720367
1588960222.1140254,2.9225519740185137,-1.396041579214811,-9.303020789607405,-0.6466666666666666,-0.16111111111111112,0.7333333333333333,7.254362006495372,15.485482071449086,-94.82851611691669
1588960222.1240253,2.6442141137777355,-1.049510951166615,-9.319243308944445,-0.6466666666666666,-0.16111111111111112,0.7333333333333333,7.076687957291642,16.59291361805572,-93.13242093472199
1588960222.1340253,2.6047324997538643,-1.02,-9.258929999015457,-0.6466666666666666,-0.16111111111111112,0.7333333333333333,7.253343753076696,18.214250024613566,-91.13927340750222
1588960222.1440253,2.6514572622384236,-1.004562821328473,-9.203979916433104,-0.6466666666666666,-0.16111111111111112,0.7333333333333333,6.926570533211823,17.46539002183744,-89.30822923293843
1588960222.1540253,2.8644899533010584,-1.0076239235679705,-9.216997129514588,-0.6277372672788465,-0.17612408303938232,0.7489990431715293,6.37891746283364,14.439958120903132,-86.65633970266913
1588960222.1640253,3.0491102963641916,-0.9903813015582035,-9.25,-0.6144444444444445,-0.18666666666666668,0.76,6.188294378246257,12.87817751298503,-83.52700886037275
1588960222.1740253,2.8890360683830427,-0.854451426006773,-9.258471785874576,-0.6144444444444445,-0.18666666666666668,0.76,6.293397323432209,14.675254498347545,-82.3351294422457
1588960222.1840253,2.86,-0.7856250134169117,-9.215625013416911,-0.6144444444444445,-0.18666666666666668,0.76,6.358723944357384,15.369791554859068,-81.43164083463924
1588960222.1940253,2.825189163942083,-0.7421513311536665,-9.144302662307332,-0.6144444444444445,-0.18666666666666668,0.76,6.375,14.760269733769267,-79.57749883232134
1588960222.2040253,2.8565998308974514,-0.7358249788621815,-9.143299915448726,-0.5969695078579002,-0.19896384426460523,0.77812215646012,6.083751056890929,12.435163516125137,-75.70766774368884
1588960222.2140253,2.996334573112123,-0.74,-9.14227757114798,-0.5844444444444444,-0.20777777777777776,0.7911111111111111,5.875,11.0,-73.4375
1588960222.2240252,3.0374977650791424,-0.6368833809532156,-9.153748882539572,-0.5844444444444444,-0.20777777777777776,0.7911111111111111,5.660173710319199,11.515583095233922,-70.94551503970271
1588960222.2340252,3.0192615610160307,-0.6591614877139306,-9.190738438983969,-0.5844444444444444,-0.20777777777777776,0.7911111111111111,5.466442378175096,12.518460974599229,-68.27557805080154
1588960222.2440252,2.9246335159086714,-0.6515445053028904,-9.164430631628614,-0.5844444444444444,-0.20777777777777776,0.7911111111111111,5.3485765790715325,13.639234209284673,-65.1892590826102
1588960222.2540252,2.7385399220098448,-0.5330870037716551,-9.078724669181103,-0.5022798269726608,-0.24440537833748854,0.8227890359195096,4.922713034584159,12.607903694943426,-59.447556415009906
1588960222.2640252,2.902481648117452,-0.5365892407379502,-9.128062342582826,-0.4922222222222222,-0.2488888888888889,0.8266666666666667,4.51211035885734,10.467527662368415,-54.57216568359417
1588960222.2740252,2.94,-0.5172875358835703,-9.174068696174645,-0.4922222222222222,-0.2488888888888889,0.8266666666666667,4.4375,9.849570648908472,-51.06137133653782
1588960222.2840252,2.963027694073755,-0.4827292294446836,-9.171215382407805,-0.4922222222222222,-0.2488888888888889,0.8266666666666667,4.365538456019515,9.615538456019515,-46.39992287272206
1588960222.2940252,2.9977115803093572,-0.44343262953596424,-9.119004734458626,-0.4922222222222222,-0.2488888888888889,0.8266666666666667,4.3125,9.341105246133035,-42.887736722931244
1588960222.3040252,3.0217284688995214,-0.4117284688995215,-9.076543062200956,-0.47781831472620945,-0.2592597022860181,0.8201368952684742,4.30169706937799,8.932864832535886,-40.40815639952153
1588960222.3140252,3.0583975225579274,-0.3916024774420725,-9.045801238721035,-0.4088888888888889,-0.3088888888888889,0.7888888888888889,4.25,8.179386613009715,-35.52333016317163
1588960222.3240252,3.062729070826944,-0.31456163744249616,-9.090896504211392,-0.4088888888888889,-0.3088888888888889,0.7888888888888889,4.022783463342001,6.943474009378403,-32.835654321399204
1588960222.3340251,3.0927681056957272,-0.3227681056957271,-9.103446378860854,-0.4088888888888889,-0.3088888888888889,0.7888888888888889,3.8146196036410234,5.885598018205117,-30.631014979452964
1588960222.3440251,3.0658230122415735,-0.32737800349759244,-9.074756006995186,-0.4088888888888889,-0.3088888888888889,0.7888888888888889,3.43445008743981,5.24695008743981,-27.761425568358767
1588960222.3540251,3.0892490375249317,-0.3569367781436987,-9.07846838907185,-0.4424055949822451,-0.3984947766078616,0.7485320386948477,3.019145136601883,5.024024189433647,-24.21547555545248
1588960222.364025,3.0747036067134865,-0.3347036067134865,-9.074901202237829,-0.4633333333333333,-0.4544444444444444,0.7233333333333334,2.5447137989525057,4.433795083918581,-19.683056704558982
1588960222.374025,3.10276579548338,-0.33221879870953713,-9.137203392902453,-0.4633333333333333,-0.4544444444444444,0.7233333333333334,2.2083975241961795,3.6772438104904484,-16.28192400405988
1588960222.384025,3.1452853357220167,-0.34,-9.12650132497294,-0.4633333333333333,-0.4544444444444444,0.7233333333333334,1.919199977606091,2.7870665845556672,-12.170599596909641
1588960222.394025,3.156749327473194,-0.3265013450536127,-9.083002690107225,-0.4633333333333333,-0.4544444444444444,0.7233333333333334,1.6219002197552381,1.9922505493880953,-9.012735384382223
1588960222.404025,3.3277428087986465,-0.3657480387632672,-9.07,-0.5056926284845066,-0.6103266506007623,0.7377354936847322,1.35703737886479,1.06799530841409,-6.111794339332411
1588960222.414025,3.3564991072654857,-0.40350089273451445,-9.077833630911504,-0.5188888888888888,-0.6588888888888889,0.7422222222222222,1.1166592272123792,0.5322786476216637,-4.191614590486655
1588960222.424025,3.20334219702481,-0.3692617213957805,-9.145181245766752,-0.5188888888888888,-0.6588888888888889,0.7422222222222222,0.9606543034894514,0.23380860697890274,-1.7246632215337532
1588960222.434025,3.308306690086044,-0.4445207550525824,-9.13694888498566,-0.5188888888888888,-0.6588888888888889,0.7422222222222222,0.6013379060408653,-0.6288936567578985,1.8715051581919648
1588960222.444025,3.3673131049632734,-0.4570151712775451,-9.112686895036727,-0.5188888888888888,-0.6588888888888889,0.7422222222222222,0.3376896409693142,-0.7397413674744285,4.435603590306858
1588960222.454025,3.3822066729593305,-0.4366228916157098,-9.087662001887798,-0.517128174261182,-0.6570415817385079,0.7381812378307638,0.11363473139902328,-0.5689944392005581,6.637186050806418
1588960222.464025,3.102744706911636,-0.29725529308836396,-9.0,-0.4511111111111111,-0.5877777777777777,0.5866666666666667,-0.6311176727909011,-3.3216141732283466,11.030588363954505
1588960222.474025,3.2357332195676904,-0.3378983693591202,-9.13172051573758,-0.4511111111111111,-0.5877777777777777,0.5866666666666667,-1.037023606370876,-6.2468240424725066,12.910435627607129
1588960222.484025,3.3481533667524723,-0.43435055257708016,-9.215978090463933,-0.4511111111111111,-0.5877777777777777,0.5866666666666667,-1.1875,-6.395344223585655,14.392018841813924
1588960222.494025,3.373122156749,-0.5198732940494001,-9.193122156749,-0.4511111111111111,-0.5877777777777777,0.5866666666666667,-1.2085973040637499,-3.5216048911550084,16.806449027569993
1588960222.504025,3.2308610651908287,-0.4708962840508877,-9.087240710127219,-0.49800043125134763,-0.531187218987837,0.5640304431506904,-1.25,0.44354201106878455,21.580626033206354
1588960222.514025,3.2109283771164074,-0.4460477485890617,-9.039071622883592,-0.5155555555555555,-0.51,0.5555555555555556,-1.4680039282959112,-1.3428377116407484,24.069628283730562
1588960222.524025,3.2750783983413245,-0.5050926525852015,-9.115121161072954,-0.5155555555555555,-0.51,0.5555555555555556,-1.7189727225605806,-4.284145393287547,25.31330180121809
1588960222.534025,3.300467097995897,-0.57,-9.2,-0.5155555555555555,-0.51,0.5555555555555556,-2.0964967650307718,-6.497080637525643,27.49930961022566
1588960222.544025,3.2495640016969416,-0.5821743993212233,-9.133040803733271,-0.5155555555555555,-0.51,0.5555555555555556,-2.3260899957576457,-5.864100042423541,31.174014857881136
1588960222.554025,3.3152161364381767,-0.6255067235159069,-9.09,-0.5305472832622717,-0.46344674027914434,0.5342515214460114,-2.552533617579534,-4.9311659560511645,35.43112085929813
1588960222.564025,3.342859607876971,-0.64,-9.104280784246058,-0.5366666666666666,-0.4444444444444444,0.5255555555555556,-2.8035098030757286,-4.571490196924271,38.64211763690874
1588960222.574025,3.263049628094135,-0.6539909767101574,-9.193945860260945,-0.5366666666666666,-0.4444444444444444,0.5255555555555556,-3.093609011096208,-5.286992439946348,41.64236830874284
1588960222.584025,3.1760824062066297,-0.6330412031033149,-9.17608240620663,-0.5366666666666666,-0.4444444444444444,0.5255555555555556,-3.355992480604282,-8.194510329215298,44.500163526949244
1588960222.594025,3.295478824721378,-0.6871440729483282,-9.161190678824722,-0.5366666666666666,-0.4444444444444444,0.5255555555555556,-3.6123543566362715,-10.24183004052685,46.94124746707193
1588960222.604025,3.392471481240512,-0.7531463890696162,-9.19191064844936,-0.5546820887250294,-0.42545521578833223,0.5357805248319236,-3.8321649316851008,-9.368642919106485,49.38486228583821
1588960222.6140249,3.230525381354397,-0.7467542302257328,-9.161885575564332,-0.5777777777777777,-0.4011111111111111,0.5488888888888889,-4.046464545816877,-6.057282419652886,52.56182515670858
1588960222.6240249,3.052565435685705,-0.7222565435685705,-9.189691107882867,-0.5777777777777777,-0.4011111111111111,0.5488888888888889,-4.318586410785738,-6.853174299768076,55.38138109437521
1588960222.6340249,2.828096454157156,-0.6826104544735474,-9.187566272684128,-0.5777777777777777,-0.4011111111111111,0.5488888888888889,-4.655421591448395,-11.254165348369455,58.02489886777102
1588960222.6440248,2.9259323298917774,-0.77849421569847,-9.141707923871127,-0.5777777777777777,-0.4011111111111111,0.5488888888888889,-4.869662737902725,-14.596766544346313,61.82134360616992
1588960222.6540248,2.694695077149155,-0.8123144746509919,-9.078471711976489,-0.5900824557106702,-0.36035186545840475,0.5488888888888889,-4.9375,-13.889878765613519,68.96982916972814
1588960222.6640248,2.704143516124361,-0.8770717580621807,-9.117803818546635,-0.5955555555555555,-0.3422222222222222,0.5488888888888889,-5.860755435119873,-13.945613894462486,76.59340028546015
1588960222.6740248,2.8885188269189133,-0.9897841690675638,-9.256728729162157,-0.5955555555555555,-0.3422222222222222,0.5488888888888889,-6.7598391676520055,-15.515049669425617,82.06559445101337
1588960222.6840248,3.019888378200919,-1.1228627708470125,-9.372081418253448,-0.5955555555555555,-0.3422222222222222,0.5488888888888889,-7.407296454366382,-16.572718319107025,87.40893795141169
1588960222.6940248,3.028424331426805,-1.22,-9.239041273767198,-0.5955555555555555,-0.3422222222222222,0.5488888888888889,-7.883988058432524,-14.753855889627454,94.58302867522028
1588960222.7040248,3.099744937393724,-1.22,-9.200139125057968,-0.5955555555555555,-0.3422222222222222,0.5488888888888889,-8.248695702581543,-14.06496367290153,98.79742811872005
1588960222.7140248,2.8757161060755414,-1.233653018536773,-9.169842281153079,-0.6222222222222222,-0.3111111111111111,0.5788888888888889,-8.499014257206742,-17.863171086480897,102.51691690909529
1588960222.7240248,2.845939158622164,-1.3780564955651338,-9.320086916254052,-0.6222222222222222,-0.3111111111111111,0.5788888888888889,-8.725027161329391,-20.875543226587826,105.86380374381078
1588960222.7340248,2.860725066587748,-1.5007250665877478,-9.379792838117787,-0.6222222222222222,-0.3111111111111111,0.5788888888888889,-8.813147380881917,-21.185557857354247,108.79905297425273
1588960222.7440248,2.9264055341484876,-1.5879723292575625,-9.352811068296974,-0.6222222222222222,-0.3111111111111111,0.5788888888888889,-8.987327057859765,-20.281106829697503,111.80299387117327
1588960222.7540247,2.7860996951914903,-1.6415968233562113,-9.32272254131503,-0.6241419398538854,-0.2962332994657212,0.5721698771780677,-9.1875,-18.838023824828415,115.79875381010638
1588960222.7640247,2.6148502934115765,-1.568143838356895,-9.290299413176847,-0.6266666666666667,-0.2766666666666667,0.5633333333333334,-9.339071669111764,-19.807259019071754,120.15231770138703
1588960222.7740247,2.7255618355202547,-1.677721285760526,-9.372366606080222,-0.6266666666666667,-0.2766666666666667,0.5633333333333334,-9.747410552000597,-23.536605520005974,123.55084748400269
1588960222.7840247,2.8581277942432313,-2.024383382729693,-9.505230320992615,-0.6266666666666667,-0.2766666666666667,0.5633333333333334,-9.875,-24.14663811724519,125.58989614206058
1588960222.7940247,2.804555076807793,-2.1912041026601723,-9.483036717871862,-0.6266666666666667,-0.2766666666666667,0.5633333333333334,-9.845331623891594,-21.85755042462845,127.3445666682278
1588960222.8040247,2.678088339970374,-2.2636176679940747,-9.410426501991113,-0.6309215546706168,-0.2685114646590956,0.5681200823377773,-9.852389575037034,-19.425552124814836,129.16350926299995
1588960222.8140247,2.51671014409111,-2.231342028818222,-9.362013043227332,-0.6524386474545186,-0.2272703701566171,0.5923268117196668,-10.054112319886112,-18.41693840056944,131.88676631846252
1588960222.8240247,2.5194061352065478,-2.428218405619643,-9.449816652703486,-0.6533333333333333,-0.2255555555555556,0.5933333333333334,-10.375,-23.355295804601404,135.18520815879359
1588960222.8340247,2.4655347350980312,-2.498044104303917,-9.531660420529409,-0.6533333333333333,-0.2255555555555556,0.5933333333333334,-10.43404079056373,-25.87338751035544,137.38907106789222
1588960222.8440247,2.3198592921669334,-2.389824115208667,-9.489964823041733,-0.6533333333333333,-0.2255555555555556,0.5933333333333334,-10.5,-26.594079783983748,138.688819135935
1588960222.8540246,2.209029082921835,-2.251286353652293,-9.46225727073046,-0.6533333333333333,-0.2255555555555556,0.5933333333333334,-10.5,-26.853838086901952,139.7278523476078
1588960222.8640246,2.064923879713809,-2.1046446823390177,-9.435634515035774,-0.7088888888888889,-0.18666666666666668,0.6055555555555555,-10.455107859486793,-28.44987290870945,140.65847073538114
1588960222.8740246,1.9299136652716906,-2.0500431673641546,-9.480129502092463,-0.7088888888888889,-0.18666666666666668,0.6055555555555555,-10.311690611922101,-29.374730203974035,141.2508093880779
1588960222.8840246,1.8364727372362772,-1.9962763722714403,-9.500196364964838,-0.7088888888888889,-0.18666666666666668,0.6055555555555555,-10.033090921545346,-28.791681888756965,141.52940907845465
1588960222.8940246,1.7488870997545074,-1.97074730090014,-9.467774199509014,-0.7088888888888889,-0.18666666666666668,0.6055555555555555,-9.914348124488557,-27.74065873874825,141.81021500409153
1588960222.9040246,1.539874856706152,-1.9708635842567825,-9.406954528085594,-0.7460177047509872,-0.18410605867617716,0.5933926676007303,-9.83899145013374,-25.866760603744744,142.48508549866258
1588960222.9140246,1.433193956022723,-2.0195818680681685,-9.445323260037872,-0.7733333333333333,-0.18222222222222226,0.5844444444444444,-9.77792296247633,-25.401616300189357,143.51069482552074
1588960222.9240246,1.4441035494837307,-2.1437152389197407,-9.525767013661607,-0.7733333333333333,-0.18222222222222226,0.5844444444444444,-9.77483820393167,-25.57532359213666,144.52241126290673
1588960222.9340246,1.3777968076063345,-2.1931187230425335,-9.558898403803166,-0.7733333333333333,-0.18222222222222226,0.5844444444444444,-9.706992019015836,-25.5,145.2568849762302
1588960222.9440246,1.2897290012651497,-2.260812996204551,-9.525675571609307,-0.7733333333333333,-0.18222222222222226,0.5844444444444444,-9.508444645116338,-26.040553548836613,144.95100180604706
1588960222.9540246,1.2457525510204082,-2.256823979591837,-9.503010204081633,-0.9073639455782312,-0.23224773242630387,0.5325311791383219,-9.384406887755102,-27.28093112244898,143.8346619897959
1588960222.9640245,1.26068933879748,-2.0651727934430237,-9.43862132240504,-1.0888888888888888,-0.3,0.4622222222222222,-9.1056066120252,-28.23275506147165,142.02372469264176
1588960222.9740245,1.2683378669587029,-2.0108863531988552,-9.409307591761756,-1.0888888888888888,-0.3,0.4622222222222222,-8.76471588299714,-28.490823824495706,139.69805834245946
1588960222.9840245,1.110100470777357,-1.8701004707773567,-9.563802196960998,-1.0888888888888888,-0.3,0.4622222222222222,-8.251883827075439,-27.793759807861598,133.26821032839592
1588960222.9940245,1.0813366243829283,-1.852165843904268,-9.474331687808537,-1.0888888888888888,-0.3,0.4622222222222222,-7.780244329188277,-27.185488658376553,128.35256670624258
1588960223.0040245,1.0277851566174396,-1.834611607562788,-9.464611607562789,-1.3075111570982136,-0.18398915122440662,0.3493849225012803,-7.239153184084282,-26.202479776126424,121.72686247765968
1588960223.0140245,0.9666436685117658,-1.7948403683202603,-9.418904220992156,-1.7777777777777777,0.06555555555555556,0.10666666666666667,-6.729022928198536,-25.32134401479577,116.29907329678113
1588960223.0240245,0.8746794001680563,-1.913705319630276,-9.500641199663887,-1.7777777777777777,0.06555555555555556,0.10666666666666667,-6.058492502100704,-23.688540252730917,107.82691002520845
1588960223.0340245,0.8432183655190836,-1.9545979792900803,-9.553908172404581,-1.7777777777777777,0.06555555555555556,0.10666666666666667,-5.46408172404582,-22.923852155057276,100.27157021417011
1588960223.0440245,0.8498089282066592,-1.8821017897267485,-9.520955358966704,-1.7777777777777777,0.06555555555555556,0.10666666666666667,-5.134553589667038,-22.511941987083798,95.45222124888043
1588960223.0540245,0.8461586072220567,-1.8930483566676597,-9.5047582166617,-1.499063390667005,0.10866451895247448,0.325626055009433,-4.451982590275709,-20.64025626385993,83.76378131929964
1588960223.0640244,0.8260968344123605,-2.0180533820550504,-9.39415021646741,-1.0522222222222222,0.17777777777777778,0.6766666666666666,-3.9984559320014297,-17.911499086467806,73.74061147078683
1588960223.0740244,0.835074668657831,-2.072636736979653,-9.51064681724846,-1.0522222222222222,0.17777777777777778,0.6766666666666666,-3.388370356542841,-14.972635103602762,65.22325345342543
1588960223.0840244,0.8825061204504652,-1.951345683042272,-9.575197486535009,-1.0522222222222222,0.17777777777777778,0.6766666666666666,-2.8533948098580058,-11.639658478864044,55.355164640117515
1588960223.0940244,0.7577283219887541,-1.943637762651672,-9.47590944066292,-1.0522222222222222,0.17777777777777778,0.6766666666666666,-2.1079720331459013,-5.446182302456348,39.236234832790764
1588960223.1040244,0.7286208205485085,-1.9010347009141808,-9.447241641097017,-0.8996569273540772,0.15754812541957072,0.7011108299328336,-1.551727137569987,-1.5646688071363046,27.213414971688863
1588960223.1140244,0.673384786994964,-1.888307606502518,-9.442953691704533,-0.65,0.12444444444444445,0.7411111111111112,-0.94192393497482,0.8098056544348027,15.47675050442086
1588960223.1240244,0.6112909908149307,-1.9070900918506937,-9.5,-0.65,0.12444444444444445,0.7411111111111112,-0.5685191518467853,1.5302252296267345,6.807753566542896
1588960223.1340244,0.6006497647776706,-1.847090329311261,-9.511610141133398,-0.65,0.12444444444444445,0.7411111111111112,0.10275352833494084,1.0948098537487945,-6.224920280298408
1588960223.1440244,0.5674593056078283,-1.8722151392547985,-9.504593056078283,-0.65,0.12444444444444445,0.7411111111111112,0.6736553796575084,0.7023619801467821,-14.332228253199096
1588960223.1540244,0.5300614454306057,-1.8599180727591924,-9.451954940017556,-0.627379758769791,0.11690436403437478,0.7413328781819956,1.0498975909489905,0.8743599434311908,-22.346850921681458
1588960223.1640244,0.41129706175805825,-2.01592352018896,-9.536849992873286,-0.5366666666666666,0.08666666666666667,0.7422222222222222,1.2488419091445908,2.142371362831138,-28.616967176396326
1588960223.1740243,0.4710802060638146,-1.828033638085154,-9.391662356702163,-0.5366666666666666,0.08666666666666667,0.7422222222222222,1.1954641017287368,2.943038474068946,-34.00812572539757
1588960223.1840243,0.43867453464179845,-1.8592782575074107,-9.568070811776186,-0.5366666666666666,0.08666666666666667,0.7422222222222222,1.8456366339550383,3.664945547106586,-40.217686143280616
1588960223.1940243,0.43095207408907626,-1.913335481376466,-9.498568666801686,-0.5366666666666666,0.08666666666666667,0.7422222222222222,2.038698147773093,5.354233793014564,-43.30667036436949
1588960223.2040243,0.3990887775764681,-1.9559170840882447,-9.484094639241182,-0.5346469383163404,0.08818146292941136,0.7394450957405236,2.1392012149632316,10.096451028455718,-47.01124373867633
1588960223.2140243,0.4458098743197212,-1.8439524685799304,-9.42604753142007,-0.5277777777777778,0.09333333333333334,0.73,2.3357175717473866,12.421435143494772,-49.54049371598606
1588960223.2240243,0.4840853969410051,-1.8318902039329936,-9.458231791697013,-0.5277777777777778,0.09333333333333334,0.73,2.5499237527312455,12.975609978150036,-51.152439912600144
1588960223.2340243,0.5375451565914057,-1.7631562272396213,-9.603336853605244,-0.5277777777777778,0.09333333333333334,0.73,2.5021918244719594,13.357465404224326,-52.679861616897306
1588960223.2440243,0.5644068320421955,-1.6227118015493653,-9.32339006098566,-0.5277777777777778,0.09333333333333334,0.73,2.6885597803692103,13.643008540052744,-54.70021350131861
1588960223.2540243,0.5949047044632086,-1.58,-9.45707117008444,-0.5286269937005763,0.08767189384800965,0.7328307197426619,3.0318455971049456,13.719345597104946,-56.4016435464415
1588960223.2640243,0.5576447105788422,-1.5352894211576846,-9.393193612774452,-0.5311111111111111,0.07111111111111111,0.7411111111111112,3.184880239520958,13.992140718562874,-58.663922155688624
1588960223.2740242,0.5115006208056329,-1.4430012416112656,-9.399785625599195,-0.5311111111111111,0.07111111111111111,0.7411111111111112,3.308480479984912,14.362941439954737,-59.77632431986421
1588960223.2840242,0.5031049320583795,-1.3958887770508304,-9.505845747357824,-0.5311111111111111,0.07111111111111111,0.7411111111111112,3.4180941746351285,12.044563097634626,-60.5
1588960223.2940242,0.5218050087267119,-1.517048747818322,-9.427048747818322,-0.5311111111111111,0.07111111111111111,0.7411111111111112,3.227437390916102,7.853343040954662,-60.057312172748304
1588960223.3040242,0.55416724456773,-1.52250173370319,-9.407498266296809,-0.53296321980788,0.06648083936918889,0.7332396491498434,2.940113196370781,5.445296246532593,-58.427003871937124
1588960223.3140242,0.5810478746297374,-1.5847304995063167,-9.400508873642371,-0.54,0.048888888888888885,0.7033333333333334,3.026385161649662,5.759541380794451,-55.053146915111775
1588960223.3240242,0.6037309499758443,-1.6137309499758445,-9.492385699855067,-0.54,0.048888888888888885,0.7033333333333334,2.7033631253019457,8.13514811805525,-51.46098313496421
1588960223.3340242,0.5920307469414038,-1.47624597553123,-9.52281229877656,-0.54,0.048888888888888885,0.7033333333333334,2.4003843367675466,11.038116749839022,-47.41499818898905
1588960223.3440242,0.538279966336713,-1.1693199214523304,-9.448459904620687,-0.54,0.048888888888888885,0.7033333333333334,2.090500140263696,13.045250070131848,-43.61337314150603
1588960223.3540242,0.5097475397182736,-1.0994950794365472,-9.34324917990609,-0.5360287801147774,0.04563970898279768,0.6964739535315853,2.1687705023477197,11.398873174889046,-40.565860776998775
1588960223.3640242,0.5577661636324482,-1.2649477363460169,-9.360412311362168,-0.5277777777777778,0.03888888888888889,0.6822222222222222,1.9132307386485994,6.077114772971988,-37.30176876439114
1588960223.3740242,0.609213954789963,-1.481134914959112,-9.392576723360593,-0.5277777777777778,0.03888888888888889,0.6822222222222222,1.71069773949815,2.679854870806256,-34.46369243804608
1588960223.3840241,0.629019330504479,-1.3398031588873174,-9.5279086122898,-0.5277777777777778,0.03888888888888889,0.6822222222222222,1.3104569385509979,1.3970562234794908,-29.090290055791293
1588960223.3940241,-0.0018563646268386913,-2.778904122026512,-10.140704557835482,-0.5277777777777778,0.03888888888888889,0.6822222222222222,1.4657924005810787,1.3035897494098418,-23.177281187579446
1588960223.4040241,-9.042412202651171,-17.668783366624297,-18.29015253313964,-0.5277777777777778,0.03888888888888889,0.6822222222222222,1.037375158888687,-10.549287270746325,0.4332690212456889
1588960223.414024,6.989374541211015,10.712588605093263,-6.7937322366315955,-0.5344444444444445,0.04,0.6844444444444444,139.73661394906736,-25.247760168646128,366.1076424833895
1588960223.424024,-0.19467371868471162,0.05493459316004312,-8.262120122720173,-0.5344444444444445,0.04,0.6844444444444444,246.31315406839957,95.14425737356245,325.3026430951081
1588960223.434024,0.8394385650224215,2.789998206278027,-10.427782959641256,-0.5344444444444445,0.04,0.6844444444444444,94.60158071748879,122.51776905829597,219.4327130044843
1588960223.444024,1.3836895220463732,1.4923421308107376,-4.26193822951708,-0.5344444444444445,0.04,0.6844444444444444,2.156621813830629,55.9240483823629,191.3143555415077
1588960223.454024,0.5136603838540322,2.6794316779986804,-9.806336173508909,-0.5299639160634083,0.06660313726240226,0.675483387682372,-70.03186053016611,-6.623327093553662,148.95234457928106
1588960223.464024,0.22009110587787528,1.8206477318680274,-8.864210376079356,-0.5166666666666667,0.14555555555555555,0.6488888888888888,-143.17168730226695,-77.2463962035253,108.76144919003782
1588960223.474024,0.46552704205626727,2.5141852370556492,-10.175086913539564,-0.5166666666666667,0.14555555555555555,0.6488888888888888,-211.1923116530049,-146.70815355068584,84.67059614037979
1588960223.484024,0.6277487782904256,4.971609926560921,-16.286550274372765,-0.5166666666666667,0.14555555555555555,0.6488888888888888,-199.4851842119632,-208.31400154249366,57.83280836222665
1588960223.494024,0.6517109398458611,1.1355325793213893,-4.19759603643279,-0.5166666666666667,0.14555555555555555,0.6488888888888888,-21.772665398858976,-227.06398758882995,-0.997403913522172
1588960223.504024,-1.6610440758607017,0.7317742681556862,-9.017000594726756,-0.5071715970248978,0.15148997408166112,0.6590960887537904,95.20606043084649,-87.24185554747902,-34.20651060596048
1588960223.514024,-0.8734647137150466,0.5741802724572366,-10.08200450681143,-0.4722222222222222,0.17333333333333334,0.6966666666666667,10.863289972344568,-18.945142374270205,-19.56996056539998
1588960223.524024,-0.8584385755258125,-0.940277724665392,-10.539404875717016,-0.4722222222222222,0.17333333333333334,0.6966666666666667,-40.92445028680688,40.70397944550669,-3.664329887667304
1588960223.534024,-2.9640415895396006,-1.9609117403804497,-9.208564058130834,-0.4722222222222222,0.17333333333333334,0.6966666666666667,-40.47272163364972,159.29728791697846,4.849380686069868
1588960223.544024,-4.077548459693,-0.857169486847413,-14.057734867624891,-0.4722222222222222,0.17333333333333334,0.6966666666666667,-14.984677873081251,211.69390379185154,8.918729167108978
1588960223.554024,-1.058785163796947,-0.31397019171567486,-7.236576505806671,-0.4722222222222222,0.17333333333333334,0.6966666666666667,3.882592726269081,122.86746167809599,9.6422528184115
1588960223.564024,-0.5341741309113686,-3.2213394926401504,-9.516870497964298,-0.3944444444444444,0.16444444444444445,0.7033333333333334,1.899941277795177,1.065402834325086,9.886921586282494
1588960223.574024,0.17516567491387414,-9.382087065455686,-14.344321954274976,-0.3944444444444444,0.16444444444444445,0.7033333333333334,-3.518626683369872,-45.649220952082686,8.942777168806765
1588960223.584024,-3.4068358006150326,-17.75407745119073,-8.560133018665523,-0.3944444444444444,0.16444444444444445,0.7033333333333334,-5.0481052885646855,-51.39698428448831,-18.80237162983623
1588960223.594024,-0.9396887291711362,-2.613743295430165,-9.28003003647286,-0.3944444444444444,0.16444444444444445,0.7033333333333334,9.43419799935636,19.889693064792965,-34.456382303511404
1588960223.604024,0.39456788833632833,-1.256030339755109,-9.675346650507752,-0.401043573348935,0.1649424919089343,0.7012166316092515,2.365325546408124,31.512111350244474,-27.24685528020394
1588960223.614024,0.5085005641689999,-1.6942329391115383,-9.482537506790923,-0.45265410171758114,0.1688376261254359,0.6846623111891197,-0.15433939989134515,4.2339995403067405,-17.935050043879812
1588960223.624024,-0.11179076629349996,-3.290887355723336,-9.805911221036189,-0.4533333333333333,0.1688888888888889,0.6844444444444444,1.077654473661373,-4.52674271023171,-11.392234552633862
1588960223.634024,0.33895689474785523,-1.912823289391086,-9.448650868382508,-0.4533333333333333,0.1688888888888889,0.6844444444444444,0.8629175167399037,1.8023301815233312,-11.4375
1588960223.644024,0.33327068119238595,-1.7705989863921145,-9.406112773853705,-0.4533333333333333,0.1688888888888889,0.6844444444444444,1.304902929087354,2.8725408037032603,-12.034351430623728
1588960223.654024,0.21474288647226766,-2.071028454110929,-9.633657010874796,-0.452311116814052,0.16786667236960762,0.6861968156203552,0.13321423988708178,0.617144644403811,-13.907856959548328
1588960223.6640239,0.18,-2.21,-9.79,-0.4455555555555555,0.16111111111111112,0.6977777777777778,0.1875,-1.5,-14.125
1588960223.6740239,0.19796905729644682,-2.084216598924872,-9.454577597132992,-0.4455555555555555,0.16111111111111112,0.6977777777777778,0.7490330405139636,-0.7512892793147152,-14.723968576548227
1588960223.6840239,0.18895399042688288,-2.273263846830126,-9.627573703233368,-0.4455555555555555,0.16111111111111112,0.6977777777777778,1.7965492820162157,-1.3030868418481978,-15.826361482856306
1588960223.6940238,0.1807595975383413,-2.142153560613461,-9.37354752368858,-0.4455555555555555,0.16111111111111112,0.6977777777777778,1.1819698153755982,-0.7397223307609652,-14.955707238448765
1588960223.7040238,0.1483407929984526,-2.2439731452055707,-9.59694181461207,-0.4455555555555555,0.16111111111111112,0.6977777777777778,0.7292599124806576,-0.6083519824961315,-14.59798193873646
1588960223.7140238,0.2035322136903051,-2.359021475793537,-9.44587114523878,-0.4618960474867345,0.15112525493094622,0.6868841164903251,0.14255173900546136,0.050268447419209106,-12.548130620457439
1588960223.7240238,0.16151451918013926,-2.2310969830528307,-9.606631238176961,-0.4655555555555556,0.14888888888888888,0.6844444444444444,0.29095890945258107,-0.13234247323361353,-10.434404070050899
1588960223.7340238,0.2992913569375016,-2.1328345722499935,-9.460629645937475,-0.4655555555555556,0.14888888888888888,0.6844444444444444,1.2322839234375405,-0.04429019140614882,-7.937006267968608
1588960223.7440238,0.2948380026302156,-2.1579049934244607,-9.567343482246045,-0.4655555555555556,0.14888888888888888,0.6844444444444444,0.9848812417805762,-0.5342874506834575,-9.067493922607898
1588960223.7540238,0.3282680428804846,-2.0743298927987883,-9.34169071055673,-0.4655555555555556,0.14888888888888888,0.6844444444444444,0.8804123659984856,0.09252580400908628,-11.261340314031802
1588960223.7640238,0.2472201017811705,-2.0909025127226464,-9.63277989821883,-0.4622222222222222,0.13666666666666666,0.6977777777777778,0.24954774968193383,0.4826256361323155,-14.88492465807888
1588960223.7740238,0.32338583901712914,-2.108464597542823,-9.573543356068518,-0.4622222222222222,0.13666666666666666,0.6977777777777778,0.9913882162138143,1.0433074692852857,-17.30881062406967
1588960223.7840238,0.3285570638511815,-2.1442785319255906,-9.606815485168427,-0.4622222222222222,0.13666666666666666,0.6977777777777778,1.6197146807440925,1.5195889894419305,-19.637751382604325
1588960223.7940238,0.2349820654610671,-2.121326221790465,-9.360035869077866,-0.4622222222222222,0.13666666666666666,0.6977777777777778,1.9762542501120908,1.2972673180391572,-21.42271568151248
1588960223.8040237,0.20363921685846662,-2.254533328351517,-9.422721566283066,-0.4622222222222222,0.13666666666666666,0.6977777777777778,1.4375490397548947,1.9828921312210432,-22.891911709759377
1588960223.8140237,0.18,-2.2559859703819174,-9.55,-0.4744444444444445,0.13111111111111112,0.6977777777777778,1.0795853114150074,3.906571069226954,-22.175175370226032
1588960223.8240237,0.18,-2.35132347870066,-9.55264695740132,-0.4744444444444445,0.13111111111111112,0.6977777777777778,0.9117609025494839,5.479782581208763,-20.63604335731856
1588960223.8340237,0.19193381151906824,-2.362983452879767,-9.555082735601165,-0.4744444444444445,0.13111111111111112,0.6977777777777778,1.543853419501456,4.8194049901758875,-17.914361551026204
1588960223.8440237,0.29664383915205533,-2.3946986251871225,-9.427383553865479,-0.4744444444444445,0.13111111111111112,0.6977777777777778,1.3666095978801382,3.6660959788013834,-14.635873539583942
1588960223.8540237,0.2605588726190271,-2.445217578333362,-9.50677048023814,-0.4744444444444445,0.13111111111111112,0.6977777777777778,1.2763971815475679,2.7639718154756783,-12.064819674105683
1588960223.8640237,0.2427568326671708,-2.4727697958301826,-9.554135249000757,-0.4744444444444445,0.12444444444444445,0.6844444444444444,0.22415469374527386,2.892311223938641,-7.618741222858377
1588960223.8740237,0.2686479729625457,-2.3109501689840894,-9.592971959443819,-0.4744444444444445,0.12444444444444445,0.6844444444444444,-0.018574746523866092,1.8809385561505578,-4.625078126205651
1588960223.8840237,0.3365792529126797,-2.1645609961164274,-9.562850622572768,-0.4744444444444445,0.12444444444444445,0.6844444444444444,-0.24287344356808266,-0.1537914881691156,-0.6014107979340992
1588960223.8940237,0.31896552367448977,-2.2689655236744897,-9.583448378791836,-0.4744444444444445,0.12444444444444445,0.6844444444444444,0.431034522965561,0.0625,0.0625
1588960223.9040236,0.3111406290810044,-2.2611406290810043,-9.45825006529607,-0.4744444444444445,0.12444444444444445,0.6844444444444444,0.38212893175627777,0.0625,0.0625
1588960223.9140236,0.31,-2.268444858227072,-9.499114007589506,-0.4575547279902996,0.11975285654051533,0.6722463158942288,0.005537452565583245,-0.14862145567680957,0.0625
1588960223.9240236,0.31948125137919914,-2.154149988966407,-9.488818726553616,-0.4544444444444444,0.11888888888888888,0.67,-0.4870312844799783,0.2305469267199674,0.12175782111999457
1588960223.9340236,0.3123615284072584,-2.211107772741933,-9.609854017076607,-0.4544444444444444,0.11888888888888888,0.67,-0.30903821018146016,-0.03644268472780976,0.07725955254536504
1588960223.9440236,0.30205500663618934,-2.251027503318095,-9.488458745022859,-0.4544444444444444,0.11888888888888888,0.67,0.37821094786904585,0.17144526065477067,0.006421895738091727
1588960223.9540236,0.3329818610824362,-2.266490930541218,-9.465263604188173,-0.4544444444444444,0.11888888888888888,0.67,0.4265341579413066,-0.07017078970653295,0.10306831588261318
1588960223.9640236,0.31932755438211174,-2.222017336853665,-9.445379564943106,-0.4744444444444445,0.13111111111111112,0.6933333333333334,-0.08771671067081006,0.05829721488819832,0.0
1588960223.9740236,0.3110078755856844,-2.247480311035789,-9.52453544013558,-0.4744444444444445,0.13111111111111112,0.6933333333333334,-0.4249015551789453,0.018897667231582097,-0.0031496112052636824
1588960223.9840236,0.33,-2.2022094606254674,-9.605581078749065,-0.4744444444444445,0.13111111111111112,0.6933333333333334,-0.17829391406055262,0.3473817421816578,-0.0532939140605526
1588960223.9940236,0.33,-2.2263363564895595,-9.55732728702088,-0.4744444444444445,0.13111111111111112,0.6933333333333334,-0.07776518129350181,0.04579554388050544,0.04723481870649819
1588960224.0040236,0.3220499698303797,-2.2379500301696207,-9.470499698303797,-0.4744444444444445,0.13111111111111112,0.6933333333333334,0.3350015084810155,0.04968768856012694,0.012812311439873061
1588960224.0140235,0.3106641746999803,-2.2686716506000395,-9.483985048199882,-0.4622222222222222,0.12444444444444445,0.6977777777777778,-0.2082554593743852,0.07080218374975408,0.12084890812512296
1588960224.0240235,0.31891579775723,-2.25216840448554,-9.533494786543379,-0.4622222222222222,0.12444444444444445,0.6977777777777778,-0.4661186799134369,0.1739474719653748,0.0692762640173126
1588960224.0340235,0.3288672540524753,-2.2145309837900986,-9.619805286472278,-0.4622222222222222,0.12444444444444445,0.6977777777777778,-0.2783186486881176,0.021238986516088187,0.007079662172029398
1588960224.0440235,0.32,-2.2302433753914332,-9.568945373303789,-0.4622222222222222,0.12444444444444445,0.6977777777777778,0.3135140641309722,-0.06351406413097221,0.06148593586902778
1588960224.0540235,0.32,-2.2532860256011134,-9.469093889061842,-0.4622222222222222,0.12444444444444445,0.6977777777777778,0.40952510667130587,-0.15952510667130587,-0.034525106671305886
1588960224.0640235,0.32,-2.2658198551008417,-9.457459565302527,-0.4777418358244675,0.12832434784500577,0.6854914170093336,0.2192554337184257,0.1034927550420991,0.046622283140787146
1588960224.0740235,0.333408203125,-2.2498876953125,-9.456591796875,-0.4888888888888889,0.13111111111111112,0.6766666666666666,-0.147003173828125,0.270599365234375,0.04119873046875
1588960224.0840235,0.33410166098175886,-2.2223049829452766,-9.538475085273616,-0.4888888888888889,0.13111111111111112,0.6766666666666666,-0.2131353811359929,0.17627076227198576,-0.07372923772801424
1588960224.0940235,0.33,-2.217640141876783,-9.546519006862518,-0.4888888888888889,0.13111111111111112,0.6766666666666666,-0.04424733981031692,-0.20925620710926052,-0.02949822654021128
1588960224.1040235,0.32294175598991176,-2.2552912200504416,-9.501767023959648,-0.4888888888888889,0.13111111111111112,0.6766666666666666,0.0,-0.3125,-0.044114025063051704
1588960224.1140234,0.33750567040373275,-2.243741494394401,-9.428730153586935,-0.4587402343046824,0.12527588764320022,0.6834744273792294,0.10941044002332966,-0.03897389994167588,0.046910440023329655
1588960224.1240234,0.3107351924406545,-2.2497549358531153,-9.51754935853115,-0.4544444444444444,0.12444444444444445,0.6844444444444444,-0.2408100944918184,0.30484174540984865,0.0625
1588960224.1340234,0.32886625699095495,-2.202834357522613,-9.604898156459296,-0.4544444444444444,0.12444444444444445,0.6844444444444444,-0.5447852654836705,-0.04124231858040461,0.1214570530967341
1588960224.1440234,0.320848188414196,-2.209151811585804,-9.573392753656783,-0.4544444444444444,0.12444444444444445,0.6844444444444444,-0.04771059829852342,-0.0625,0.010602355177449646
1588960224.1540234,0.3350733311022305,-2.202463334448885,-9.502170010039963,-0.4544444444444444,0.12444444444444445,0.6844444444444444,0.18841663877788056,-0.0625,0.0
1588960224.1640234,0.31410014960837807,-2.2517997007832435,-9.445466866144503,-0.4774665336814417,0.12444444444444445,0.6901999667536938,0.3039580216492124,0.1533320865968494,0.05395802164921235
1588960224.1740234,0.2907098509933775,-2.2310647764900664,-9.468935223509934,-0.4811111111111111,0.12444444444444445,0.6911111111111111,-0.16975372516556292,0.006654853062913912,0.002218284354304635
1588960224.1840234,0.31635678555187424,-2.23,-9.575427142207497,-0.4811111111111111,0.12444444444444445,0.6911111111111111,-0.24240996989973798,0.10981993979947596,-0.05490996989973798
1588960224.1940234,0.34736824926561044,-2.211754500489593,-9.56263175073439,-0.4811111111111111,0.12444444444444445,0.6911111111111111,-0.07894844208993446,0.06798281402997816,-0.11951718597002184
1588960224.2040234,0.3196935779454943,-2.2175766055136266,-9.514540366918242,-0.4811111111111111,0.12444444444444445,0.6911111111111111,0.22162270676099077,0.015146215539834869,0.017061353380495387
1588960224.2140234,0.32944253156255127,-2.2394425315625512,-9.470836202656173,-0.46274872019092383,0.14496711664935963,0.693271392395839,0.3125,-0.18227373339891786,0.12325791113297262
1588960224.2240233,0.3395890698651235,-2.2687672095953704,-9.44123279040463,-0.4622222222222222,0.14555555555555555,0.6933333333333334,0.012841566714892394,-0.307363373314043,0.0650683133429785
1588960224.2340233,0.3278227138419577,-2.2517340707629367,-9.537418289264338,-0.4622222222222222,0.14555555555555555,0.6933333333333334,-0.2663781347071748,-0.04612186529282519,-0.01360803848776422
1588960224.2440233,0.31363908825617165,-2.2209172647685147,-9.561834529537029,-0.4622222222222222,0.14555555555555555,0.6933333333333334,-0.3579886032021453,0.08524430160107264,-0.0625
1588960224.2540233,0.31541764647434833,-2.2154176464743482,-9.529164707051303,-0.4622222222222222,0.14555555555555555,0.6933333333333334,-0.04161767628258206,0.09636029046467724,0.005220580929354485
1588960224.2640233,0.31465348018281264,-2.2360395594515623,-9.487920881096876,-0.4622222222222222,0.13783280470850712,0.6885808712736112,0.1875,0.09158425114257886,-0.004331497714842286
1588960224.2740233,0.3190270005809865,-2.268054001161973,-9.48708100174296,-0.4622222222222222,0.13111111111111112,0.6844444444444444,0.01824373910650401,0.11891875363116534,0.05033750726233069
1588960224.2840233,0.31119908269379226,-2.2347963307751693,-9.578009173062076,-0.4622222222222222,0.13111111111111112,0.6844444444444444,-0.27502866581899094,-0.09502293265519277,-0.04751146632759638
1588960224.2940233,0.31658594858713424,-2.2168281028257315,-9.570242154238597,-0.4622222222222222,0.13111111111111112,0.6844444444444444,-0.2713378213304112,0.08081089334794403,-0.02133782133041119
1588960224.3040233,0.32,-2.216259346176936,-9.52870326911532,-0.4622222222222222,0.13111111111111112,0.6844444444444444,-0.09351634557659771,0.031016345576597715,0.03912091360585057
1588960224.3140233,0.30841165606402626,-2.2373825159039606,-9.481029140160066,-0.45771564402489906,0.12724832979911987,0.6844444444444444,0.07242714959983583,-0.026286425200082085,0.026286425200082085
1588960224.3240232,0.3081442946648946,-2.2418557053351056,-9.46,-0.4544444444444444,0.12444444444444445,0.6844444444444444,0.125,-0.15270552496677425,0.0
1588960224.3340232,0.31929047786190645,-2.24,-9.54361430075716,-0.4544444444444444,0.12444444444444445,0.6844444444444444,-0.10726194654766083,0.04476194654766083,-0.05806548663691521
1588960224.3440232,0.32,-2.2142671988420797,-9.55,-0.4544444444444444,0.12444444444444445,0.6844444444444444,-0.2322200048246672,0.008889997587666391,-0.008889997587666391
1588960224.3540232,0.3266747613937991,-2.2166747613937994,-9.5433252386062,-0.4544444444444444,0.12444444444444445,0.6844444444444444,-0.1248482238662676,0.0834345174224883,0.04171725871124415
1588960224.3640232,0.3150323654521916,-2.212516182726096,-9.510064730904382,-0.46359133222366067,0.1344228674763167,0.6944228674763168,0.031047715923802482,-0.01532157388570371,0.10927385796190124
1588960224.3740232,0.31850474583952265,-2.235514237518568,-9.491495254160478,-0.4666666666666667,0.13777777777777778,0.6977777777777778,0.1688093229940331,-0.22196398449104962,0.125
1588960224.3840232,0.32,-2.2518080745137907,-9.537232298055164,-0.4666666666666667,0.13777777777777778,0.6977777777777778,0.11369953428880654,-0.10239906857761308,0.014299301433209802
1588960224.3940232,0.3134044786564031,-2.2336179146256123,-9.563404478656404,-0.4666666666666667,0.13777777777777778,0.6977777777777778,-0.14361004198740376,0.12366602519244227,0.019944016794961508
1588960224.4040232,0.3198536179815315,-2.2150731910092345,-9.540292764036938,-0.4666666666666667,0.13777777777777778,0.6977777777777778,-0.219207443807714,0.09512233142314201,0.03170744380771401
1588960224.4140232,0.33,-2.218909994267151,-9.5140600038219,-0.46897666518037245,0.13381778032571076,0.6957977790517443,-0.15037502388687177,-0.018562488056564113,-0.018562488056564113
1588960224.4240232,0.33,-2.2358882894208443,-9.5,-0.4744444444444445,0.12444444444444445,0.6911111111111111,0.040292764478899304,-0.11389638223944965,-0.011103617760550348
1588960224.4340231,0.32658608515057114,-2.2402417445482867,-9.520483489096573,-0.4744444444444445,0.12444444444444445,0.6911111111111111,0.16616303219106957,-0.20883696780893043,-0.0015109034267912769
1588960224.4440231,0.3137581949562138,-2.2350327798248553,-9.535032779824855,-0.4744444444444445,0.12444444444444445,0.6911111111111111,-0.10906768914198209,-0.13296615542900897,-0.007966155429008956
1588960224.4540231,0.31558628766102415,-2.2144137123389758,-9.52,-0.4744444444444445,0.12444444444444445,0.6911111111111111,-0.21508570211859895,-0.0625,0.0625
1588960224.464023,0.32443928265009314,-2.2055607173499068,-9.511121434699813,-0.48282975611684265,0.12444444444444445,0.6881515893443824,-0.159754483436918,0.020736549689246028,0.007008966873835981
1588960224.474023,0.33,-2.2166096322178594,-9.48892691185476,-0.4933333333333334,0.12444444444444445,0.6844444444444444,0.048017002269370695,0.021189798638377583,-0.027896599546125854
1588960224.484023,0.3245769181362744,-2.240846163727451,-9.539653900500982,-0.4933333333333334,0.12444444444444445,0.6844444444444444,0.0858172150551447,-0.0286057383517149,0.0677885232965702
1588960224.494023,0.2997803853167367,-2.2365202568778244,-9.542820899072385,-0.4933333333333334,0.12444444444444445,0.6844444444444444,-0.08424839451359709,0.0,0.040751605486402914
1588960224.504023,0.3150694225014405,-2.21746528874928,-9.52,-0.4933333333333334,0.12444444444444445,0.6844444444444444,-0.20334194531700153,0.0,0.039170972658500766
1588960224.514023,0.3231278488573135,-2.21,-9.513127848857314,-0.4719533075560865,0.12444444444444445,0.6936073126346931,-0.16409811071641883,-0.04295094464179058,0.0625
1588960224.524023,0.32,-2.2265638105099663,-9.518281905254982,-0.4622222222222222,0.12444444444444445,0.6977777777777778,0.08204763137457932,-0.01073809215635517,0.01073809215635517
1588960224.534023,0.3091267458154325,-2.246309881276851,-9.547183135461419,-0.4622222222222222,0.12444444444444445,0.6977777777777778,0.09102108067322648,-0.06795783865354706,0.0
1588960224.544023,0.3044642727602466,-2.2555357272397534,-9.55660718171926,-0.4622222222222222,0.12444444444444445,0.6977777777777778,-0.04910681900616613,-0.125,0.0
1588960224.554023,0.3175790759441533,-2.23863138608377,-9.536210462027922,-0.4622222222222222,0.12444444444444445,0.6977777777777778,-0.116446163023563,-0.125,0.0
1588960224.564023,0.3294935162696891,-2.2207597255954665,-9.530253241865156,-0.4622222222222222,0.12444444444444445,0.6977777777777778,-0.004748284971664768,-0.125,0.0
1588960224.574023,0.3150872842051018,-2.2149127157948985,-9.49,-0.4744444444444445,0.11888888888888888,0.6766666666666666,-0.12390894743622777,0.031795526281886116,0.06140894743622777
1588960224.584023,0.32,-2.2154272235552486,-9.52799056488674,-0.4744444444444445,0.11888888888888888,0.6766666666666666,0.1071007361015088,-0.03926044166090528,0.06784029444060352
1588960224.594023,0.32,-2.2301518472135258,-9.534620381966187,-0.4744444444444445,0.11888888888888888,0.6766666666666666,0.1865509549154665,-0.02982643237319975,0.09327547745773325
1588960224.604023,0.32,-2.2297555451941653,-9.51,-0.4744444444444445,0.11888888888888888,0.6766666666666666,-0.00305568507293677,-0.001527842536468385,0.0625
1588960224.614023,0.3159200931429622,-2.224079906857038,-9.505920093142961,-0.4744444444444445,0.12115550380946545,0.6798399275554738,-0.17599883571297262,0.013998253569458913,0.0625
1588960224.624023,0.31,-2.2245447657532518,-9.527276171233742,-0.4744444444444445,0.12444444444444445,0.6844444444444444,-0.11361914383129182,0.125,0.028404785957822955
1588960224.634023,0.32075780602376347,-2.230757806023764,-9.58227341807129,-0.4744444444444445,0.12444444444444445,0.6844444444444444,0.06723628764852169,0.09138185617573916,0.06723628764852169
1588960224.644023,0.324082459763844,-2.2340824597638442,-9.556742137874595,-0.4744444444444445,0.12444444444444445,0.6844444444444444,0.16198462647597522,-0.048453879427925645,0.08801537352402478
1588960224.654023,0.3299113343937509,-2.2399113343937507,-9.515044332803125,-0.4744444444444445,0.12444444444444445,0.6844444444444444,0.06360832007811393,-0.03208124005858544,0.09347291998047152
1588960224.664023,0.32897902460717465,-2.2353053661428994,-9.50265268307145,-0.47689355008729456,0.12689355008729453,0.6946490512896532,-0.08546036540171953,0.10842073080343907,0.07907926919656093
1588960224.674023,0.31489712339286063,-2.2197942467857215,-9.499794246785722,-0.4811111111111111,0.13111111111111112,0.7122222222222222,-0.09439297879462089,0.12628595758924177,0.030607021205379118
1588960224.684023,0.32,-2.2360006739806044,-9.55200471786423,-0.4811111111111111,0.13111111111111112,0.7122222222222222,0.050012637136331306,0.024995787621222898,-0.012508424757554204
1588960224.694023,0.31312288266091776,-2.24,-9.538737295965506,-0.4811111111111111,0.13111111111111112,0.7122222222222222,0.16798198336926395,0.08596396673852788,0.02346396673852788
1588960224.704023,0.31,-2.24,-9.508789543856814,-0.4811111111111111,0.13111111111111112,0.7122222222222222,0.11743464910508666,0.019901973657629995,0.0625
1588960224.7140229,0.31579781734635265,-2.24,-9.488404365307295,-0.4811111111111111,0.127245899546876,0.6832331354904588,-0.009972716829408396,0.009972716829408396,-0.009972716829408396
1588960224.7240229,0.31296706409497077,-2.2189011922849122,-9.472967064094972,-0.4811111111111111,0.12444444444444445,0.6622222222222223,-0.10645584940643268,0.0625,0.069367548219298
1588960224.7340229,0.32418658334693495,-2.2241865833469348,-9.562212791755078,-0.4811111111111111,0.12444444444444445,0.6622222222222223,-0.036333854081656444,0.018166927040828222,-0.007999218877515313
1588960224.7440228,0.33,-2.235311936855763,-9.56812837886542,-0.4811111111111111,0.12444444444444445,0.6622222222222223,0.09959881604555612,0.03319960534851871,0.003899210697037414
1588960224.7540228,0.3260725909853043,-2.2360725909853043,-9.516435545911825,-0.4811111111111111,0.12444444444444445,0.6622222222222223,0.08931477463260677,0.0870463063418483,-0.03568522536739323
1588960224.7640228,0.32326414809787735,-2.23,-9.486528296195756,-0.4749454980373428,0.12662054317636268,0.6694758846619496,-0.10330185122346643,0.08419814877653357,-0.12629722316480035
1588960224.7740228,0.32560056657223796,-2.23,-9.506599150141643,-0.4622222222222222,0.13111111111111112,0.6844444444444444,-0.17375177053824362,0.013748229461756373,0.027496458923512747
1588960224.7840228,0.32065353067047075,-2.2228976462196863,-9.561960592011411,-0.4622222222222222,0.13111111111111112,0.6844444444444444,-0.10280514443651925,0.0625,0.125
1588960224.7940228,0.33372229465449804,-2.212092568448501,-9.609537157757496,-0.4622222222222222,0.13111111111111112,0.6844444444444444,-0.023264341590612775,0.07557855280312907,0.09884289439374186
1588960224.8040228,0.31455748702490766,-2.2291149740498155,-9.528982616775831,-0.4622222222222222,0.13111111111111112,0.6844444444444444,0.125,0.011062824377308891,0.0
1588960224.8140228,0.31455707346690953,-2.24,-9.48,-0.4622222222222222,0.12143479727450583,0.6802110571409296,0.056963418336369157,-0.022945127504553728,0.0
1588960224.8240228,0.31,-2.2278981778966056,-9.486050911051697,-0.4622222222222222,0.11333333333333333,0.6766666666666666,-0.07563638814621762,0.02468180592689119,-0.03781819407310881
1588960224.8340228,0.31,-2.2258843701700157,-9.55472807187017,-0.4622222222222222,0.11333333333333333,0.6766666666666666,-0.0882226864374034,0.0367773135625966,0.0110546271251932
1588960224.8440228,0.31,-2.234492818995381,-9.573043086027713,-0.4622222222222222,0.11333333333333333,0.6766666666666666,0.07790059360565821,0.03441988127886836,-0.021740356163394925
1588960224.8540227,0.3127842114245313,-2.24,-9.531647365726405,-0.4622222222222222,0.11333333333333333,0.6766666666666666,0.23259867859667943,0.017401321403320572,-0.07279603579003828
1588960224.8640227,0.3173759272248082,-2.24,-9.49687963612404,-0.4633884767889741,0.12178867894228475,0.685996703200682,0.13829863546515336,0.07890045484494888,0.046099545155051116
1588960224.8740227,0.31258184152342916,-2.24,-9.478072890664004,-0.4666666666666667,0.14555555555555555,0.7122222222222222,0.0,0.07659047143570359,0.032273019042864275
1588960224.8840227,0.31569876503021305,-2.235698765030213,-9.555807409818721,-0.4666666666666667,0.14555555555555555,0.7122222222222222,-0.026882718561168643,-0.03561728143883136,0.07123456287766272
1588960224.8940227,0.31,-2.2214229431499892,-9.572845886299978,-0.4666666666666667,0.14555555555555555,0.7122222222222222,-0.008893394687432665,0.026803302656283667,-0.026803302656283667
1588960224.9040227,0.3194177103048363,-2.2194177103048363,-9.531164579390328,-0.4666666666666667,0.14555555555555555,0.7122222222222222,0.09193034470261345,0.0625,-0.03306965529738655
1588960224.9140227,0.32154211663066956,-2.2328192944564433,-9.50154211663067,-0.4666666666666667,0.14148324134069273,0.7021980641548676,0.10737940964722822,0.11536177105831533,-0.017620590352771776
1588960224.9240227,0.3008231793139502,-2.24,-9.48,-0.4666666666666667,0.13111111111111112,0.6766666666666666,0.057355129287811155,0.23456538786343348,-0.0625
1588960224.9340227,0.31,-2.2368531134807794,-9.52405641126909,-0.4666666666666667,0.13111111111111112,0.6766666666666666,-0.019668040745129015,0.10183608149025802,-0.02316391850974197
1588960224.9440227,0.3102119864840832,-2.2301059932420415,-9.619152054063667,-0.4666666666666667,0.13111111111111112,0.6766666666666666,-0.0625,0.18551262671171972,0.06183754223723991
1588960224.9540226,0.3277146832330292,-2.2377146832330292,-9.526288099398174,-0.4666666666666667,0.13111111111111112,0.6766666666666666,-0.005367080825729627,0.028566459587135187,0.014283229793567593
1588960224.9640226,0.320929107616644,-2.230929107616644,-9.485574645699865,-0.4666666666666667,0.13111111111111112,0.6766666666666666,0.16427230958389957,0.11338615479194979,0.05669307739597489
1588960224.9740226,0.3298350193062514,-2.2367766537958325,-9.463388326897917,-0.4666666666666667,0.13111111111111112,0.6977777777777778,0.10382295688802373,0.04132295688802374,-0.0816147844401187
1588960224.9840226,0.3151060963287302,-2.2602121926574603,-9.536379252273493,-0.4666666666666667,0.13111111111111112,0.6977777777777778,-0.0013262041091276489,-0.031913102054563824,0.09308689794543618
1588960224.9940226,0.32,-2.247063320709305,-9.573240540827522,-0.4666666666666667,0.13111111111111112,0.6977777777777778,-0.0625,0.033069497044561635,0.08639237426114041
1588960225.0040226,0.3179210114317786,-2.2120789885682215,-9.525842022863557,-0.4666666666666667,0.13111111111111112,0.6977777777777778,-0.049506321448616074,0.20049367855138392,0.09901264289723215
1588960225.0140226,0.31,-2.2230831940651368,-9.494584029674316,-0.4735182090336372,0.1273427628092773,0.6912688125291557,0.0,0.17292014837158115,0.0
1588960225.0240226,0.30692824251726786,-2.23,-9.475358787413661,-0.4888888888888889,0.11888888888888888,0.6766666666666666,0.019198484267075978,0.0,0.038396968534151955
1588960225.0340226,0.3057294989566594,-2.2357294989566596,-9.550106492696615,-0.4888888888888889,0.11888888888888888,0.6766666666666666,0.026690631520878805,0.035809368479121195,0.017571894562636414
1588960225.0440226,0.31565160383985014,-2.2173935846405994,-9.58,-0.4888888888888889,0.11888888888888888,0.6766666666666666,-0.0706450479981269,0.0625,-0.0625
1588960225.0540226,0.31569491775194797,-2.212915246744156,-9.541254259767532,-0.4888888888888889,0.11888888888888888,0.6766666666666666,-0.09809323594967488,0.03559323594967488,-0.008686471899349756
1588960225.0640225,0.31,-2.233775594056016,-9.488112202971992,-0.48469378438220456,0.11993766501555995,0.6739398487373218,-0.027103805724851056,0.0,0.038902537149900704
1588960225.0740225,0.31,-2.2481366842429638,-9.480931657878518,-0.46873701750781804,0.12392685673415661,0.6635679502689706,0.10753141477778538,0.0,-0.0508542765185236
1588960225.0840225,0.30724921344593475,-2.2344984268918697,-9.493009438648784,-0.4666666666666667,0.12444444444444445,0.6622222222222223,0.017192415962907766,-0.028115168074184467,0.04530758403709223
1588960225.0940225,0.30805171340814647,-2.22,-9.563896573183706,-0.4666666666666667,0.12444444444444445,0.6622222222222223,0.03733839559954229,0.0625,0.0
1588960225.1040225,0.32,-2.22,-9.532232440272221,-0.4666666666666667,0.12444444444444445,0.6622222222222223,-0.012136812074653745,0.03822637585069251,-0.02427362414930749
1588960225.1140225,0.32,-2.22,-9.505492883668298,-0.4666666666666667,0.12444444444444445,0.6622222222222223,-0.05391736926828491,-0.045334738536569816,-0.10783473853656982
1588960225.1240225,0.31,-2.224192016366692,-9.498384032733384,-0.4544444444444444,0.12444444444444445,0.6766666666666666,0.1875,0.03629989770817604,0.03629989770817604
1588960225.1340225,0.31,-2.24,-9.548374854782496,-0.4544444444444444,0.12444444444444445,0.6766666666666666,0.13007857880469859,-0.0625,-0.005078578804698593
1588960225.1440225,0.32032767010725893,-2.2365574432975803,-9.572787216487901,-0.4544444444444444,0.12444444444444445,0.6766666666666666,0.02151597939012275,-0.04098402060987725,0.0819680412197545
1588960225.1540225,0.3383431396922737,-2.23,-9.538343139692273,-0.4544444444444444,0.12444444444444445,0.6766666666666666,0.04696693461506588,0.005177688461644706,0.0
1588960225.1640224,0.31834246705224234,-2.2316575329477577,-9.511712335261212,-0.45886453230513147,0.12352359280680131,0.677955858959367,-0.0628425144590879,0.021061676306058597,0.01035958092348535
1588960225.1740224,0.31038892576087984,-2.23961107423912,-9.4719446288044,-0.48007397574876476,0.11910495875604436,0.6841419466304267,0.23541528396700484,-0.17777685597800322,0.060069213994500804
1588960225.1840224,0.31220898710260414,-2.2422089871026043,-9.484298858128646,-0.4811111111111111,0.11888888888888888,0.6844444444444444,0.09738766121744845,0.08358149182617268,0.02108149182617268
1588960225.1940224,0.32,-2.2455423295138504,-9.5640564393518,-0.4811111111111111,0.11888888888888888,0.6844444444444444,-0.009286813512811954,-0.09036044053843587,-0.09713955946156413
1588960225.2040224,0.3168032938719836,-2.22,-9.523606587743966,-0.4811111111111111,0.11888888888888888,0.6844444444444444,-0.0025617600996918274,-0.1700823467995891,0.022541173399794556
1588960225.2140224,0.30963296860133205,-2.2196329686013323,-9.508898905803996,-0.48086642351199915,0.11933748282059413,0.6839142879797019,0.12041210751665081,-0.0022939462416745955,-0.05791210751665081
1588960225.2240224,0.30059474355283183,-2.212973717764159,-9.47940525644717,-0.4744444444444445,0.13111111111111112,0.67,0.003717147205198865,-0.05878285279480114,0.06621714720519886
1588960225.2340224,0.31,-2.2518234033433346,-9.519059579939992,-0.4744444444444445,0.13111111111111112,0.67,0.011396270895842261,0.02555186455207887,-0.0027593227603943393
1588960225.2440224,0.31,-2.24,-9.577365179229407,-0.4744444444444445,0.13111111111111112,0.67,-0.042758092545948506,0.042758092545948506,-0.15788713881892275
1588960225.2540224,0.31,-2.24,-9.540458550106141,-0.4744444444444445,0.13111111111111112,0.67,0.014908515459155045,-0.014908515459155045,-0.07138722681126743
1588960225.2640224,0.31,-2.237976975954504,-9.503930927863513,-0.4757931271414418,0.13111111111111112,0.6713486826969973,0.0625,-0.08778780056869945,0.0
1588960225.2740223,0.31261724234765514,-2.2352344846953103,-9.48523448469531,-0.4811111111111111,0.13111111111111112,0.6766666666666666,0.04614223532715529,-0.12206894130862118,-0.03271552934568941
1588960225.2840223,0.31841909275558566,-2.25,-9.512647257955315,-0.4811111111111111,0.13111111111111112,0.6766666666666666,0.009880670277589708,0.0625,-0.11511932972241029
1588960225.2940223,0.31,-2.2476404548910494,-9.570561819564197,-0.4811111111111111,0.13111111111111112,0.6766666666666666,0.03300568613811734,-0.011235784654706635,-0.03300568613811734
1588960225.3040223,0.31,-2.2408554281184787,-9.543421712473915,-0.4811111111111111,0.13111111111111112,0.6766666666666666,-0.0518071485190158,-0.2232678712975395,0.0518071485190158
1588960225.3140223,0.32,-2.2421998277662754,-9.5,-0.4824554503016126,0.1303778351890194,0.678255431164532,0.04875107646078018,0.04875107646078018,-0.09062769115195046
1588960225.3240223,0.32,-2.2575700386609743,-9.5,-0.4918483569594844,0.125254431557453,0.6893561390329259,-0.04731274163109002,-0.04731274163109002,0.14953185407772507
1588960225.3340223,0.32774548293553424,-2.2322545170644656,-9.49705420477359,-0.4933333333333334,0.12444444444444445,0.6911111111111111,0.014090731652910997,0.028181463305821993,-0.034318536694178
1588960225.3440223,0.31774776179929504,-2.24,-9.578738808996475,-0.4933333333333334,0.12444444444444445,0.6911111111111111,0.03434702249118757,0.09684702249118757,0.048423511245593784
1588960225.3540223,0.31,-2.234149194513801,-9.531223791770701,-0.4933333333333334,0.12444444444444445,0.6911111111111111,-0.08078376714437185,0.0,-0.018283767144371858
1588960225.3640223,0.31021278170447397,-2.22,-9.509787218295525,-0.4932387636869005,0.12458629891409377,0.6908037597602043,-0.12234022869407542,0.0,-0.05984022869407542
1588960225.3740222,0.3235524324820028,-2.22,-9.51420972992801,-0.4888888888888889,0.13111111111111112,0.6766666666666666,0.0,-0.02220270301251777,0.018094593974964462
1588960225.3840222,0.32358283803863297,-2.2232085809806836,-9.552834323922733,-0.4888888888888889,0.13111111111111112,0.6766666666666666,0.04010726225854383,-0.042446368870728085,-0.02239273774145617
1588960225.3940222,0.31955311888392635,-2.23,-9.567262508154764,-0.4888888888888889,0.13111111111111112,0.6766666666666666,0.08519533798364029,0.0,0.022695337983640283
1588960225.4040222,0.33424578069338734,-2.2271228903466938,-9.534245780693386,-0.4888888888888889,0.13111111111111112,0.6766666666666666,-0.03596387066632925,0.03596387066632925,-0.0625
1588960225.4140222,0.32,-2.22,-9.515691688468504,-0.4864953824825026,0.13111111111111112,0.6766666666666666,-0.11826826323203864,0.0913413161601932,-0.04903652646407728
1588960225.4240222,0.32,-2.22,-9.481927953310526,-0.4677377518391807,0.13111111111111112,0.6766666666666666,-0.0655124270476957,-0.1724378647615214,0.05647514590460859
1588960225.4340222,0.32,-2.2358865590102033,-9.48,-0.4666666666666667,0.13111111111111112,0.6766666666666666,-0.11214549690688519,0.011081987627540785,0.0625
1588960225.4440222,0.3184372427213532,-2.24765586408203,-9.56531172816406,-0.4666666666666667,0.13111111111111112,0.6766666666666666,0.125,0.014650849487313823,-0.05273276700845745
1588960225.4540222,0.30274118703689845,-2.2241117805553476,-9.518223561110695,-0.4666666666666667,0.13111111111111112,0.6766666666666666,0.125,0.16180137152907717,0.045367581019384776
1588960225.4640222,0.32106557879884673,-2.2568032636034596,-9.501065578798846,-0.46820583604277854,0.13182149697700893,0.6782058360427785,0.049180265014416295,0.055840132507208144,-0.055840132507208144
1588960225.4740222,0.32731572442973544,-2.2273157244297357,-9.499262897718943,-0.4811111111111111,0.13777777777777778,0.6911111111111111,-0.028946555371693092,0.016776722314153454,-0.016776722314153454
1588960225.4840221,0.31873059806794746,-2.222538803864105,-9.485232823184631,-0.4811111111111111,0.13777777777777778,0.6911111111111111,0.046632475849343324,0.05456623792467166,-0.05456623792467166
1588960225.4940221,0.31114295017909477,-2.237714099641811,-9.576284597850863,-0.4811111111111111,0.13777777777777778,0.6911111111111111,-0.048213122761315536,0.007143438619342232,-0.007143438619342232
1588960225.5040221,0.31,-2.24791255732144,-9.52373767196432,-0.4811111111111111,0.13777777777777778,0.6911111111111111,0.16140696651799735,-0.09890696651799737,0.0625
1588960225.514022,0.31,-2.2374116181280175,-9.497411618128018,-0.4802483171537836,0.13605218986312273,0.6902483171537835,0.0625,0.016177386699890984,0.0625
1588960225.524022,0.31226904927921645,-2.22,-9.484538098558433,-0.4744444444444445,0.12444444444444445,0.6844444444444444,0.09086311599020577,0.11081844200489711,0.0625
1588960225.534022,0.3190703594999108,-2.22,-9.49814071899982,-0.4744444444444445,0.12444444444444445,0.6844444444444444,0.17587949374888517,0.06831025312555741,0.0625
1588960225.544022,0.33718846443113154,-2.245623071137737,-9.578753857724527,-0.4744444444444445,0.12444444444444445,0.6844444444444444,0.03514419461085609,-0.125,0.08007209730542805
1588960225.554022,0.32738914176639017,-2.25216742529917,-9.542167425299171,-0.4744444444444445,0.12444444444444445,0.6844444444444444,0.14131786396006168,-0.125,0.09236427207987666
1588960225.564022,0.32069618421596596,-2.23,-9.51895572367605,-0.4741737061382355,0.12444444444444445,0.6839416447329134,0.17662212162553226,-0.12282442432510646,0.0021755756748935468
1588960225.574022,0.3380358840795403,-2.23,-9.49294617388069,-0.46743048952462324,0.12444444444444445,0.6714185281647765,-0.094310688742817,-0.0686378622514366,0.0563621377485634
1588960225.584022,0.31,-2.228573102259163,-9.499988284185862,-0.4666666666666667,0.12444444444444445,0.67,-0.0625,-0.01790944559883284,0.08932755647906626
1588960225.594022,0.31,-2.221913991520291,-9.558086008479709,-0.4666666666666667,0.12444444444444445,0.67,-0.04455632949727438,0.2320563294972744,-0.11303755299818292
1588960225.604022,0.30771315555387324,-2.244573688892254,-9.528565777769366,-0.4666666666666667,0.12444444444444445,0.67,0.06782888884683082,0.03391444442341541,0.0
1588960225.614022,0.30038955507502785,-2.259220889849944,-9.489220889849944,-0.4672293573305958,0.12444444444444445,0.6705626906639292,-0.11282640390537972,-0.05763056156215189,-0.002434719218924055
1588960225.624022,0.304904226945769,-2.2374521134728846,-9.490383092216925,-0.4811111111111111,0.12444444444444445,0.6844444444444444,0.12380283682211266,0.07842429079447183,-0.046575709205528164
1588960225.634022,0.29596604974655194,-2.232983024873276,-9.555966049746553,-0.4811111111111111,0.12444444444444445,0.6844444444444444,-0.0625,0.11567804727101261,0.0
1588960225.644022,0.32740881699968283,-2.2448176339993657,-9.579635267998732,-0.4811111111111111,0.12444444444444445,0.6844444444444444,-0.04630510624801776,0.01391531874405328,0.0
1588960225.654022,0.32,-2.230972695518828,-9.54610921792469,-0.4811111111111111,0.12444444444444445,0.6844444444444444,-0.006079346992673369,-0.125,0.0
1588960225.664022,0.32,-2.239905861305163,-9.510376554779349,-0.4811111111111111,0.12444444444444445,0.6844444444444444,-0.061911633157267,-0.125,0.0
1588960225.674022,0.3040453796512426,-2.2359546203487577,-9.5,-0.4744444444444445,0.13777777777777778,0.6844444444444444,0.0625,0.02457456576960044,0.125
1588960225.684022,0.31844294933406564,-2.2215570506659343,-9.5,-0.4744444444444445,0.13777777777777778,0.6844444444444444,0.0625,-0.1104026500068653,0.125
1588960225.694022,0.3127390828992218,-2.2354781657984435,-9.56356550260467,-0.4744444444444445,0.13777777777777778,0.6844444444444444,0.028261463759727316,0.017119268120136342,0.04538073187986366
1588960225.704022,0.3183691568017454,-2.246738313603491,-9.51673831360349,-0.4744444444444445,0.13777777777777778,0.6844444444444444,-0.0625,0.05230723001090865,-0.01019276998909135
1588960225.714022,0.3098348222893502,-2.2303303554212994,-9.49950446686805,-0.4743159728917169,0.13755754083024474,0.6843159728917168,-0.06146763930843885,0.0,-0.0625
1588960225.724022,0.30529513402446995,-2.25,-9.472647567012235,-0.4666666666666667,0.12444444444444445,0.6766666666666666,-0.016547293826468665,0.016547293826468665,-0.02940541234706267
1588960225.734022,0.32,-2.2462952068751663,-9.49852396562417,-0.4666666666666667,0.12444444444444445,0.6766666666666666,-0.07407747851510588,0.027767564454682377,0.0625
1588960225.744022,0.32,-2.231431026845043,-9.572844865774785,-0.4666666666666667,0.12444444444444445,0.6766666666666666,-0.12052804110924073,-0.11158412332772216,0.0625
1588960225.754022,0.32196542737686784,-2.23,-9.534103717869396,-0.4666666666666667,0.12444444444444445,0.6766666666666666,-0.037932157789151995,0.024567842210848005,0.037932157789151995
1588960225.7640219,0.3298291992425521,-2.23,-9.510512402272344,-0.4666666666666667,0.12444444444444445,0.6766666666666666,0.06036499053190093,0.12286499053190093,-0.06036499053190093
1588960225.7740219,0.32845104318292095,-2.23,-9.466195827268317,-0.4744444444444445,0.12444444444444445,0.6622222222222223,-0.0625,0.0625,-0.125
1588960225.7840219,0.3203107229500243,-2.23,-9.498757108199904,-0.4744444444444445,0.12444444444444445,0.6622222222222223,-0.0625,0.0625,-0.125
1588960225.7940218,0.32721985128310255,-2.2286099256415515,-9.603049628207756,-0.4744444444444445,0.12444444444444445,0.6622222222222223,0.04512407051939097,0.23262407051939096,-0.0625
1588960225.8040218,0.31158668629680014,-2.2207933431484004,-9.563966715742001,-0.4744444444444445,0.12444444444444445,0.6622222222222223,-0.052583210644998976,0.134916789355001,-0.0625
