time,acc_x,acc_y,acc_z,mag_x,mag_y,mag_z,gyr_x,gyr_y,gyr_z
1588960240.6120393,0.97,-2.17,-9.53,-0.5722222222222222,0.01,0.5822222222222222,-0.0625,0.125,0.125
1588960240.6220393,0.9865999129299086,-2.1782999564649543,-9.51340008707009,-0.5602333962172883,0.020144391234944135,0.5785333526822425,-0.0625,0.125,-0.03062418371789291
1588960240.6320393,0.967693617244179,-2.157693617244179,-9.56537021031403,-0.5577777777777778,0.022222222222222227,0.5777777777777777,0.03367021555223802,-0.09132978444776198,0.07691489222388098
1588960240.6420393,0.96,-2.1599888729931647,-9.620033381020505,-0.5577777777777778,0.022222222222222227,0.5777777777777777,-0.015677157844539824,-0.1875,0.07817715784453982
1588960240.6520393,0.9583103086120536,-2.1891551543060266,-9.526620617224106,-0.5577777777777778,0.022222222222222227,0.5777777777777777,0.125,-0.18221971441266763,-0.057219714412667634
1588960240.6620393,0.9413677492325092,-2.1806838746162547,-9.492735498465018,-0.5577777777777778,0.022222222222222227,0.5777777777777777,0.125,-0.12927421635159153,-0.004274216351591531
1588960240.6720393,0.97,-2.19,-9.470486486486488,-0.5644444444444444,0.03666666666666667,0.6055555555555555,-0.0379222972972973,-0.125,0.0
1588960240.6820393,0.97,-2.1882534345975233,-9.55047939241486,-0.5644444444444444,0.03666666666666667,0.6055555555555555,0.11408396623452012,-0.0813358649380805,0.010916033765479876
1588960240.6920393,0.9714407045081891,-2.18,-9.595677886475432,-0.5644444444444444,0.03666666666666667,0.6055555555555555,0.04449119364763537,0.125,0.0625
1588960240.7020392,0.9791680023581864,-2.18,-9.572495992925441,-0.5644444444444444,0.03666666666666667,0.6055555555555555,-0.052100029477330084,0.125,0.0625
1588960240.7120392,0.9733786819991154,-2.1733786819991154,-9.550136045997347,-0.5644444444444444,0.03666666666666667,0.6055555555555555,0.02026647501105705,0.2905329500221141,-0.06164971251658559
1588960240.7220392,0.97,-2.1882017369133933,-9.503596526173213,-0.5644444444444444,0.03059942102886888,0.6247685000752485,-0.05126085570870846,0.20435871643693732,-0.011239144291291539
1588960240.7320392,0.9582579349822717,-2.18,-9.553936520141825,-0.5644444444444444,0.03,0.6266666666666667,0.1141120936391986,0.1032241872783972,0.0923362809175958
1588960240.7420392,0.9511581975748804,-2.1805790987874403,-9.616525407275358,-0.5644444444444444,0.03,0.6266666666666667,0.05888063257849868,0.0,-0.0625
1588960240.7520392,0.9659641350583335,-2.1879820675291666,-9.572107594824999,-0.5644444444444444,0.03,0.6266666666666667,0.012612077942707876,0.0,-0.0625
1588960240.7620392,0.9792019543973941,-2.1715960912052115,-9.486384364820847,-0.5644444444444444,0.03,0.6266666666666667,0.05751221498371335,0.0,0.052524429967426706
1588960240.7720392,0.9878901716695111,-2.177890171669511,-9.464219656660978,-0.553924215551763,0.02035645684837533,0.6266666666666667,-0.03612714586888867,0.19725429173777734,0.11181357293444433
1588960240.7820392,0.9789505015985007,-2.1610494984014994,-9.503643479219491,-0.5511111111111111,0.017777777777777778,0.6266666666666667,0.0625,0.3125,0.06905936500937052
1588960240.7920392,0.9712440745232058,-2.1687559254767943,-9.603827031198323,-0.5511111111111111,0.017777777777777778,0.6266666666666667,0.0625,0.3125,0.11722453422996362
1588960240.8020391,0.97,-2.18,-9.543179857171706,-0.5511111111111111,0.017777777777777778,0.6266666666666667,0.008525178535367444,0.25852517853536744,0.053974821464632554
1588960240.8120391,0.97,-2.18,-9.50467955425823,-0.5511111111111111,0.017777777777777778,0.6266666666666667,0.05665055717721357,0.30665055717721357,0.005849442822786433
1588960240.8220391,0.9889027442468271,-2.178902744246827,-9.51,-0.5844444444444444,0.022222222222222227,0.6411111111111111,-0.04878430308533965,0.3193578484573302,0.0068578484573301735
1588960240.832039,0.980475361688241,-2.170950723376482,-9.51475361688241,-0.5844444444444444,0.022222222222222227,0.6411111111111111,0.05952898944849342,0.37202898944849344,0.0625
1588960240.842039,0.99,-2.1866406913796035,-9.603281382759207,-0.5844444444444444,0.022222222222222227,0.6411111111111111,-0.020995678877479183,0.29150432112252084,0.052002160561260405
1588960240.852039,0.9885518712942332,-2.17,-9.5613112277654,-0.5844444444444444,0.022222222222222227,0.6411111111111111,-0.11594919558895729,0.16034758676687186,0.0
1588960240.862039,0.980631821443408,-2.17,-9.513790928660448,-0.5844444444444444,0.022222222222222227,0.6411111111111111,-0.06644888402129989,0.011846652063899676,0.0
1588960240.872039,0.9718094813683049,-2.18638103726339,-9.52638103726339,-0.5626030614265909,0.038603259485612426,0.6119892670873063,-0.0625,-0.20476296579237757,0.05119074144809439
1588960240.882039,0.9791034619188922,-2.161793076162216,-9.536275766567755,-0.5577777777777778,0.042222222222222223,0.6055555555555555,0.05689663699307616,-0.46637982195845695,0.0
1588960240.892039,0.9708061325420375,-2.178387734915925,-9.594357072205737,-0.5577777777777778,0.042222222222222223,0.6055555555555555,0.005038328387734915,-0.15522997032640945,0.0
1588960240.902039,0.97,-2.1867731492246327,-9.539041656978304,-0.5577777777777778,0.042222222222222223,0.6055555555555555,0.04233218265395553,-0.16733218265395552,0.0
1588960240.912039,0.97,-2.1732724473371126,-9.468181118342782,-0.5577777777777778,0.042222222222222223,0.6055555555555555,0.0625,-0.030679193785429354,0.0
1588960240.922039,0.9630365484509884,-2.17,-9.453036548450989,-0.5624200788104521,0.033711336995652555,0.6303144943964855,0.14954314436264432,0.0,0.0
1588960240.932039,0.9798916073087643,-2.179945803654382,-9.549458036543822,-0.5644444444444444,0.03,0.6411111111111111,0.0010161814803344715,0.24864509135955404,0.06216127283988851
1588960240.942039,0.9720464620711962,-2.1640929241423925,-9.621581841359236,-0.5644444444444444,0.03,0.6411111111111111,-0.09941922411004775,0.3494192241100478,0.012790387944976125
1588960240.952039,0.9623598306951934,-2.1884267795365377,-9.598426779536537,-0.5644444444444444,0.03,0.6411111111111111,-0.0625,0.41783474420672195,0.004916313948319514
1588960240.962039,0.9866788426972807,-2.1722141048684795,-9.582214104868479,-0.5644444444444444,0.03,0.6411111111111111,-0.0625,0.21517631085599428,0.05558092228600143
1588960240.972039,0.961137328514789,-2.1611373285147892,-9.51962089049507,-0.5844444444444444,0.03,0.6266666666666667,0.12263056559418968,-0.06723886881162064,-0.06013056559418968
1588960240.982039,0.9832118171292236,-2.1832118171292234,-9.512262727623591,-0.5844444444444444,0.03,0.6266666666666667,0.07664204764745097,-0.15921590470509805,-0.014142047647450966
1588960240.992039,0.97,-2.1894703370074042,-9.587881348029617,-0.5844444444444444,0.03,0.6266666666666667,0.125,-0.43418960629627557,0.052568818888826724
1588960241.002039,0.97,-2.181647923310767,-9.556591693243067,-0.5844444444444444,0.03,0.6266666666666667,0.125,-0.3852995206922919,-0.09410143792312425
1588960241.012039,0.9775846506300114,-2.1724153493699885,-9.504492096219932,-0.5844444444444444,0.03,0.6266666666666667,0.125,-0.3275959335624284,-0.07759593356242842
1588960241.022039,0.9733585735738911,-2.1832828528522175,-9.496641426426109,-0.5711615915922267,0.03,0.6222390490492608,0.125,-0.18797325451045918,0.02051783032636055
1588960241.032039,0.9888794321103908,-2.180560283944805,-9.5,-0.5644444444444444,0.03,0.62,0.0070035493100575885,-0.0660017746550288,-0.11449467603491362
1588960241.042039,0.9601338196515267,-2.170044606550509,-9.629420114843384,-0.5644444444444444,0.03,0.62,0.12444241811863863,-0.18694241811863863,-0.125
1588960241.052039,0.9816327376327376,-2.177210912544246,-9.572312699646034,-0.5644444444444444,0.03,0.62,0.125,-0.007227186393853058,0.10034101700768366
1588960241.062039,0.9750001454037863,-2.194999854596214,-9.520000290807573,-0.5644444444444444,0.03,0.62,0.031250908773664474,-0.0781236368395033,1.8175473289472333e-06
1588960241.072039,0.9758526397079472,-2.1882947205841057,-9.474884161752316,-0.5722479640550406,0.03,0.62,0.1097369945240101,-0.30789499087335015,-0.09907899817467003
1588960241.0820389,0.9726070808606838,-2.187392919139316,-9.472178757417948,-0.5777777777777777,0.03,0.62,0.1875,-0.39129425537927415,-0.032588510758548295
1588960241.0920389,0.97,-2.19,-9.54067575192791,-0.5777777777777777,0.03,0.62,0.07373296513516749,-0.26123296513516747,0.0
1588960241.1020389,0.9768066683433334,-2.176386663313333,-9.58,-0.5777777777777777,0.03,0.62,0.12762503143750226,-0.1875,-0.04254167714583408
1588960241.1120389,0.9732798650077255,-2.1767201349922747,-9.546399325038626,-0.5777777777777777,0.03,0.62,0.061497468894852414,-0.14549915629828414,0.021501687403431724
1588960241.1220388,0.9772418630751963,-2.1872418630751964,-9.522758136924804,-0.5681219603441825,0.034827908716797605,0.6248279087167976,0.09052328843995511,-0.3513082210998878,-0.07328493265993266
1588960241.1320388,0.9647939010819897,-2.182396950540995,-9.504793901081989,-0.5644444444444444,0.03666666666666667,0.6266666666666667,0.07748094088121789,-0.4850190591187821,-0.029961881762435777
1588960241.1420388,0.9508989760311195,-2.1617979520622392,-9.563707167782164,-0.5644444444444444,0.03666666666666667,0.6266666666666667,0.17626279961100624,-0.5568813998055031,-0.11376279961100624
1588960241.1520388,0.9576130677916217,-2.167613067791622,-9.501482389875406,-0.5644444444444444,0.03666666666666667,0.6266666666666667,0.13991832630236437,-0.3245916315118218,-0.125
1588960241.1620388,0.96,-2.17,-9.465331034482759,-0.5644444444444444,0.03666666666666667,0.6266666666666667,0.125,-0.25,-0.0791594827586207
1588960241.1720388,0.9470445226151573,-2.1894332160772643,-9.466477738692422,-0.569482685649661,0.024430938025426296,0.6266666666666667,-0.03694346731053433,-0.12854239951709928,0.05895760048290073
1588960241.1820388,0.9578708663666881,-2.182129133633312,-9.568289765016784,-0.5722222222222222,0.017777777777777778,0.6266666666666667,-0.013307085208199412,0.328425201771302,-0.042539372187700875
1588960241.1920388,0.96964907501424,-2.2089472250427202,-9.63789445008544,-0.5722222222222222,0.017777777777777778,0.6266666666666667,-0.12061343767800095,0.6765335941950024,-0.0021932811609995245
1588960241.2020388,0.97,-2.1557531679457433,-9.594794306621452,-0.5722222222222222,0.017777777777777778,0.6266666666666667,-0.06849288327681599,0.744007116723184,-0.056507116723184
1588960241.2120388,0.9622923363567494,-2.15,-9.559169345426998,-0.5722222222222222,0.017777777777777778,0.6266666666666667,-0.0625,0.6536542044593682,0.08201869331094777
1588960241.2220387,0.96,-2.1777366490257397,-9.466790052922782,-0.5722222222222222,0.0465417101007671,0.633857649747414,-0.12028468547029109,0.5094306290594178,0.06721531452970891
1588960241.2320387,0.9870176079658346,-2.1619882613561106,-9.487017607965836,-0.5722222222222222,0.048888888888888885,0.6344444444444445,0.04386004978646629,0.5,0.17507336652431088
1588960241.2420387,0.9717634930260763,-2.178236506973924,-9.562946027895695,-0.5722222222222222,0.048888888888888885,0.6344444444444445,0.11948908429351121,0.21505457853244392,-0.04045633717404487
1588960241.2520387,0.97,-2.2025045528423446,-9.554996964771771,-0.5722222222222222,0.048888888888888885,0.6344444444444445,0.125,-3.794035286977526e-05,0.03126897017643489
1588960241.2620387,0.9801373812459836,-2.1947939281310247,-9.539862618754016,-0.5722222222222222,0.048888888888888885,0.6344444444444445,0.06164136721260226,0.0008586327873977423,-0.03253794918109662
1588960241.2720387,0.9849379856545128,-2.169875971309026,-9.524937985654512,-0.5649104237231852,0.04270198246662681,0.6305073221757322,-0.031637589659294675,0.030862410340705325,-0.09336241034070533
1588960241.2820387,1.01590625,-2.12409375,-9.4960625,-0.5577777777777778,0.03666666666666667,0.6266666666666667,-0.0625,0.03740234375,-0.212109375
1588960241.2920387,1.110688391673813,-2.0381476572854136,-9.577196538551492,-0.5577777777777778,0.03666666666666667,0.6266666666666667,0.0479506119903329,0.22817591798549933,-1.2513302019178294
1588960241.3020387,1.0655755797708857,-2.084424420229114,-9.555984737356804,-0.5577777777777778,0.03666666666666667,0.6266666666666667,0.14753815660799108,0.5051144698239731,-2.480496035903884
1588960241.3120387,0.9856674903741164,-2.18470720073559,-9.512833745187057,-0.5577777777777778,0.03666666666666667,0.6266666666666667,0.1875,0.45521090741911385,-3.7216036434687663
1588960241.3220387,0.9270982018772316,-2.266062517371876,-9.473678561501785,-0.5533908713614086,0.010345228168451962,0.6361716305687998,0.10524550469307904,0.1282365140792371,-3.8979910093861583
1588960241.3320386,0.91,-2.2660264227642273,-9.467991192411924,-0.5511111111111111,-0.0033333333333333327,0.6411111111111111,0.11244495257452575,0.0998899051490515,-3.063325711382114
1588960241.3420386,0.9438837124763235,-2.26,-9.544544167447912,-0.5511111111111111,-0.0033333333333333327,0.6411111111111111,0.08264535940459564,-0.002063921786213091,-2.324389672259743
1588960241.3520386,0.9330285878054023,-2.22403811707387,-9.562019058536935,-0.5511111111111111,-0.0033333333333333327,0.6411111111111111,-0.04988088414415706,0.16226176828831412,-1.3320242530629791
1588960241.3620386,0.9577211938712249,-2.1922788061287752,-9.525348507660969,-0.5511111111111111,-0.0033333333333333327,0.6411111111111111,-0.10581436542378886,0.4040718271189443,-0.9034850766096891
1588960241.3720386,0.978496910277212,-2.188496910277212,-9.484509269168365,-0.5567757179625858,0.030654307775514665,0.6354465042596364,-0.125,0.39378862153485,-0.43136586460455
1588960241.3820386,0.9877275250292951,-2.1590898998828196,-9.49545505005859,-0.5577777777777778,0.03666666666666667,0.6344444444444445,-0.125,0.2784059371338117,-0.375
1588960241.3920386,1.0149104838709677,-2.1416965053763444,-9.558124462365592,-0.5577777777777778,0.03666666666666667,0.6344444444444445,-0.07310315860215054,0.30189684139784945,-0.4787936827956989
1588960241.4020386,1.0268910033263712,-2.091762976715402,-9.50108996673629,-0.5577777777777778,0.03666666666666667,0.6344444444444445,0.023637541579639515,0.4417063123694593,-0.8445501663185581
1588960241.4120386,1.0161111807134036,-2.079259212857731,-9.47,-0.5577777777777778,0.03666666666666667,0.6344444444444445,0.03356495981959086,0.6736102410824548,-1.3472204821649096
1588960241.4220386,0.9860146059517301,-2.11330899008045,-9.47932359603218,-0.5608856431218378,0.027861048191830037,0.6344444444444445,-0.02913623760056237,1.1663623760056236,-1.9830899008044989
1588960241.4320385,0.9949715168911459,-2.065085449326562,-9.533700154559506,-0.5644444444444444,0.017777777777777778,0.6344444444444445,-0.023482004857584456,1.5390179951424154,-2.4450899757120776
1588960241.4420385,1.0436340023612751,-2.02,-9.593634002361275,-0.5644444444444444,0.017777777777777778,0.6344444444444445,0.0,1.6676062573789847,-2.877818772136954
1588960241.4520385,1.0682118395303328,-1.977505707762557,-9.563576320939333,-0.5644444444444444,0.017777777777777778,0.6344444444444445,0.07588266470971951,2.636033308871494,-3.392795988258317
1588960241.4620385,1.109298401129387,-1.908982238418858,-9.504841918644736,-0.5644444444444444,0.017777777777777778,0.6344444444444445,0.0883769985882662,4.165575035293346,-4.383337026822942
1588960241.4720385,1.1587427731504163,-1.7535317981381675,-9.434011562959334,-0.5721091839512221,0.020332690946703688,0.6261409766454352,0.2062138657520823,5.351426996570309,-5.773211660950515
1588960241.4820385,1.1403687177078439,-1.6441474870831376,-9.4,-0.5777777777777777,0.022222222222222227,0.62,0.3125,6.294930131517145,-8.220907703147017
1588960241.4920385,1.0782433529889481,-1.6852870661346704,-9.477634970516577,-0.5777777777777777,0.022222222222222227,0.62,0.3125,6.316195358567847,-10.224025458140602
1588960241.5020385,1.0000640904091926,-1.8265171223785506,-9.528322651598467,-0.5777777777777777,0.022222222222222227,0.62,0.10443371003830254,5.521767985134058,-12.466947457241458
1588960241.5120385,1.0035541787836642,-1.8703312681754962,-9.448674927298015,-0.5777777777777777,0.022222222222222227,0.62,0.0625,5.375,-13.342995321785308
1588960241.5220385,0.916847903111512,-1.9421013979256587,-9.425525349481415,-0.567427544790168,0.022222222222222227,0.6312127524032439,0.20805015138826258,6.442367776847259,-13.916100302776526
1588960241.5320385,0.8482698384308114,-1.9808650807845942,-9.478685188497387,-0.5644444444444444,0.022222222222222227,0.6344444444444445,0.38040675490371434,8.010598630735904,-13.869593245096286
1588960241.5420384,0.9674893836795593,-1.79140422357397,-9.492361700906692,-0.5644444444444444,0.022222222222222227,0.6344444444444445,0.6284574773327212,7.989627568001836,-13.764760630666819
1588960241.5520384,0.8595883527063519,-1.8170804273805332,-9.529582012445696,-0.5644444444444444,0.022222222222222227,0.6344444444444445,0.48958993777151577,4.744894035458495,-14.541640248913938
1588960241.5620384,0.8137629663158689,-1.9023703368413112,-9.49010373052695,-0.5644444444444444,0.022222222222222227,0.6344444444444445,0.3205556184225416,1.949445513183207,-14.126296631586888
1588960241.5720384,0.8378461083910181,-1.9771281445213573,-9.45071796386966,-0.5706324685313373,0.010361842722344158,0.6344444444444445,0.13397454837075806,0.1698727418537903,-12.647758209522202
1588960241.5820384,0.9928126870137641,-2.02,-9.420191502094553,-0.5777777777777777,-0.0033333333333333327,0.6344444444444445,0.0495212447636146,-0.9209305804907242,-10.681702573309396
1588960241.5920384,1.1995410270396634,-1.9483495675212343,-9.591923946076522,-0.5777777777777777,-0.0033333333333333327,0.6344444444444445,0.28784189199719473,-2.5802618249824674,-9.217895270007013
1588960241.6020384,1.3180959438377535,-1.8997051482059282,-9.638230889235569,-0.5777777777777777,-0.0033333333333333327,0.6344444444444445,0.375,-4.347513650546022,-9.514742589703587
1588960241.6120384,1.5507765365303023,-1.8857814020474095,-9.46187925732747,-0.5777777777777777,-0.0033333333333333327,0.6344444444444445,0.45409871161107,-5.73729613483321,-10.84371959051808
1588960241.6220384,1.6474764675419624,-1.8882523532458038,-9.390775885703842,-0.5731931370856646,0.007669804327738346,0.6225243786449501,0.975117662290188,-3.7415256496176927,-13.702047856947026
1588960241.6320384,1.4306453175931635,-1.7065936921857103,-9.394051625407453,-0.5722222222222222,0.01,0.62,0.9129839881948727,9.957247709452911,-15.457982776847855
1588960241.6420383,1.304257744733581,-1.6167187112763322,-9.471152416356878,-0.5722222222222222,0.01,0.62,1.17932156133829,20.14282837670384,-16.995972738537795
1588960241.6520383,1.3061798641314115,-1.2389191617842639,-9.433094065633874,-0.5722222222222222,0.01,0.62,1.405682757629129,27.528362118543548,-19.145420725351354
1588960241.6620383,1.3878717354675654,-0.8682992839090143,-9.33,-0.5722222222222222,0.01,0.62,1.1888360888795282,27.275326453243473,-22.63289806234204
1588960241.6720383,1.3630906022845275,-0.9507281931464174,-9.26356308411215,-0.5722222222222222,0.015741461866851277,0.609337285104419,1.3393204828660437,21.172004802699895,-28.217760254413292
1588960241.6820383,1.247633141353811,-1.24290635665529,-9.354410018486917,-0.5722222222222222,0.017777777777777778,0.6055555555555555,1.7385789960182025,13.942808322667805,-33.08740845420933
1588960241.6920383,1.1926100689744086,-1.4856604138464513,-9.455220137948817,-0.5722222222222222,0.017777777777777778,0.6055555555555555,2.0163129310900536,5.504911203506736,-37.30591681170631
1588960241.7020383,1.2359923006069766,-1.6451753619423253,-9.48439692024279,-0.5722222222222222,0.017777777777777778,0.6055555555555555,2.2424615030348836,-0.14689367279941434,-39.20233638789826
1588960241.7120383,1.2629031012739673,-1.748063955732853,-9.451290696178098,-0.5722222222222222,0.017777777777777778,0.6055555555555555,2.1915334255565564,-1.4516109574057392,-39.98386629777377
1588960241.7220383,1.3328430038352097,-1.5836156130149697,-9.398578498082395,-0.5931698901672922,0.011668041293799059,0.6282488624960479,2.125,1.1868814177904246,-40.05361561301497
1588960241.7320383,1.3448539098586931,-1.5016965042228114,-9.392573045070653,-0.5988888888888889,0.01,0.6344444444444445,2.1410815316915843,2.846106540574521,-40.07236689261213
1588960241.7420382,1.317545457953736,-1.1968181306939603,-9.413772728976868,-0.5988888888888889,0.01,0.6344444444444445,2.226420443894575,11.617330727702171,-40.6568182244217
1588960241.7520382,1.3367453935456386,-0.8548559484503142,-9.372782245180531,-0.5988888888888889,0.01,0.6344444444444445,2.1875,19.43667290179998,-41.86646774150602
1588960241.7620382,1.401969599032507,-0.46395504493421463,-9.213666882128486,-0.5988888888888889,0.01,0.6344444444444445,2.3036929981859506,21.783426989720386,-43.924239975812675
1588960241.7720382,1.408580044404679,-0.31712993339298146,-9.145709977797662,-0.5988888888888889,-0.004837201253346,0.6344444444444445,2.8659368061768897,19.29097284355635,-48.50793236570898
1588960241.7820382,1.4237405738253535,-0.3458270492169024,-9.14208647539155,-0.5988888888888889,-0.008888888888888889,0.6344444444444445,3.2472976440141004,13.850804292534917,-53.25892418901432
1588960241.7920382,1.4425811821725845,-0.3814529554314614,-9.171452955431462,-0.5988888888888889,-0.008888888888888889,0.6344444444444445,3.341987145716995,11.828847065641133,-54.888888157201556
1588960241.8020382,1.5128379213789593,-0.5492905196552602,-9.33574311793156,-0.5988888888888889,-0.008888888888888889,0.6344444444444445,3.522171260773119,7.433906687515909,-58.547515364195064
1588960241.8120382,1.55,-0.5491518895484063,-9.27694937015053,-0.5988888888888889,-0.008888888888888889,0.6344444444444445,3.83156643655918,6.093195858065236,-62.33045815268965
1588960241.8220382,1.557786156062018,-0.5875188511395407,-9.26610692196899,-0.6023494026942303,-0.012998249032731791,0.6260094420439248,3.91149760654071,7.446795835804457,-64.41196888502922
1588960241.8320382,1.61677564364528,-0.66,-9.245537392725787,-0.6166666666666667,-0.03,0.5911111111111111,4.0625,11.485977727829995,-67.18384756845117
1588960241.8420382,1.641473005436844,-0.6344190163105323,-9.274107978252625,-0.6166666666666667,-0.03,0.5911111111111111,4.169087432039449,14.814902326463523,-69.25337432039449
1588960241.8520381,1.5945951642901426,-0.5114879107253565,-9.26099194048357,-0.6166666666666667,-0.03,0.5911111111111111,4.3125,16.684400185988842,-72.27334159950404
1588960241.8620381,1.6546784531253063,-0.5496217095591839,-9.22498108547796,-0.6166666666666667,-0.03,0.5911111111111111,4.468158921186225,15.971941825594387,-74.77593029067603
1588960241.8720381,1.762640863195407,-0.6791096812512374,-9.217062363888338,-0.6188229393519435,-0.03790633317934842,0.6004549594139774,4.685645169273411,14.700483815086121,-77.218467877648
1588960241.882038,1.8173403451316288,-0.7522339085527144,-9.204680690263256,-0.6233333333333333,-0.054444444444444434,0.62,4.873669542763572,13.96542385690893,-80.07844974178109
1588960241.892038,1.8255600825582332,-0.7803733883721554,-9.288506446511379,-0.6233333333333333,-0.054444444444444434,0.62,5.122666322674029,15.430244324121478,-83.36307696946953
1588960241.902038,1.7942117400419288,-0.77,-9.298423480083857,-0.6233333333333333,-0.054444444444444434,0.62,5.450637665967855,17.322305206149547,-85.35191299790357
1588960241.912038,1.8064941753525445,-0.7788313917841815,-9.26558430410791,-0.6233333333333333,-0.054444444444444434,0.62,5.715098099325568,17.648528510116492,-86.50406958920908
1588960241.922038,1.870043156596794,-0.7699712289354707,-9.244978421701603,-0.6261151070922958,-0.085043955793031,0.6166618714892451,5.7812949547883274,16.530395859021784,-87.34415459309494
1588960241.932038,1.8618556892626492,-0.718213074385541,-9.255429540491567,-0.6288888888888889,-0.11555555555555555,0.6133333333333333,5.772766342981926,16.295102913162662,-87.82366828509036
1588960241.942038,1.8697915059666954,-0.7238332047733563,-9.299791505966695,-0.6288888888888889,-0.11555555555555555,0.6133333333333333,5.824478764916739,16.760675677208585,-87.97473938245837
1588960241.952038,1.9185308863872859,-0.7171752908901712,-9.302881468167628,-0.6288888888888889,-0.11555555555555555,0.6133333333333333,5.910663607984107,16.97316360798411,-87.67902752814304
1588960241.962038,1.9758333891269415,-0.7119444630423138,-9.274074049276914,-0.6288888888888889,-0.11555555555555555,0.6133333333333333,5.9375,17.049768596009642,-87.13888842394215
1588960241.972038,2.0368881132292582,-0.7391841509723447,-9.245407924513827,-0.6276133123649521,-0.12320901469917617,0.6148640251620574,5.9375,17.34025353841433,-86.57269811284569
1588960241.982038,2.082802002920926,-0.7776006676403088,-9.23760066764031,-0.6233333333333333,-0.14888888888888888,0.62,5.961252086375965,18.513789641143333,-85.83121870436052
1588960241.992038,2.1294961093903453,-0.7923740273475863,-9.266618191433103,-0.6233333333333333,-0.14888888888888888,0.62,6.029675341844829,19.38353903830173,-85.02743493616379
1588960242.002038,2.1806238149412214,-0.820623814941221,-9.289064277588169,-0.6233333333333333,-0.14888888888888888,0.62,6.189449421691316,19.780275289154343,-83.79690462646947
1588960242.012038,2.204349804809968,-0.8226007807601287,-9.229551366330226,-0.6233333333333333,-0.14888888888888888,0.62,6.195627439875402,19.396578359190112,-82.46972531806873
1588960242.022038,2.242181730849553,-0.8234048951633114,-9.192925611895413,-0.6285344211474024,-0.15766572457513062,0.621950407930276,6.051859702614652,18.297522397878204,-80.78987762091721
1588960242.032038,2.3230891756327297,-0.88,-9.20308917563273,-0.6411111111111111,-0.17888888888888888,0.6266666666666667,5.817077956886319,15.900476700999349,-78.7957795688632
1588960242.042038,2.387467640370824,-0.8695513381143957,-9.251794647542418,-0.6411111111111111,-0.17888888888888888,0.6266666666666667,5.6548479316074864,13.477566905719783,-76.22656933269197
1588960242.052038,2.44,-0.8550583868033532,-9.270233547213413,-0.6411111111111111,-0.17888888888888888,0.6266666666666667,5.470574587604789,13.0,-73.85798178331736
1588960242.062038,2.4784145025968836,-0.8243903316020775,-9.237195165801038,-0.6411111111111111,-0.17888888888888888,0.6266666666666667,5.285823262085497,13.053353475829006,-71.5312537455054
1588960242.072038,2.491158882157514,-0.7813686404794477,-9.224315679760277,-0.6526195904718477,-0.19567208795662966,0.6266666666666667,5.223027001498274,13.394729985017262,-69.01055305843268
1588960242.082038,2.380230623741636,-0.894519533871591,-9.249923125419455,-0.6677777777777778,-0.21777777777777774,0.6266666666666667,5.000720699192613,13.936779300807386,-65.41477827377926
1588960242.092038,2.3074164155894645,-0.9277203809894062,-9.240638303042083,-0.6677777777777778,-0.21777777777777774,0.6266666666666667,4.602773593157742,13.941489394013024,-60.906725325590436
1588960242.102038,2.4660659188335856,-0.8972995867238237,-9.246333136535155,-0.6677777777777778,-0.21777777777777774,0.6266666666666667,4.080834317324229,11.95000737993172,-54.246056549528966
1588960242.112038,2.6584379465757944,-0.9521897328789711,-9.249897768495108,-0.6677777777777778,-0.21777777777777774,0.6266666666666667,3.667974332197428,8.492243321974277,-47.73056364735627
1588960242.122038,2.6800345659882594,-0.8750129622455973,-9.172502160374266,-0.6691678668745924,-0.22417218762312474,0.6361192725250058,3.3593074883041805,5.968560967251706,-42.530142808188565
1588960242.1320379,2.85715815766567,-0.9327018128145934,-9.19905271922189,-0.6733333333333333,-0.2433333333333333,0.6644444444444444,2.9662273398175834,4.895721767021156,-37.27839264088105
1588960242.1420379,2.966469730683649,-0.9194091920509476,-9.237744955113941,-0.6733333333333333,-0.2433333333333333,0.6644444444444444,2.5686238778485384,4.18322239699225,-33.48892235095527
1588960242.1520379,2.935626720938585,-0.8112534418771699,-9.224791093020473,-0.6733333333333333,-0.2433333333333333,0.6644444444444444,2.407555668622052,5.105501017598468,-30.0611082844487
1588960242.1620378,2.8443762562814072,-0.7711149497487437,-9.169484296482413,-0.6733333333333333,-0.2433333333333333,0.6644444444444444,2.408797895728643,5.432404208542714,-28.968074748743717
1588960242.1720378,2.7153411193339503,-0.6760233580018501,-9.13329440333025,-0.6722980265186556,-0.24385098674067218,0.6779034330352554,2.3167639916743754,5.23793796253469,-27.951021912580945
1588960242.1820378,2.8478760727700023,-0.7289380363850012,-9.204317309104644,-0.6711111111111111,-0.24444444444444444,0.6933333333333334,2.1268963635982123,4.537413181694189,-26.295946817886144
1588960242.1920378,3.023637585048661,-0.8183477736629059,-9.243884075445699,-0.6711111111111111,-0.24444444444444444,0.6933333333333334,1.9617754715356128,4.641031134269228,-24.73913207303419
1588960242.2020378,3.095888837192656,-0.8576507641100891,-9.229412691027523,-0.6711111111111111,-0.24444444444444444,0.6933333333333334,1.875,5.878572259403744,-23.3604156973623
1588960242.2120378,3.0489600630264833,-0.8136799789911723,-9.19471991596469,-0.6711111111111111,-0.24444444444444444,0.6933333333333334,1.9342501969577601,6.99675019695776,-21.828749015211198
1588960242.2220378,3.1352304248770935,-0.8743071265837964,-9.159384467804468,-0.6614188772088768,-0.23654706867225353,0.7206151769099929,2.0625,6.317313841480475,-20.64231184299932
1588960242.2320378,3.22446992481203,-1.0134097744360901,-9.19446992481203,-0.6411111111111111,-0.22,0.7777777777777778,1.8896851503759398,5.2471334586466165,-18.15204417293233
1588960242.2420378,3.190616415863388,-0.9496281414800936,-9.202592964629977,-0.6411111111111111,-0.22,0.7777777777777778,1.802470685958236,5.435175884250584,-16.27543971062646
1588960242.2520378,3.1380299602875383,-0.8650374503594229,-9.208029960287538,-0.6411111111111111,-0.22,0.7777777777777778,1.818890438847836,4.30798207912331,-14.888249007188458
1588960242.2620378,3.1080117628762496,-0.8180705772574967,-9.156141154514993,-0.6411111111111111,-0.22,0.7777777777777778,1.6626470359531182,2.5011027696483863,-13.839558503343653
1588960242.2720377,3.1020818311631393,-0.7824909869788353,-9.084981973957671,-0.6411111111111111,-0.22,0.7777777777777778,1.5885228895392403,1.9451716715443017,-12.801820453549363
1588960242.2820377,3.466685843285756,-1.0970441304981067,-9.208656422953686,-0.5464114638961711,-0.1869652393436256,0.8922982813865423,1.500559823769298,3.112683877075444,-10.827055418001748
1588960242.2920377,3.3946681788983457,-1.0832595953107436,-9.201629797655372,-0.5455555555555556,-0.18666666666666668,0.8933333333333333,1.6569412939617794,6.316139643889514,-9.086145766420428
1588960242.3020377,3.2498177237239108,-1.0422949391893994,-9.25,-0.5455555555555556,-0.18666666666666668,0.8933333333333333,1.5630696133627795,3.6599524868580673,-7.021748343649881
1588960242.3120377,3.2238763870567237,-1.0204314425389929,-9.208660665787228,-0.5455555555555556,-0.18666666666666668,0.8933333333333333,1.375,2.394438193528362,-3.8158003220299523
1588960242.3220377,3.053617754119535,-0.8340443852988375,-9.106066577948257,-0.5166581644856725,-0.19996301225096874,0.8908513488242636,1.3351109632470939,1.7341089670828604,-1.1735818916591647
1588960242.3320377,3.020784375122314,-0.751960937805785,-8.982941406708678,-0.3679959206926995,-0.2683658851618459,0.8780828125475666,1.1299023445144625,-1.2414160045402949,0.8272021409839918
1588960242.3420377,3.2019191919191923,-0.8791919191919192,-9.221919191919193,-0.3644444444444445,-0.27,0.8777777777777778,1.0119949494949494,-0.8661616161616161,3.441287878787879
1588960242.3520377,3.2096362532428104,-0.9563625324281062,-9.229636253242811,-0.3644444444444445,-0.27,0.8777777777777778,1.0602265827675663,0.6772506485621239,5.467016476237788
1588960242.3620377,3.0795200534759357,-0.89,-9.192859959893047,-0.3644444444444445,-0.27,0.8777777777777778,0.711374080882353,0.1433677306149732,9.886628927139038
1588960242.3720376,3.107556818181818,-0.89,-9.171832386363636,-0.3644444444444445,-0.27,0.8777777777777778,0.2294921875,-3.667879971590909,11.945578835227273
1588960242.3820376,3.0469921351440203,-0.7769921351440203,-9.103608729737248,-0.3911111111111111,-0.4088888888888889,0.7144444444444444,-0.10338429051918165,-5.833176858103836,16.181397466049617
1588960242.3920376,2.9861602336640356,-0.7049487049508774,-9.134640934656142,-0.3911111111111111,-0.4088888888888889,0.7144444444444444,-0.42928675742873007,-5.431210321770826,18.419791138629396
1588960242.4020376,3.0997810346331676,-0.7997810346331676,-9.278598534415075,-0.3911111111111111,-0.4088888888888889,0.7144444444444444,-0.6031934266771352,-3.7280107737939456,20.06989062636308
1588960242.4120376,3.1670922792275373,-0.9043709285741819,-9.203690590910844,-0.3911111111111111,-0.4088888888888889,0.7144444444444444,-0.6353098620051651,-1.1948394075473154,21.643173254827893
1588960242.4220376,2.955137584652954,-0.818919463256212,-9.14297651116538,-0.39741424211654064,-0.41501193043702045,0.7088616712682069,-0.8817533546486745,1.0811661337831373,23.03204696508144
1588960242.4320376,2.9052459402212287,-0.8190915509531655,-9.049371616851024,-0.5077777777777778,-0.5222222222222223,0.6111111111111112,-1.100964932925394,-2.3247528830313016,25.008752059308073
1588960242.4420376,3.1003953623188405,-0.9364030917874396,-9.22,-0.5077777777777778,-0.5222222222222223,0.6111111111111112,-1.6474806763285024,-5.337693236714975,27.49529951690821
1588960242.4520376,3.033281124035472,-0.9383202810088679,-9.218053380168145,-0.5077777777777778,-0.5222222222222223,0.6111111111111112,-1.6354982436945755,-6.1875,29.32348770586203
1588960242.4620376,2.817676053525065,-0.8537235869782305,-9.212790493309369,-0.5077777777777778,-0.5222222222222223,0.6111111111111112,-2.024702915917715,-6.483989914120231,32.48393499101258
1588960242.4720376,2.758946941716962,-0.7684244662643005,-9.217893883433925,-0.5095328749161737,-0.5201161056561471,0.6021016124673453,-2.289489685613909,-7.381632285379696,35.582396856139084
1588960242.4820375,2.751390325195928,-0.8288773984325736,-9.202780650391857,-0.522127235784564,-0.5050028726140788,0.5374505600096088,-2.572862805152689,-8.326209350508963,38.41612805152689
1588960242.4920375,2.727948493035332,-0.8539742465176661,-9.182051506964667,-0.5244444444444445,-0.5022222222222222,0.5255555555555556,-2.922076199080734,-7.311695203677064,43.852575348233394
1588960242.5020375,2.669083190063507,-0.8245415950317532,-9.240916809936493,-0.5244444444444445,-0.5022222222222222,0.5255555555555556,-3.1520187888144275,-6.39192484474229,46.795840496824674
1588960242.5120375,2.7114224120723383,-1.0013792965787058,-9.282931055131941,-0.5244444444444445,-0.5022222222222222,0.5255555555555556,-3.7319503772605693,-6.936691584494391,52.33647550800431
1588960242.5220375,2.7197946025789457,-1.0683568206315621,-9.182464769052656,-0.5244444444444445,-0.5022222222222222,0.5255555555555556,-3.99358133059204,-8.035541588486566,56.15628742664378
1588960242.5320375,2.7835414105041276,-1.2041656420165114,-9.223541410504128,-0.5277777777777778,-0.4155555555555556,0.5044444444444445,-4.6145705252063935,-10.132802893904795,62.450402358159145
1588960242.5420375,2.8028386964541916,-1.3038225046116008,-9.278145111703218,-0.5277777777777778,-0.4155555555555556,0.5044444444444445,-5.037802316048371,-10.655846484935438,67.0623975199836
1588960242.5520375,2.808283222562155,-1.4437124169216162,-9.360997819741886,-0.5277777777777778,-0.4155555555555556,0.5044444444444445,-5.385729858986531,-11.216067535253368,71.87426482223863
1588960242.5620375,2.7475910067226423,-1.3987246506178692,-9.308582945130967,-0.5277777777777778,-0.4155555555555556,0.5044444444444445,-5.754428296465731,-11.148027141621803,75.62095351334766
1588960242.5720375,2.5884508304265736,-1.3036618771800699,-9.207887292393357,-0.5404540234176383,-0.39748016825427307,0.5074961332095961,-6.128522112707607,-13.476243239783674,80.38733439470063
1588960242.5820374,2.62,-1.28,-9.2,-0.5877777777777777,-0.33,0.5188888888888888,-6.375,-16.1875,83.0
1588960242.5920374,2.58380198019802,-1.3584290429042905,-9.26636303630363,-0.5877777777777777,-0.33,0.5188888888888888,-6.450412541254125,-16.60226897689769,85.03613861386138
1588960242.6020374,2.4542592058059465,-1.3811616015834398,-9.386902395777494,-0.5877777777777777,-0.33,0.5188888888888888,-6.680239990103501,-15.553240072574326,90.28019978557585
1588960242.6120374,2.3856773981730046,-1.4175698642306727,-9.348017922323722,-0.5877777777777777,-0.33,0.5188888888888888,-7.261827912860426,-16.05969963691844,96.04395121574383
1588960242.6220374,2.5270496667208584,-1.6103470980328403,-9.33965290196716,-0.5880863093625246,-0.32849590852435917,0.518638206976282,-7.564669362705251,-17.304907230531622,98.79555661681027
1588960242.6320374,2.4112602095170454,-1.6733740234374999,-9.29239834872159,-0.6055555555555555,-0.2433333333333333,0.5044444444444445,-7.761432994495738,-17.146087646484375,102.90294855291194
1588960242.6420374,2.5554788617756428,-1.7820935539986276,-9.299109146331732,-0.6055555555555555,-0.2433333333333333,0.5044444444444445,-7.918847452081904,-17.53326836527873,105.64462706873714
1588960242.6520374,2.742906685392362,-1.902582869180804,-9.439680014044272,-0.6055555555555555,-0.2433333333333333,0.5044444444444445,-8.044357155396671,-17.449595229735554,106.77421439857004
1588960242.6620374,2.7419784461004064,-1.9479856307336045,-9.396996407683401,-0.6055555555555555,-0.2433333333333333,0.5044444444444445,-8.071886225989372,-17.212455096042515,106.40911680224445
1588960242.6720374,2.6672647923284742,-1.8981765282189829,-9.384544132054746,-0.6055555555555555,-0.2433333333333333,0.5044444444444445,-8.11079958732892,-17.05680165068432,105.51410949143485
1588960242.6820374,2.717888811725575,-1.9676249131912715,-9.302111188274425,-0.600146610296835,-0.20655250557403412,0.5185077021171176,-7.942448097518184,-17.791058244087868,102.875175901897
1588960242.6920373,2.4320829276552516,-1.8129543241755917,-9.343623798840113,-0.6,-0.20555555555555555,0.5188888888888888,-7.9375,-17.86702974855014,100.79489930364475
1588960242.7020373,2.3462309356877005,-1.8556535964684497,-9.4637690643123,-0.6,-0.20555555555555555,0.5188888888888888,-7.699278325975937,-18.95744828183156,98.5887118064572
1588960242.7120373,2.3317089933350648,-1.877436509997403,-9.478291006664936,-0.6,-0.20555555555555555,0.5188888888888888,-7.744659395827924,-19.275115770795466,97.72647147926945
1588960242.7220373,2.194216911215053,-1.857379594626343,-9.38683731658871,-0.6002342728452807,-0.19794168808393195,0.5211144809190558,-7.611822152452959,-18.865021838491277,97.06569968603831
1588960242.7320373,2.229961491219334,-1.9200770175613318,-9.360057763170998,-0.6022222222222222,-0.13333333333333333,0.54,-7.5,-18.247232181389634,96.55973218138963
1588960242.7420373,2.1803375146474058,-1.916647136792362,-9.408253837140059,-0.6022222222222222,-0.13333333333333333,0.54,-7.414435138405978,-16.498762174155253,94.69717569202989
1588960242.7520373,2.0764051355206847,-1.7668544935805992,-9.465506419400857,-0.6022222222222222,-0.13333333333333333,0.54,-7.122191512125535,-15.482435805991441,93.15451141226819
1588960242.7620373,1.9956640754378787,-1.6982656301751515,-9.365664075437879,-0.6022222222222222,-0.13333333333333333,0.54,-7.046240282892045,-16.540478208350383,90.91904358329924
1588960242.7720373,1.9548054630116702,-1.681922185204668,-9.324805463011671,-0.6022222222222222,-0.13333333333333333,0.54,-6.893020486293763,-17.51087025347283,88.97825949305434
1588960242.7820373,1.8282971237575865,-1.6443093060075644,-9.325212859530302,-0.6044444444444445,-0.09333333333333334,0.5611111111111111,-6.717419627935614,-17.798870558096578,85.96508460506641
1588960242.7920372,1.687985711880307,-1.7139636302407812,-9.35000649459986,-0.6044444444444445,-0.09333333333333334,0.5611111111111111,-6.562459408750872,-18.000040591249128,84.41236198975297
1588960242.8020372,1.6115833571360565,-1.5032381224412072,-9.386690469389698,-0.6044444444444445,-0.09333333333333334,0.5611111111111111,-6.271130867371228,-18.405134247357896,83.35565433685613
1588960242.8120372,1.6674913834142626,-1.5671330096163,-9.370716747595925,-0.6044444444444445,-0.09333333333333334,0.5611111111111111,-6.071459344949062,-19.153902456441017,82.35729672474531
1588960242.8220372,1.6769841352859134,-1.5630158647140866,-9.397936541143654,-0.6044444444444445,-0.09333333333333334,0.5611111111111111,-5.887896617852162,-18.9692457723152,80.74106956066946
1588960242.8320372,1.588607270396484,-1.6957256661477886,-9.351856972804688,-0.6255555555555555,-0.04,0.5455555555555556,-5.4355656533284495,-17.403648933247872,77.85372218661294
1588960242.8420372,1.4827155035685964,-2.0427155035685964,-9.481522997620937,-0.6255555555555555,-0.04,0.5455555555555556,-5.276490632434576,-14.87790320182395,76.40397501982554
1588960242.8520372,1.4093302817694067,-1.9695535211796045,-9.528660563538812,-0.6255555555555555,-0.04,0.5455555555555556,-5.125,-13.298547536862642,75.99302376843131
1588960242.8620372,1.385725246688928,-1.953816831125952,-9.481450493377857,-0.6255555555555555,-0.04,0.5455555555555556,-5.125,-12.806775972686001,75.747137986343
1588960242.8720372,1.4274094654148304,-2.0520724276681355,-9.439740946541482,-0.6248935300504567,-0.04005756743522599,0.5465054182367844,-4.993523663537076,-13.245142747652807,74.25097480360222
1588960242.8820372,1.347043494922399,-2.1163652040620806,-9.43170434949224,-0.604355559813502,-0.04184347789061336,0.575972940750676,-4.792608737305997,-13.094456552979498,72.34228300440698
1588960242.8920372,1.307622297248761,-2.1709783779900866,-9.469510811004957,-0.6,-0.042222222222222223,0.5822222222222222,-4.6175696789023775,-13.467221284390488,69.19229940377846
1588960242.9020371,1.276869214171365,-2.0276125843947934,-9.534031460986983,-0.6,-0.042222222222222223,0.5822222222222222,-4.53265730493492,-13.67257865246746,67.12133709194683
1588960242.9120371,1.1743886844803666,-2.018817781530852,-9.488396766994391,-0.6,-0.042222222222222223,0.5822222222222222,-4.287449484287351,-13.542459587429882,65.0996969057241
1588960242.9220371,1.1153579829905302,-2.1115803124434525,-9.47153085228301,-0.6,-0.042222222222222223,0.5822222222222222,-4.02391956692201,-13.331635653537608,63.51851740153206
1588960242.932037,0.9985219178355514,-2.087810211696163,-9.485857658772122,-0.6444444444444445,-0.013333333333333334,0.5755555555555556,-3.9375,-12.67677926534847,61.541058530696944
1588960242.942037,0.9096133711157005,-2.1149738245041063,-9.513093031074396,-0.6444444444444445,-0.013333333333333334,0.5755555555555556,-3.932667138946256,-12.370167138946256,60.930250708419386
1588960242.952037,0.8991159939863537,-1.990442003006823,-9.58602197293859,-0.6444444444444445,-0.013333333333333334,0.5755555555555556,-3.809737481207355,-12.219612293280907,60.733424887244134
1588960242.962037,0.8798194624706517,-2.000541612588045,-9.499819462470652,-0.6444444444444445,-0.013333333333333334,0.5755555555555556,-3.7494358202207865,-11.551216404415731,60.36822984264944
1588960242.972037,0.8675863678124043,-2.0372408965627873,-9.487586367812405,-0.6444444444444445,-0.013333333333333334,0.5755555555555556,-3.7112073994137633,-10.786647988275268,59.90948879296516
1588960242.982037,0.8249062006681597,-2.065848966555307,-9.439057234112854,-0.706183535861571,-0.07312276923202433,0.5508599189887049,-3.6143879180586658,-9.764159385439994,58.96699126252799
1588960242.992037,0.7448612652608213,-2.207846836847947,-9.483518312985572,-0.75,-0.11555555555555555,0.5333333333333333,-3.5625,-8.628329633740288,57.35127635960045
1588960243.002037,0.7310086151590138,-2.211008615159014,-9.552939693886904,-0.75,-0.11555555555555555,0.5333333333333333,-3.2253230684630187,-8.89967693153698,55.676507652827425
1588960243.012037,0.6763115179034306,-2.1160451563310034,-9.519733638427573,-0.75,-0.11555555555555555,0.5333333333333333,-3.229444126637945,-8.85361174672411,54.367508580775485
1588960243.022037,0.6263809937805123,-1.9912699792683741,-9.444888985487863,-0.75,-0.11555555555555555,0.5333333333333333,-3.102381211128202,-9.05853131478633,52.53313716311108
1588960243.032037,0.5644811983148698,-1.9561202995787175,-9.43,-0.9905814739688981,-0.3252932508104922,0.16089470536225103,-3.019125936183492,-9.038251872366985,51.45014091511936
1588960243.042037,0.48495072342210105,-2.0142241560075487,-9.42082512057035,-1.096666666666667,-0.4177777777777778,-0.0033333333333333327,-2.9426570035646886,-8.713285017823443,50.379541046340954
1588960243.052037,0.48,-1.9740332133317848,-9.51193357333643,-1.096666666666667,-0.4177777777777778,-0.0033333333333333327,-2.8417358611078853,-8.400207583323656,49.83367930553943
1588960243.062037,0.4321613047936427,-2.0174064342476288,-9.511296782876185,-1.096666666666667,-0.4177777777777778,-0.0033333333333333327,-2.8125,-7.654717940912587,49.08951630992053
1588960243.072037,0.3995816863678088,-2.042813735224143,-9.502395421591952,-1.096666666666667,-0.4177777777777778,-0.0033333333333333327,-2.7174427698994026,-7.054656619396415,48.58721384949701
1588960243.082037,0.4084102528188248,-1.8650341994070547,-9.451854705044704,-1.2633333333333334,0.91,-0.05111111111111112,-2.6233440133529426,-6.819123946588229,47.40438026705885
1588960243.092037,0.3498836451418226,-2.0496509354254675,-9.52,-1.2633333333333334,0.91,-0.05111111111111112,-2.5614091732045865,-7.06577248038624,46.179136994568495
1588960243.102037,0.32968723601524674,-1.9885925620686102,-9.52,-1.2633333333333334,0.91,-0.05111111111111112,-2.375977387452354,-7.633796487071185,44.72654270114351
1588960243.112037,0.31240362624909856,-1.9108163181209437,-9.52,-1.2633333333333334,0.91,-0.05111111111111112,-2.4299886679715668,-8.119898011744102,43.43027196868239
1588960243.122037,0.28847391952309986,-1.8623293591654246,-9.471566318926975,-1.2633333333333334,0.91,-0.05111111111111112,-2.370230998509687,-8.052961997019374,42.644578986587184
1588960243.132037,0.2659227963073258,-1.7606875372245385,-9.413691185229304,-1.0590201260671035,0.7084049285288863,0.22523269472569651,-2.287017476920786,-7.555262153811793,41.844692246128645
1588960243.142037,0.1965426939685193,-1.7234573060314806,-9.408130658866137,-0.7622222222222222,0.4155555555555556,0.6266666666666667,-2.193341691043321,-6.8300250731299625,41.26752507312996
1588960243.152037,0.13510217942827463,-1.800582912163647,-9.496268003755569,-0.7622222222222222,0.4155555555555556,0.6266666666666667,-2.383563644899019,-7.155611378573283,42.23031822449509
1588960243.162037,0.13383579901372786,-1.8545894975343198,-9.492328401972545,-0.7622222222222222,0.4155555555555556,0.6266666666666667,-2.523973743835799,-7.725605591096895,44.05652738904438
1588960243.172037,0.1692695135304239,-1.848047864852182,-9.436095729704364,-0.7622222222222222,0.4155555555555556,0.6266666666666667,-2.5625,-8.074700844673862,46.21347567652119
1588960243.1820369,0.19243244304791832,-1.8151351139041634,-9.42,-0.6275374225364406,0.3050449506851707,0.6577477742864625,-2.6402027690494894,-7.969594461901021,47.371622152395915
1588960243.1920369,0.19082129123659178,-1.7724638737097753,-9.447536126290224,-0.5455555555555556,0.23777777777777775,0.6766666666666666,-2.7448669297713013,-7.530798421372192,47.118963772515684
1588960243.2020369,0.1108722803191753,-1.8194548248005156,-9.529127719680824,-0.5455555555555556,0.23777777777777775,0.6766666666666666,-2.6263629379987115,-7.5,45.76431084898647
1588960243.2120368,0.11982133560509252,-1.78071465757963,-9.49071465757963,-0.5455555555555556,0.23777777777777775,0.6766666666666666,-2.4408499574045153,-7.929683432722798,44.154032964172465
1588960243.2220368,0.08051158153090965,-1.685227795674183,-9.45051158153091,-0.5455555555555556,0.23777777777777775,0.6766666666666666,-2.338778953827274,-8.036221046172725,43.28587110753183
1588960243.2320368,-0.04671836734693878,-1.7183591836734693,-9.430273469387755,-0.5088108843537414,0.1913065759637188,0.6928775510204082,-2.4948724489795917,-7.211428571428572,43.24487244897959
1588960243.2420368,-0.05,-1.6310013218054564,-9.403300396541637,-0.5077777777777778,0.19,0.6933333333333334,-2.55562417387159,-6.9093791306420504,44.25123512968862
1588960243.2520368,0.016831201118765224,-1.5627161133267726,-9.476378515564303,-0.5077777777777778,0.19,0.6933333333333334,-2.5028292847153883,-7.710390013984565,45.80709716683068
1588960243.2620368,-0.03593126000139149,-1.6811843966696816,-9.442712493332404,-0.5077777777777778,0.19,0.6933333333333334,-2.6165234583362325,-8.04130864584058,46.28283210417681
1588960243.2720368,-0.04,-1.65080698300454,-9.44,-0.5077777777777778,0.19,0.6933333333333334,-2.673991271244325,-8.699386526176223,46.21451745751135
1588960243.2820368,-0.10232348322626696,-1.6934201284796573,-9.43109664525339,-0.47117509715282735,0.1642791973986835,0.7071829962725038,-2.5762080656673803,-9.26452177016417,46.020562098501074
1588960243.2920368,-0.16206850999863345,-1.7781027649979502,-9.421321915000227,-0.4666666666666667,0.16111111111111112,0.7088888888888889,-2.5082619687514236,-9.3125,45.94576196875143
1588960243.3020368,-0.05146962357452821,-1.7170582298920174,-9.529412655161973,-0.4666666666666667,0.16111111111111112,0.7088888888888889,-2.6709572736905844,-9.483457273690584,45.88051424210314
1588960243.3120368,0.015960796681303215,-1.6633660027655806,-9.46538560442493,-0.4666666666666667,0.16111111111111112,0.7088888888888889,-2.5126225103709277,-8.917075034569757,45.525245020741856
1588960243.3220367,-0.04740062331504177,-1.7798233303378521,-9.467488958146117,-0.4666666666666667,0.16111111111111112,0.7088888888888889,-2.406388023173553,-8.032492208561978,43.81498441712395
1588960243.3320367,-0.12673345259391772,-2.0368789505068574,-9.470982707215265,-0.4544444444444444,0.16666666666666666,0.68,-2.2940742397137748,-8.054196481812761,39.77581991651759
1588960243.3420367,0.09836314847942754,-2.153595706618962,-9.487656529516995,-0.4544444444444444,0.16666666666666666,0.68,-1.9814400715563507,-10.034212880143112,35.9721042039356
1588960243.3520367,0.10361762338074212,-2.1787941255397527,-9.56035300431802,-0.4544444444444444,0.16666666666666666,0.68,-1.882536715376546,-11.13694926935181,29.116722268302798
1588960243.3620367,0.16477213047791328,-2.223181420318609,-9.605984516932173,-0.4544444444444444,0.16666666666666666,0.68,-1.3802128921826067,-10.89015483067826,21.5928643675478
1588960243.3720367,0.10481435643564356,-2.394398978960396,-9.625324102722772,-0.4544444444444444,0.16666666666666666,0.68,-1.1209487159653466,-10.051211517636139,13.076935720915841
1588960243.3820367,-0.1520445810914681,-2.5603407635152444,-9.523807327696645,-0.4198896859965269,0.17593745551854698,0.6766288040538617,-0.4936106840891622,-6.87749807840123,-0.8005620676402767
1588960243.3920367,-0.2881886413014203,-2.5830314402169035,-9.555157201084517,-0.4088888888888889,0.17888888888888888,0.6755555555555556,0.05400925610040758,-3.3747654552636774,-8.001334323882713
1588960243.4020367,-0.4002629117738751,-2.67587689216807,-9.660262911773875,-0.4088888888888889,0.17888888888888888,0.6755555555555556,0.4939684436592885,1.03891501264332,-12.668303370397313
1588960243.4120367,-0.44000074883929907,-2.7466684139583646,-9.633331586041635,-0.4088888888888889,0.17888888888888888,0.6755555555555556,0.4791635465029205,2.6666963082222557,-14.729219709450351
1588960243.4220366,-0.45,-2.7364344513042997,-9.650278658434841,-0.4088888888888889,0.17888888888888888,0.6755555555555556,0.4375,3.5240262945658825,-16.444466460871016
1588960243.4320366,-0.3249782112471467,-2.7427312343187005,-9.624537531362598,-0.4057317730112916,0.1820460047664862,0.676186978731075,0.6506053217378182,3.5368946782621817,-17.93199150144315
1588960243.4420366,-0.24428689231230555,-2.7385696615315416,-9.56142621537539,-0.4033333333333333,0.18444444444444444,0.6766666666666666,0.9910861539038195,1.990957307245399,-21.991343847220662
1588960243.4520366,-4.501841412342954,-9.615573137397497,-13.466169721894826,-0.4033333333333333,0.18444444444444444,0.6766666666666666,1.170087080271836,2.728544963262031,-26.9166671891065
1588960243.4620366,-9.403265541550951,-16.878880153813288,-22.091212134159367,-0.4033333333333333,0.18444444444444444,0.6766666666666666,-2.2134292886135443,-12.366681798760949,-9.863752403332619
1588960243.4720366,-2.1370547799085013,3.2372342190722243,-8.016904733685735,-0.4033333333333333,0.18444444444444444,0.6766666666666666,58.220805579917986,-9.745250314077797,-170.5915759001588
1588960243.4820366,-1.3058042308173738,-0.977786644135687,-3.311939228939792,-0.3957208175129693,0.17900693314418434,0.6407790920849501,78.44945198084866,153.56853759857304,-448.06897570096385
1588960243.4920366,-5.615742040586474,1.2016389453148566,-24.019678807747226,-0.3955555555555556,0.17888888888888888,0.64,49.39061840067577,169.30368581685806,-437.9884731803463
1588960243.5020366,-3.1006280934468426,-2.6340868144921794,-0.20030983963571813,-0.3955555555555556,0.17888888888888888,0.64,-55.33285797366858,111.31759800039596,-375.0123273856662
1588960243.5120366,-0.4449921595684627,-1.5749921595684626,-0.5871970979949399,-0.3955555555555556,0.17888888888888888,0.64,-41.152951138430666,23.211541376570693,-317.22781419222645
1588960243.5220366,0.541930203970133,0.2078234838827172,-7.565667683482063,-0.3955555555555556,0.17888888888888888,0.64,6.900669846111818,-19.85793229830632,-264.76834962893827
1588960243.5320365,0.7120671816313514,-0.19918857628800224,-9.087772659627241,-0.4554142946007449,0.15180993551130323,0.6171966708399279,20.545930479767556,-1.6329149245269647,-222.15135798313372
1588960243.5420365,0.41367547972733365,-0.8987064108120888,-9.675503368927066,-0.4888888888888889,0.13666666666666666,0.6044444444444445,10.64524311438591,24.008858209543323,-195.3527621261673
1588960243.5520365,0.48883667588072693,-7.551276245368463,-10.935512556607657,-0.4888888888888889,0.13666666666666666,0.6044444444444445,7.2686125242604245,33.97048131212139,-165.19190914838558
1588960243.5620365,1.887635771180304,-7.143139391745112,-10.047398262128892,-0.4888888888888889,0.13666666666666666,0.6044444444444445,7.61447773352643,20.47098569876901,-108.92433019551049
1588960243.5720365,3.607488102548357,0.9004862603622966,-8.884899447344182,-0.4888888888888889,0.13666666666666666,0.6044444444444445,1.3345750498925395,-1.9992228277556032,-25.744082457015658
1588960243.5820365,2.9394254009886005,-0.35349480480177564,-9.154887521436498,-0.5201638252799354,0.07539332190053465,0.6165714605960747,-1.9361835468576616,-8.404320084737213,12.424335468576617
1588960243.5920365,1.5752277085330775,-2.1682813998082455,-9.339952061361457,-0.5433333333333333,0.03,0.6255555555555555,-0.18824904122722907,-2.65857202780441,2.129044822627037
1588960243.6020365,1.4659801737580753,-2.0427918244597905,-9.444118957451549,-0.5433333333333333,0.03,0.6255555555555555,0.125,-0.28551737580752934,0.2622521719759412
1588960243.6120365,1.395161452233562,-2.0592471139367574,-9.609677095532875,-0.5433333333333333,0.03,0.6255555555555555,-0.4153212313869834,-0.18279446210473482,0.05241969215325415
1588960243.6220365,1.3881680359751816,-2.1142240479669088,-9.544935772157183,-0.5433333333333333,0.03,0.6255555555555555,-0.5492998501034096,-0.11004947536193382,0.03785007494829516
1588960243.6320364,1.4591845583607246,-2.174388418770543,-9.388621232254003,-0.5425113255783233,0.03,0.6148694547404248,0.14733110707042452,0.0625,0.10873793621931604
1588960243.6420364,1.4478572759455934,-2.0694647847959753,-9.432321129122414,-0.5422222222222223,0.03,0.6111111111111112,0.375,0.1629460126700205,0.0245539873299795
1588960243.6520364,1.4070559897753525,-2.1553040357862656,-9.53236002556162,-0.5422222222222223,0.03,0.6111111111111112,0.014674888167920175,0.1360249840239886,0.0
1588960243.6620364,1.3927947607303475,-2.143973803651738,-9.593231435617914,-0.5422222222222223,0.03,0.6111111111111112,-0.24263098174131106,0.125,0.0
1588960243.6720364,1.4207236497115887,-2.121221814368117,-9.526607236497115,-0.5422222222222223,0.03,0.6111111111111112,-0.3399318300996329,-0.06702281069743052,0.0
1588960243.6820364,1.4579419163891971,-2.09559341472438,-9.430290418054014,-0.5406214905249312,0.03,0.6170566859867637,-0.2335067517573067,-0.23532186459489457,-0.012863022567517573
1588960243.6920364,1.45,-2.1065802901450725,-9.418784392196098,-0.5344444444444445,0.03,0.64,0.34450975487743873,0.0625,0.0015195097548774406
1588960243.7020364,1.4295102575028915,-2.156340171668594,-9.520258111645461,-0.5344444444444445,0.03,0.64,0.24693910939307237,0.14787392707128508,0.01981303646435746
1588960243.7120364,1.425239820508559,-2.1185610769486454,-9.542841615422969,-0.5344444444444445,0.03,0.64,-0.07449102542795416,0.05650448728602292,0.0
1588960243.7220364,1.43,-2.078452656557472,-9.511547343442528,-0.5344444444444445,0.03,0.64,-0.3125,0.009670896515800442,-0.024056965505266814
1588960243.7320364,1.4256441730708496,-2.0948466154332035,-9.469018422991894,-0.5281526944356716,0.023708249991227146,0.6211247499736815,-0.1491564901568586,0.043328245078429306,-0.0625
1588960243.7420363,1.4360827371254514,-2.1560827371254514,-9.406082737125452,-0.52,0.015555555555555557,0.5966666666666667,0.230028511723454,0.10502851172345401,0.10502851172345401
1588960243.7520363,1.4448975801316069,-2.1393854807896413,-9.445512099341967,-0.52,0.015555555555555557,0.5966666666666667,0.24743950329017192,0.18621975164508597,0.15432962746762896
1588960243.7620363,1.429607814550226,-2.125588278174661,-9.490784370899549,-0.52,0.015555555555555557,0.5966666666666667,-0.004902318122175231,0.027573261408368563,0.0625
1588960243.7720363,1.437051814085843,-2.111580309856928,-9.492948185914157,-0.52,0.015555555555555557,0.5966666666666667,-0.2670984507153585,-0.02697538732116038,0.0625
1588960243.7820363,1.43220221933656,-2.10779778066344,-9.49186518710896,-0.5246142394312622,0.015555555555555557,0.6091910308372356,-0.3379212902845001,0.0,-0.011657419430999877
1588960243.7920363,1.4313846216041397,-2.1086153783958603,-9.437384581177232,-0.5277777777777778,0.015555555555555557,0.6177777777777778,0.007692482616429519,0.07115388502587322,0.04423082753880983
1588960243.8020363,1.4285189616315628,-2.1344431151053116,-9.453145711026405,-0.5277777777777778,0.015555555555555557,0.6177777777777778,0.32175648980273225,0.16087824490136612,0.017365265295901613
1588960243.8120363,1.4251680378764358,-2.1444958863706924,-9.479327848494258,-0.5277777777777778,0.015555555555555557,0.6177777777777778,0.21349881636137846,0.09059928981682706,-0.030199763272275693
1588960243.8220363,1.4259336149092037,-2.1096680745460183,-9.480331925453982,-0.5277777777777778,0.015555555555555557,0.6177777777777778,-0.08998944090486077,-0.050829813634953584,0.025414906817476792
1588960243.8320363,1.4276444782667084,-2.083822239133354,-9.48324432606652,-0.530325937200014,0.015555555555555557,0.6207506304370533,-0.36027798916692777,-0.1727779891669278,0.1102779891669278
1588960243.8420362,1.4287990315715484,-2.106801452642677,-9.44,-0.5344444444444445,0.015555555555555557,0.6255555555555555,-0.34999243415272274,-0.19749546049163363,0.15249697366108908
1588960243.8520362,1.4036537976280594,-2.1536537976280594,-9.456442089326268,-0.5344444444444445,0.015555555555555557,0.6255555555555555,-0.06790941206156952,-0.005409412061569516,0.0510818824123139
1588960243.8620362,1.4235712961933356,-2.1485722228399866,-9.519286111419992,-0.5344444444444445,0.015555555555555557,0.6255555555555555,0.1875,0.1830381963749583,0.02232060120834723
1588960243.8720362,1.4277374789496662,-2.1145250421006674,-9.495474957899333,-0.5344444444444445,0.015555555555555557,0.6255555555555555,0.07437394748331567,0.0625,0.04835924343541446
1588960243.8820362,1.42,-2.123514045581888,-9.473514045581888,-0.5344444444444445,0.020239855968636162,0.620871255142475,-0.33276860755659876,0.0625,0.02026860755659877
1588960243.8920362,1.4222121888168844,-2.1166365664506532,-9.46,-0.5344444444444445,0.03,0.6111111111111112,-0.31969527957788874,0.10397854031658345,0.03484763978894437
1588960243.9020362,1.4336331354481553,-2.1327337291036894,-9.474532541792621,-0.5344444444444445,0.03,0.6111111111111112,-0.034171613796117564,0.2272929034490294,0.028328386203882436
1588960243.9120362,1.4350466593336408,-2.127430010999539,-9.49504665933364,-0.5344444444444445,0.03,0.6111111111111112,0.0940416208352553,0.1565416208352553,0.1875
1588960243.9220362,1.42,-2.132426335077425,-9.462426335077424,-0.5344444444444445,0.03,0.6111111111111112,0.0,0.1448765543245705,0.05020574279238249
1588960243.9320362,1.42,-2.0958739769373533,-9.458834697416862,-0.5401994908773745,0.03,0.6142502273472548,-0.05885842942769343,0.16171235585845983,-0.03671235585845985
1588960243.9420362,1.42,-2.102191290515013,-9.488876516206005,-0.5466666666666666,0.03,0.6177777777777778,-0.125,0.0625,0.0625
1588960243.9520361,1.4274414888304423,-2.1411622332456637,-9.514882977660884,-0.5466666666666666,0.03,0.6177777777777778,0.014527915570796024,0.0625,0.03924534740486733
1588960243.9620361,1.44,-2.154548546326256,-9.496388370610047,-0.5466666666666666,0.03,0.6177777777777778,0.04557048723459531,0.028428414539099216,0.13628634184360314
1588960243.9720361,1.4214952889831545,-2.15,-9.469252355508424,-0.5466666666666666,0.03,0.6177777777777778,-0.18282722192764206,0.0,0.1343455561447159
1588960243.982036,1.4060474315965017,-2.1379051368069963,-9.476976284201749,-0.54297101402436,0.03571146317447389,0.6157619672456105,-0.25,0.03779644747813609,0.018898223739068045
1588960243.992036,1.42,-2.111179831932773,-9.472359663865547,-0.5344444444444445,0.048888888888888885,0.6111111111111112,-0.19838235294117645,0.125,0.05512605042016807
1588960244.002036,1.42,-2.1194730598121603,-9.48894611962432,-0.5344444444444445,0.048888888888888885,0.6111111111111112,0.16444636678200697,0.125,0.0032933761739990103
1588960244.012036,1.4289799126088458,-2.138979912608846,-9.50857030586904,-0.5344444444444445,0.048888888888888885,0.6111111111111112,0.25637554619471253,0.22193777309735627,0.0625
1588960244.022036,1.4305272755490028,-2.1452636377745016,-9.460527275549003,-0.5344444444444445,0.048888888888888885,0.6111111111111112,0.06909094436253589,0.09869320827190192,0.03289773609063397
1588960244.032036,1.4293447329400257,-2.135327633529987,-9.45,-0.5344444444444445,0.0364292449688544,0.6079962001311026,-0.09170229043758085,-0.05840458087516169,-0.05840458087516169
1588960244.042036,1.4303402278466373,-2.1251701139233186,-9.459659772153362,-0.5344444444444445,0.022222222222222227,0.6044444444444445,-0.09481321202074137,-0.03443963606222411,-0.09481321202074137
1588960244.052036,1.4227791152849503,-2.1172208847150498,-9.492232922279603,-0.5344444444444445,0.022222222222222227,0.6044444444444445,-0.010391588407182108,0.0972389410618786,-0.010391588407182108
1588960244.062036,1.4290425992779783,-2.1147870036101084,-9.546170397111913,-0.5344444444444445,0.022222222222222227,0.6044444444444445,0.13696750902527077,0.1934837545126354,0.11901624548736461
1588960244.072036,1.42,-2.1562768301820268,-9.480214641456213,-0.5344444444444445,0.022222222222222227,0.6044444444444445,0.0871113204636608,0.18019056591299748,0.03923018863766583
1588960244.082036,1.4243513399928878,-2.1369459800213364,-9.43,-0.5397627488801963,0.022222222222222227,0.6044444444444445,-0.2146958749555491,0.0625,0.0
1588960244.092036,1.425623479753899,-2.115623479753899,-9.465012161968808,-0.5466666666666666,0.022222222222222227,0.6044444444444445,-0.1952934969237373,0.007793496923737299,0.02735325153813135
1588960244.102036,1.42,-2.113473816533792,-9.537790532270336,-0.5466666666666666,0.022222222222222227,0.6044444444444445,-0.0164432333189983,0.0026340600086010163,0.0625
1588960244.112036,1.430235676273412,-2.114882161863294,-9.549057294906351,-0.5466666666666666,0.022222222222222227,0.6044444444444445,0.25147297670882574,0.18897297670882576,0.09448648835441288
1588960244.122036,1.435957728645174,-2.114042271354826,-9.481704100516216,-0.5466666666666666,0.022222222222222227,0.6044444444444445,0.26197160806467323,0.17420741209700985,0.07447160806467322
1588960244.132036,1.425079169103472,-2.127381246344792,-9.437539584551736,-0.5420192152643903,0.025502776153240776,0.607724998375463,0.09523442069010332,0.04712240344835055,0.0
1588960244.142036,1.417481388277236,-2.140024815630352,-9.439975184369647,-0.5277777777777778,0.03555555555555556,0.6177777777777778,-0.1875,0.0,-0.015586225577575058
1588960244.152036,1.4350856004033903,-2.119828799193219,-9.514229596369487,-0.5277777777777778,0.03555555555555556,0.6177777777777778,-0.12607000504238,0.06142999495762,-0.03178500252119
1588960244.162036,1.43,-2.13,-9.534909519349869,-0.5277777777777778,0.03555555555555556,0.6177777777777778,-0.0036941859762544896,0.10539806199208483,-0.019601938007915168
1588960244.172036,1.43,-2.13,-9.484224645781095,-0.5277777777777778,0.03555555555555556,0.6177777777777778,0.11509848645056042,0.06580050451647987,-0.05919949548352014
1588960244.182036,1.4360185825540488,-2.13,-9.436990708722975,-0.5321245318445909,0.03154316718618971,0.6157715835930948,0.06857578855579277,-0.08130807048140241,0.06857578855579277
1588960244.192036,1.4391900539707017,-2.1263966846569007,-9.451619892058597,-0.5422222222222223,0.022222222222222227,0.6111111111111112,-0.08502072089437163,-0.10247927910562837,-0.017458558211256747
1588960244.202036,1.4229247520122907,-2.122924752012291,-9.504623760061454,-0.5422222222222223,0.022222222222222227,0.6111111111111112,-0.10672029992318226,-0.0625,0.09905940015363549
1588960244.212036,1.43,-2.13,-9.534969710187069,-0.5422222222222223,0.022222222222222227,0.6111111111111112,0.031817933992439665,0.0003786226616264432,0.09318206600756034
1588960244.222036,1.43,-2.1262972048509137,-9.50037763880731,-0.5422222222222223,0.022222222222222227,0.6111111111111112,0.125,0.08564246968178835,0.023142469681788343
1588960244.2320359,1.4316547131147541,-2.124964139344262,-9.446690573770491,-0.5422222222222223,0.024428506375227692,0.6100079690346084,0.08363217213114754,0.125,0.052158043032786885
1588960244.2420359,1.4372014375773285,-2.144402875154657,-9.435597124845343,-0.5422222222222223,0.03555555555555556,0.6044444444444445,-0.14249101514169563,0.10750898485830437,0.0
1588960244.2520359,1.4280293689048313,-2.1280293689048313,-9.473647573142024,-0.5422222222222223,0.03555555555555556,0.6044444444444445,-0.1998164443448044,0.0625,0.0
1588960244.2620358,1.42,-2.12,-9.54123813541447,-0.5422222222222223,0.03555555555555556,0.6044444444444445,-0.11517875975532588,0.08497020670744569,0.0
1588960244.2720358,1.4213254520501768,-2.121325452050177,-9.483372739749115,-0.5422222222222223,0.03555555555555556,0.6044444444444445,0.125,0.11671592468639395,0.0
1588960244.2820358,1.4275287236264884,-2.128764361813244,-9.437528723626487,-0.54126117029919,0.03555555555555556,0.605268203235615,0.14044547733444745,0.07794547733444745,0.015445477334447462
1588960244.2920358,1.4100050135784414,-2.1200025067892208,-9.420005013578441,-0.534446394169394,0.03555555555555556,0.6111094399182972,0.24996866513473992,0.18746866513473992,0.12496866513473992
1588960244.3020358,1.42,-2.1440650977637277,-9.45341412012645,-0.5344444444444445,0.03555555555555556,0.6111111111111112,-0.08104656948835032,0.10645343051164968,0.01854656948835031
1588960244.3120358,1.4241618080880816,-2.13,-9.546705535295347,-0.5344444444444445,0.03555555555555556,0.6111111111111112,-0.07297739889898028,0.0625,0.010477398898980285
1588960244.3220358,1.436474088624415,-2.1267629556877923,-9.490288867063377,-0.5344444444444445,0.03555555555555556,0.6111111111111112,0.08092610780518805,0.0018054191461089608,-0.04226847304870299
1588960244.3320358,1.4458270918039802,-2.1220864540980098,-9.457481275411942,-0.5344444444444445,0.032773616758209105,0.6125020805097844,0.23695966188743847,-0.08587898566231543,0.013040338112561523
1588960244.3420358,1.426918988410469,-2.126918988410469,-9.428486069537186,-0.5344444444444445,0.022222222222222227,0.6177777777777778,0.11047471026172385,0.023987355130861927,0.08175632243456904
1588960244.3520358,1.42,-2.1219716516436016,-9.487744864792415,-0.5344444444444445,0.022222222222222227,0.6177777777777778,-0.07482282277250947,-0.0625,0.11267717722749053
1588960244.3620358,1.4241878769531704,-2.1258121230468294,-9.55162424609366,-0.5344444444444445,0.022222222222222227,0.6177777777777778,-0.07265153808536898,0.016022692871946534,0.03632576904268449
1588960244.3720357,1.4270941194586548,-2.122905880541345,-9.510941194586549,-0.5344444444444445,0.022222222222222227,0.6177777777777778,0.054485260150221565,0.05235298646637125,0.036323506766814374
1588960244.3820357,1.420338887319966,-2.130169443659983,-9.439661112680033,-0.5343314820044558,0.022109259782233524,0.6177777777777778,0.1885590228748941,-0.1260590228748941,0.1239409771251059
1588960244.3920357,1.4377284081935244,-2.1377284081935244,-9.42454318361295,-0.5277777777777778,0.015555555555555557,0.6177777777777778,0.17901275604763978,-0.14490765362858388,0.0625
1588960244.4020357,1.4309687505036341,-2.130968750503634,-9.438062498992732,-0.5277777777777778,0.015555555555555557,0.6177777777777778,-0.0322265467614305,-0.018164071943141707,0.0625
1588960244.4120357,1.4284898488921849,-2.1184898488921853,-9.528489848892184,-0.5277777777777778,0.015555555555555557,0.6177777777777778,-0.125,-0.15918466672846945,-0.05306155557615649
1588960244.4220357,1.420713265968295,-2.110713265968295,-9.520713265968295,-0.5277777777777778,0.015555555555555557,0.6177777777777778,-0.125,-0.013373736905534422,-0.004457912301844814
1588960244.4320357,1.4240623736824103,-2.122708249121607,-9.445937626317589,-0.5277777777777778,0.017511513254493884,0.6140163206644348,0.17057344298995678,0.05403672149497839,0.07096327850502161
1588960244.4420357,1.4429643914698782,-2.14,-9.444624629855426,-0.5277777777777778,0.03,0.59,0.10647255331326051,0.06595882996989076,0.10301372334336975
1588960244.4520357,1.4336425935687929,-2.14,-9.508212967843964,-0.5277777777777778,0.03,0.59,0.09643516078017923,0.1419675803900896,0.0625
1588960244.4620357,1.433439859606992,-2.133439859606992,-9.533439859606991,-0.5277777777777778,0.03,0.59,-0.04199956127184982,0.08300043872815019,0.0625
1588960244.4720356,1.4248239978962394,-2.12,-9.51035200420752,-0.5277777777777778,0.03,0.59,0.015074993425748525,0.10992500657425147,0.04742500657425147
1588960244.4820356,1.4389886501161155,-2.1210113498838847,-9.477977300232231,-0.5281148944057393,0.028988650116115525,0.59,0.06882093677427796,0.05617906322572204,0.0
1588960244.4920356,1.4230329928378536,-2.1369670071621463,-9.443032992837853,-0.5344444444444445,0.01,0.59,0.20645620523658564,-0.024587589526828692,0.03791241047317131
1588960244.5020356,1.4269008180991818,-2.136198363801636,-9.474793455206544,-0.5344444444444445,0.01,0.59,0.09504090495909503,0.02376022623977376,0.028150565599434393
1588960244.5120356,1.42,-2.1439173326673324,-9.520875999000998,-0.5344444444444445,0.01,0.59,-0.17396665834165834,-0.08150833541458541,-0.11146665834165834
1588960244.5220356,1.4230938744340806,-2.1284530627829596,-9.490718376697759,-0.5344444444444445,0.01,0.59,-0.009668357606501936,-0.11533164239349807,0.08183671521300387
1588960244.5320356,1.4383461517482135,-2.1208269241258932,-9.444961544755358,-0.5344444444444445,0.01,0.59,-0.05733172421316751,-0.06766827578683249,0.17716344842633502
1588960244.5420356,1.4326243371411218,-2.0952486742822436,-9.432126988576634,-0.5466666666666666,0.03,0.6044444444444445,0.01640210713201112,0.07579367860396664,0.04609789286798888
1588960244.5520356,1.4379584202858604,-2.114083159428279,-9.436540536283813,-0.5466666666666666,0.03,0.6044444444444445,0.04974012678662834,-0.07525987321337166,-0.012759873213371659
1588960244.5620356,1.4290091647369623,-2.129504582368481,-9.538018329473923,-0.5466666666666666,0.03,0.6044444444444445,0.0,-0.12190363980300707,-0.05630727960601416
1588960244.5720356,1.4124295393725446,-2.1224295393725447,-9.487852303137277,-0.5466666666666666,0.03,0.6044444444444445,0.0,-0.0625,0.07768462107840346
1588960244.5820355,1.4214377332089552,-2.130479244402985,-9.449520755597014,-0.5466666666666666,0.02962725435323383,0.6040716987976783,0.0029952775186567163,-0.06849055503731344,0.12200472248134328
1588960244.5920355,1.4492355816895148,-2.14,-9.44,-0.5466666666666666,0.022222222222222227,0.5966666666666667,0.06488880722026598,-0.1779447711189361,0.05772238555946805
1588960244.6020355,1.43,-2.14,-9.462643798780087,-0.5466666666666666,0.022222222222222227,0.5966666666666667,0.09669525152489014,0.07665237423755493,-0.03419525152489014
1588960244.6120355,1.43,-2.14,-9.531416344198858,-0.5466666666666666,0.022222222222222227,0.5966666666666667,0.010729569751426513,0.11963521512428674,0.05177043024857349
1588960244.6220355,1.42,-2.122170434920698,-9.516977390475812,-0.5466666666666666,0.022222222222222227,0.5966666666666667,-0.01356521825436211,-0.01356521825436211,-0.01356521825436211
1588960244.6320355,1.4214578109510758,-2.130728905475538,-9.469271094524462,-0.5466666666666666,0.022789148703196174,0.5982054671150245,-0.057944340777887925,-0.05338868155577585,-0.05338868155577585
1588960244.6420355,1.4374638768061596,-2.1374638768061596,-9.45746387680616,-0.5466666666666666,0.03,0.6177777777777778,0.047552309884505775,0.07835076996150192,0.0625
1588960244.6520355,1.4271396113885404,-2.135720777222919,-9.472883108891676,-0.5466666666666666,0.03,0.6177777777777778,0.15174514235675574,0.14287742882162213,0.026745142356755736
1588960244.6620355,1.4227002980967667,-2.1418991057096997,-9.516498509516166,-0.5466666666666666,0.03,0.6177777777777778,0.04562313689520752,0.20437686310479247,-0.04562313689520752
1588960244.6720355,1.43,-2.12,-9.47833818283441,-0.5466666666666666,0.03,0.6177777777777778,-0.010386357284936957,0.260386357284937,-0.010386357284936957
1588960244.6820354,1.43,-2.12,-9.471443178642469,-0.5466666666666666,0.03,0.6177777777777778,-0.05348013348457201,0.30348013348457203,-0.05348013348457201
1588960244.6920354,1.4182556795395032,-2.12,-9.468721602302486,-0.5277777777777778,0.03,0.6177777777777778,-0.04069599424378967,0.010902002878105168,0.1547939913656845
1588960244.7020354,1.4128811942774206,-2.12,-9.512881194277421,-0.5277777777777778,0.03,0.6177777777777778,0.08050746423387933,0.0625,0.018007464233879326
1588960244.7120354,1.430187374209825,-2.12,-9.529437877370524,-0.5277777777777778,0.03,0.6177777777777778,0.18515782237718628,0.06015782237718627,0.12265782237718627
1588960244.7220354,1.4385522051849509,-2.121447794815049,-9.497104410369902,-0.5277777777777778,0.03,0.6177777777777778,0.026305129623774896,-0.03535384721783118,0.0
1588960244.7320354,1.4302643850774581,-2.129735614922542,-9.480528770154917,-0.5277777777777778,0.03,0.6177777777777778,-0.18089037306354727,0.12004277979766045,0.0
1588960244.7420354,1.43,-2.107084783385692,-9.441807972309487,-0.5422058771275272,0.03,0.6237187598629688,-0.1397599653868583,-0.018220103839425128,0.0
1588960244.7520354,1.4279075469984561,-2.121394968667696,-9.446974843338479,-0.5466666666666666,0.03,0.6255555555555555,0.0,0.07557783125964944,-0.12064072291345018
1588960244.7620354,1.405052402143311,-2.136631731904459,-9.523158659522295,-0.5466666666666666,0.03,0.6255555555555555,0.0,0.2184224866043048,-0.07302583779856506
1588960244.7720354,1.411143421423869,-2.127713157152262,-9.458856578576132,-0.5466666666666666,0.03,0.6255555555555555,0.05535361610081821,0.007146383899181793,-0.15176808050409105
1588960244.7820354,1.4190326342518573,-2.111934731496285,-9.450967365748141,-0.5466666666666666,0.03,0.6255555555555555,0.006046035925891091,0.05645396407410891,0.09476982037054454
1588960244.7920353,1.43715626111704,-2.0956874777659196,-9.441421869441479,-0.5422222222222223,0.015555555555555557,0.6044444444444445,-0.125,0.13388668400924938,0.05361331599075062
1588960244.8020353,1.4216669558965713,-2.1291665220517144,-9.45750130153457,-0.5422222222222223,0.015555555555555557,0.6044444444444445,-0.10416305129285768,0.1614538141160721,0.010418474353571162
1588960244.8120353,1.4377529004681457,-2.1211235497659273,-9.53550580093629,-0.5422222222222223,0.015555555555555557,0.6044444444444445,0.125,-0.11797781396295542,0.11797781396295542
1588960244.8220353,1.42,-2.1294568548387094,-9.497827419354838,-0.5422222222222223,0.015555555555555557,0.6044444444444445,0.12160534274193549,-0.05231602822580645,0.05571068548387097
1588960244.8320353,1.42,-2.12100060483871,-9.46400241935484,-0.5422222222222223,0.015555555555555557,0.6044444444444445,0.06875378024193549,0.10623865927419354,-0.04999243951612903
1588960244.8420353,1.4395999685014567,-2.110600047247815,-9.440400031498543,-0.52,0.03555555555555556,0.6044444444444445,-0.12249980313410505,0.05624950783526262,0.06375009843294747
1588960244.8520353,1.42,-2.14,-9.471253663301857,-0.52,0.03555555555555556,0.6044444444444445,0.0,-0.24413871703028328,0.11327743406056659
1588960244.8620353,1.42,-2.14,-9.573686909801367,-0.52,0.03555555555555556,0.6044444444444445,0.0,-0.1907880678117877,0.006576135623575369
1588960244.8720353,1.42,-2.13,-9.495962908773063,-0.52,0.03555555555555556,0.6044444444444445,0.07932121344556976,-0.05408939327721512,0.0
1588960244.8820353,1.42,-2.13,-9.472053318638721,-0.52,0.03555555555555556,0.6044444444444445,0.17894450567199346,-0.004277747164003268,0.0
1588960244.8920352,1.4492344231643841,-2.120382788417808,-9.44,-0.5544444444444444,0.03555555555555556,0.6111111111111112,-0.06489242761129921,-0.06489242761129921,0.06010757238870079
1588960244.9020352,1.43,-2.1306309969100665,-9.4456789721906,-0.5544444444444444,0.03555555555555556,0.6111111111111112,-0.1131688079362498,-0.125,0.0
1588960244.9120352,1.43,-2.1374521060335017,-9.507068954301511,-0.5544444444444444,0.03555555555555556,0.6111111111111112,0.01472698812815093,-0.125,0.0
1588960244.9220352,1.43,-2.1213559442296095,-9.474067832688828,-0.5544444444444444,0.03555555555555556,0.6111111111111112,0.12076267428247064,-0.06673732571752936,0.0
1588960244.9320352,1.43,-2.126359837953769,-9.47,-0.5544444444444444,0.03555555555555556,0.6111111111111112,0.08525101278894273,-0.14199797442211454,-0.03974898721105727
1588960244.9420352,1.4142792234613795,-2.12213961173069,-9.44641883519207,-0.5448373032263987,0.019834779016935155,0.6111111111111112,0.16075485336637751,-0.08924514663362247,-0.0625
1588960244.9520352,1.4177902566167278,-2.1122097433832723,-9.478951283083639,-0.5422222222222223,0.015555555555555557,0.6111111111111112,0.09012179229090293,-0.0625,-0.0625
1588960244.9620352,1.43,-2.130920644176514,-9.546317423293944,-0.5422222222222223,0.015555555555555557,0.6111111111111112,-0.0625,-0.07400805220642462,0.05099194779357538
1588960244.9720352,1.43,-2.138114120088497,-9.517543519646011,-0.5422222222222223,0.015555555555555557,0.6111111111111112,-0.0625,-0.16392650110621365,-0.03892650110621365
1588960244.9820352,1.43,-2.1240623149221065,-9.478124629844213,-0.5422222222222223,0.015555555555555557,0.6111111111111112,0.08691579760525298,-0.08788946826316468,0.03711053173683532
1588960244.9920352,1.4222408293460924,-2.12,-9.446722488038278,-0.5249796207690944,0.026763246500088603,0.6274915824915825,0.17349481658692184,-0.0625,0.0625
1588960245.0020351,1.43,-2.1209216578878376,-9.449216578878374,-0.52,0.03,0.6322222222222222,-0.005760361798984675,-0.11923963820101532,0.07402072359796935
1588960245.0120351,1.4290947749271685,-2.13,-9.535473874635843,-0.52,0.03,0.6322222222222222,-0.05684234329480312,-0.06815765670519688,0.17052702988440935
1588960245.0220351,1.420617335829163,-2.13,-9.486295985025022,-0.52,0.03,0.6322222222222222,0.007716697864537571,-0.11728330213546242,-0.0038583489322687853
1588960245.032035,1.4286287580700614,-2.13,-9.43822745157963,-0.52,0.03,0.6322222222222222,0.1078594758757688,-0.0171405241242312,-0.0539297379378844
1588960245.042035,1.4397910342036024,-2.1101044828981985,-9.430208965796398,-0.5277777777777778,0.042222222222222223,0.6177777777777778,0.06119396377251569,-0.0006530181137421575,0.0
1588960245.052035,1.4209431067831655,-2.120471553391583,-9.454715533915827,-0.5277777777777778,0.042222222222222223,0.6177777777777778,-0.059552791302607884,-0.0625,-0.002947208697392116
1588960245.062035,1.4349306342960046,-2.1274653171480025,-9.524653171480024,-0.5277777777777778,0.042222222222222223,0.6177777777777778,-0.015841767824984997,-0.0625,-0.046658232175015
1588960245.072035,1.4499363778508654,-2.13,-9.509681889254326,-0.5277777777777778,0.042222222222222223,0.6177777777777778,0.12420472313581711,0.0,0.0
1588960245.082035,1.4423982315199224,-2.13,-9.471991157599613,-0.5277777777777778,0.042222222222222223,0.6177777777777778,0.029977893999029503,0.0,0.0
1588960245.092035,1.4198287394577827,-2.1298287394577824,-9.43051378162665,-0.5422222222222223,0.03,0.6255555555555555,-0.0625,-0.12178886483342488,0.06035924322228326
1588960245.102035,1.4130521536821017,-2.1230521536821017,-9.450843538953695,-0.5422222222222223,0.03,0.6255555555555555,-0.0625,0.005272118460593916,-0.024348078973729287
1588960245.112035,1.4279532710280374,-2.12,-9.549766355140187,-0.5422222222222223,0.03,0.6255555555555555,-0.006396028037383178,-0.049707943925233644,-0.006396028037383178
1588960245.122035,1.4228473965724264,-2.12,-9.53854218971728,-0.5422222222222223,0.03,0.6255555555555555,0.0894075428446676,-0.017796228577666197,0.0447037714223338
1588960245.132035,1.435677061594419,-2.12,-9.451614692027904,-0.5422222222222223,0.03,0.6255555555555555,0.027018365034881642,-0.14697245244767754,0.0625
1588960245.142035,1.4331957165552003,-2.12,-9.43,-0.5422222222222223,0.03,0.6111909571720896,0.08505354305999568,-0.14497322847000216,0.0625
1588960245.152035,1.439722298539637,-2.1297222985396367,-9.431110805841453,-0.5422222222222223,0.03,0.6044444444444445,0.06134291058182049,-0.125,0.06307854470908976
1588960245.162035,1.413129530612676,-2.1031295306126765,-9.537481877549295,-0.5422222222222223,0.03,0.6044444444444445,-0.04946028911384916,-0.125,0.11848014455692457
1588960245.172035,1.4299353570178037,-2.1099676785089017,-9.470258571928786,-0.5422222222222223,0.03,0.6044444444444445,0.062095981361273464,-0.06270200931936326,0.000404018638726536
1588960245.182035,1.43,-2.1257920969660353,-9.446311854550947,-0.5422222222222223,0.03,0.6044444444444445,-0.0362006060377216,-0.1118503030188608,0.0987006060377216
1588960245.192035,1.4397249763182822,-2.120275023681718,-9.430275023681718,-0.5346583517524471,0.02243612953022489,0.610927761989966,-0.0017188980107357074,-0.24656220397852857,0.06421889801073571
1588960245.202035,1.43970975112703,-2.12058049774594,-9.48203174211079,-0.5344444444444445,0.022222222222222227,0.6111111111111112,0.05887188908787748,-0.12318594454393873,-0.06068594454393874
1588960245.212035,1.4332342678935341,-2.1335314642129317,-9.527360124745261,-0.5344444444444445,0.022222222222222227,0.6111111111111112,-0.02207165133082195,-0.08271417433458902,-0.020214174334589025
1588960245.222035,1.4221069253327316,-2.1321069253327316,-9.518427701330927,-0.5344444444444445,0.022222222222222227,0.6111111111111112,-0.013168283329573649,-0.1611634333408527,-0.04933171667042635
1588960245.232035,1.4147149422612642,-2.13,-9.494144826783792,-0.5344444444444445,0.022222222222222227,0.6111111111111112,0.0330316108670991,-0.1544683891329009,-0.0625
1588960245.242035,1.4171776320747607,-2.1264111839626194,-9.465644735850478,-0.5372357458068514,0.019829678197301984,0.605927265723784,-0.004790300700881753,-0.125,0.027220400934509004
1588960245.252035,1.4208534213905704,-2.12,-9.45829315721886,-0.5422222222222223,0.015555555555555557,0.5966666666666667,-0.06783388369106585,-0.125,-0.09833058154467067
1588960245.262035,1.4285067960748103,-2.12,-9.528054368598484,-0.5422222222222223,0.015555555555555557,0.5966666666666667,-0.009332524532434348,-0.28450242640269696,-0.07183252453243436
1588960245.272035,1.43,-2.1260568134607394,-9.515772746157042,-0.5422222222222223,0.015555555555555557,0.5966666666666667,-0.037855084129621935,-0.1989347476111342,0.01321016825924387
1588960245.2820349,1.43,-2.136270121711818,-9.481189634864547,-0.5422222222222223,0.015555555555555557,0.5966666666666667,-0.0625,-0.04662347860227718,0.02331173930113859
1588960245.2920349,1.4238027797504311,-2.1461972202495687,-9.451408339251293,-0.5374021620281132,0.027949996054693227,0.6097496871935342,-0.023767373440194785,-0.038732626559805215,0.0
1588960245.3020349,1.4361476893095768,-2.1419261553452116,-9.448073844654788,-0.5344444444444445,0.03555555555555556,0.6177777777777778,0.10092305818485522,0.038423058184855224,0.05046152909242761
1588960245.3120348,1.4330167254871873,-2.126033450974375,-9.512849470615313,-0.5344444444444445,0.03555555555555556,0.6177777777777778,-0.00593639711523708,-0.02479093141015805,0.0625
1588960245.3220348,1.43,-2.12,-9.504290822407627,-0.5344444444444445,0.03555555555555556,0.6177777777777778,-0.11829558998808104,-0.006704410011918953,-0.10488676996424315
1588960245.3320348,1.43,-2.12,-9.486124295806135,-0.5344444444444445,0.03555555555555556,0.6177777777777778,-0.16836157560583026,-0.043361575605830274,-0.03827684878833945
1588960245.3420348,1.4212318072629644,-2.128768192737035,-9.427390843577788,-0.5344444444444445,0.03068433736831363,0.6119323159530875,-0.023096386180584988,-0.0625,0.0
1588960245.3520348,1.4382806075155088,-2.1391403037577543,-9.447420911273262,-0.5344444444444445,0.03,0.6111111111111112,0.05712689848596487,-0.11962689848596486,-0.05712689848596487
1588960245.3620348,1.4212182691365285,-2.1306091345682643,-9.543908654317358,-0.5344444444444445,0.03,0.6111111111111112,0.0038070910516514733,0.05107872684504555,-0.0625
1588960245.3720348,1.42,-2.1216045363632494,-9.524813609089748,-0.5344444444444445,0.03,0.6111111111111112,-0.052471647729690624,-0.04244329545938125,-0.010028352270309376
1588960245.3820348,1.4249534203971144,-2.1249534203971145,-9.495232898014427,-0.5344444444444445,0.03,0.6111111111111112,-0.0005822450360685946,-0.0005822450360685946,0.0
1588960245.3920348,1.4271888762029032,-2.1271888762029034,-9.464377752405808,-0.5366308740644086,0.03,0.6092370285797133,0.04493047626814549,0.15034761865927254,0.0
1588960245.4020348,1.4280071795547358,-2.136014359109472,-9.425978461335792,-0.5422222222222223,0.03,0.6044444444444445,-0.05004487221709919,0.124775638914504,0.10008974443419838
1588960245.4120347,1.4227461600646725,-2.1327461600646727,-9.492538399353274,-0.5422222222222223,0.03,0.6044444444444445,-0.017163500404203717,0.10783649959579628,-0.011009498787388827
1588960245.4220347,1.42,-2.12479858385002,-9.4939929192501,-0.5422222222222223,0.03,0.6044444444444445,-0.032508850937373886,0.125,-0.029991149062626114
1588960245.4320347,1.42,-2.134650536802698,-9.465116487732434,-0.5422222222222223,0.03,0.6044444444444445,-0.03197804832771263,0.09447804832771263,-0.03052195167228737
1588960245.4420347,1.4257043423593336,-2.132886972921999,-9.46,-0.5422222222222223,0.025563289276073868,0.6120502342568892,0.0,0.20510855898334007,0.008804279491670036
1588960245.4520347,1.43,-2.12,-9.494167384384946,-0.5422222222222223,0.022222222222222227,0.6177777777777778,0.0,0.20572692379704174,0.0625
1588960245.4620347,1.43,-2.1328720039242883,-9.538616011772865,-0.5422222222222223,0.022222222222222227,0.6177777777777778,0.0,0.0668249632097972,0.0625
1588960245.4720347,1.4228118327708519,-2.14,-9.52405916385426,-0.5422222222222223,0.022222222222222227,0.6177777777777778,0.13477813554652524,0.044926045182175085,0.0625
