time,acc_x,acc_y,acc_z,mag_x,mag_y,mag_z,gyr_x,gyr_y,gyr_z
1588960274.8900795,2.69,-1.87,-9.47,-0.65,-0.12777777777777774,0.6044444444444445,0.4375,0.25,-3.0
1588960274.9000795,2.6026287774725274,-1.8726287774725277,-9.36671402815934,-0.65,-0.12777777777777774,0.6044444444444445,0.7203597184065934,1.7605463384271978,-5.855906056833791
1588960274.9100795,2.6386375343406594,-1.9086375343406592,-9.321703082074176,-0.65,-0.12777777777777774,0.6044444444444445,1.1704691792582418,3.6172478644402473,-8.162717043698489
1588960274.9200795,2.7719964277628235,-1.9449239012855022,-9.225228296143493,-0.65,-0.12777777777777774,0.5755555555555556,1.6269024678624437,4.7538049357248875,-12.71234371462353
1588960274.9300795,2.8780116385364876,-1.9438603375621502,-9.335790506343226,-0.65,-0.12777777777777774,0.5755555555555556,2.2251454817060936,5.788736594501795,-18.50624428663798
1588960274.9400795,2.836223100491307,-2.001864790877282,-9.465835493754419,-0.65,-0.12777777777777774,0.5755555555555556,2.1658591526314837,4.855781694737033,-23.309619690349717
1588960274.9500794,2.600498558712087,-1.7357241791910658,-9.366983266556682,-0.65,-0.12777777777777774,0.5755555555555556,2.451009808009572,4.285480383980856,-26.778952664116463
1588960274.9600794,2.742989046520499,-1.7720295725781547,-9.337380065757207,-0.65,-0.12777777777777774,0.5755555555555556,2.657749178034913,4.42412376705237,-26.783440582369074
1588960274.9700794,2.8090809338226945,-1.7299780544099286,-9.313632373529078,-0.6563651880720253,-0.11777533937888093,0.5582786165029155,2.6477023345567368,3.9487140073404214,-26.846690661773053
1588960274.9800794,2.87742802943445,-1.8493704529820099,-9.286771591169664,-0.6577777777777778,-0.11555555555555555,0.5544444444444444,2.5766074816034688,3.7157149632069375,-27.32464014717225
1588960274.9900794,3.0070238037129235,-1.7956844177608566,-9.377678527846928,-0.6577777777777778,-0.11555555555555555,0.5544444444444444,2.8264509200956702,4.0950521468898975,-31.504279136362896
1588960275.0000794,2.979726493223345,-1.2975085013260443,-9.172948699175086,-0.6577777777777778,-0.11555555555555555,0.5544444444444444,2.9544070630155708,4.393616480369666,-35.556223662159745
1588960275.0100794,3.368508469810923,-1.9929233148239263,-9.251812750404161,-0.6577777777777778,-0.11555555555555555,0.5544444444444444,3.7709241231461306,5.15232041189288,-41.80345030575666
1588960275.0200794,3.421666959973407,-1.9449991200797794,-9.378751099900276,-0.6516203133385042,-0.14194468886672792,0.571157562208187,2.7734278758725877,3.554672376371209,-44.190123873213274
1588960275.0300794,2.9137322406621915,-1.536704690524235,-9.104492031462339,-0.65,-0.14888888888888888,0.5755555555555556,3.708095684223531,4.340871185603097,-43.52564036568793
1588960275.0400794,3.1177711901624945,-1.6988298748353097,-9.559665678524375,-0.65,-0.14888888888888888,0.5755555555555556,2.6868034969257795,3.742686717720685,-40.62186573616601
1588960275.0500793,2.7188493062408123,-1.526822200294017,-9.48849306240812,-0.65,-0.14888888888888888,0.5755555555555556,2.6128428519644764,2.3871571480355236,-40.1775693759188
1588960275.0600793,2.7104027629538634,-1.797111585476368,-9.404027629538636,-0.65,-0.14888888888888888,0.5755555555555556,2.9823791207684716,2.0176208792315284,-41.02222370461365
1588960275.0700793,3.0764202973900385,-1.769813455339503,-9.173586773422064,-0.6577777777777778,-0.16666666666666666,0.5611111111111111,3.5389167619839865,3.3160419049599668,-40.65212514297598
1588960275.0800793,2.742320001930921,-1.644950399459342,-9.067071999227633,-0.6577777777777778,-0.16666666666666666,0.5611111111111111,3.4375,3.05808000048273,-40.46906000337911
1588960275.0900793,2.4790606741573034,-1.680994382022472,-9.158710861423222,-0.6577777777777778,-0.16666666666666666,0.5611111111111111,3.425414325842697,3.132942415730337,-39.5831015917603
1588960275.1000793,2.1020449438202244,-1.3275421348314607,-9.143001872659177,-0.6577777777777778,-0.16666666666666666,0.5611111111111111,3.2781425561797755,4.752931882022471,-33.74132139513109
1588960275.1100793,2.3909745717629534,-1.4344710430187608,-9.182113700039013,-0.6577777777777778,-0.16666666666666666,0.5611111111111111,3.024390892648154,6.416154644111076,-25.969531333120543
1588960275.1200793,2.5441944579056344,-1.5414194457905634,-9.278644433675492,-0.6615913574264163,-0.1819209852612205,0.548716977253036,2.4996007533371514,7.848784638089784,-15.663368981012379
1588960275.1300793,2.523257117979974,-1.5265142359599477,-9.296742882020027,-0.6622222222222223,-0.18444444444444444,0.5466666666666666,2.3110709621245102,8.06392903787549,-10.93677187636047
1588960275.1400793,2.6085767647507243,-1.5022846470498552,-9.397434441225796,-0.6622222222222223,-0.18444444444444444,0.5466666666666666,1.9731976101539868,8.014279044061595,-5.194406064186614
1588960275.1500793,2.8594423348161007,-1.5633817945101445,-9.388872735163286,-0.6622222222222223,-0.18444444444444444,0.5466666666666666,2.025530270152978,8.572196755994359,-2.0906070304871434
1588960275.1600792,3.1110448642266824,-1.6077699840266686,-9.308920063893327,-0.6622222222222223,-0.18444444444444444,0.5466666666666666,2.2290936002500175,7.924000798666574,0.6104048024168345
1588960275.1700792,3.1076507472447155,-1.602550249081572,-9.225502490815717,-0.6531169710996989,-0.19520519577106293,0.5524609173809997,1.6447077378777095,5.111965292069781,0.6262562270392953
1588960275.1800792,3.1099727495685348,-1.5899945499137071,-9.290038150604051,-0.65,-0.1988888888888889,0.5544444444444444,0.49967640112635114,1.4990462348987192,0.1248807793623399
1588960275.1900792,3.033775093105641,-1.5747550186211283,-9.396714869652103,-0.65,-0.1988888888888889,0.5544444444444444,-0.405170769370515,-1.1678717413025708,-0.20848396766282135
1588960275.2000792,3.018660381210445,-1.6,-9.482632096657449,-0.65,-0.1988888888888889,0.5544444444444444,-0.49581369128264136,-2.3166863087173586,-0.35825476513056553
1588960275.2100792,3.0030916278465507,-1.6,-9.39700395315603,-0.65,-0.1988888888888889,0.5544444444444444,-0.44716133702047106,-2.365338662979529,-0.16364534808188416
1588960275.2200792,2.9903360837190585,-1.6,-9.283360837190582,-0.6693278325618838,-0.18492989870530624,0.5608870552984057,-0.4978994767558865,-2.5561984302676595,-0.4269973837794325
1588960275.2300792,2.998996513834341,-1.617993027668682,-9.19903137549093,-0.67,-0.18444444444444444,0.5611111111111111,-0.3875435770707383,-2.112674308282953,-0.4375
1588960275.2400792,3.029815026443777,-1.6299383421479257,-9.199938342147925,-0.67,-0.18444444444444444,0.5611111111111111,-0.49922927684907115,-1.5034682541791797,-0.1890414463018577
1588960275.2500792,3.049347821045063,-1.6203260894774685,-9.151630447387342,-0.67,-0.18444444444444444,0.5611111111111111,-0.6209238815316465,-1.5,-0.06657611846835354
1588960275.2600791,3.0422469159414747,-1.596740747824424,-9.157753084058525,-0.67,-0.18444444444444444,0.5611111111111111,-0.6734567753657836,-1.1608025724395143,-0.0625
1588960275.2700791,3.0277223656657246,-1.5961388171671378,-9.21524935450424,-0.6652253644255597,-0.18853698922253623,0.5570185663330193,-0.6491323927053896,-0.9857647854107793,0.0526028218838311
1588960275.2800791,3.0019155306910412,-1.6060281564363197,-9.25,-0.6622222222222223,-0.19111111111111112,0.5544444444444444,-0.43662011136500933,-0.7114441336380112,0.31337988863499067
1588960275.290079,2.980884342181287,-1.6282313156374264,-9.414081840736838,-0.6622222222222223,-0.19111111111111112,0.5544444444444444,-0.19855427726608435,-0.16368997043129524,0.5514457227339157
1588960275.300079,2.986129600199433,-1.6177407996011344,-9.405481599202268,-0.6622222222222223,-0.19111111111111112,0.5544444444444444,-0.07256999626063382,-0.04837999750708921,0.6774300037393661
1588960275.310079,2.996012938611912,-1.61,-9.359935306940441,-0.6622222222222223,-0.19111111111111112,0.5544444444444444,0.0,-0.1879043316222488,0.7124191336755502
1588960275.320079,3.0238885311164454,-1.5980557344417774,-9.232501609975996,-0.6622222222222223,-0.18712968925837026,0.5418366085774317,0.0,-0.3498258298694456,0.7248258298694455
1588960275.330079,3.0324497607655503,-1.59,-9.137349282296652,-0.6622222222222223,-0.18444444444444444,0.5333333333333333,0.0,-0.280622009569378,0.891566985645933
1588960275.340079,3.036372400996853,-1.59,-9.136372400996853,-0.6622222222222223,-0.18444444444444444,0.5333333333333333,0.0796550124606625,-0.13051748130900626,0.9375
1588960275.350079,3.0148694029850747,-1.623507462686567,-9.240522388059702,-0.6622222222222223,-0.18444444444444444,0.5333333333333333,0.02028917910447761,-0.1148554104477612,0.8327891791044776
1588960275.360079,2.9565174280674005,-1.63,-9.267640367418942,-0.6622222222222223,-0.18444444444444444,0.5333333333333333,-0.09550459273678448,-0.02949540726321552,0.6692431108948234
1588960275.370079,2.969051925227672,-1.6493679501517813,-9.308735900303564,-0.6363982886865136,-0.1909004278283716,0.5462453001011875,-0.18552484422431698,0.18157453267295096,0.8670993768972679
1588960275.380079,2.9847282110297955,-1.6279076834553072,-9.295271788970204,-0.6355555555555555,-0.19111111111111112,0.5466666666666666,-0.14147434053189004,0.46365395680865984,1.2432052757448797
1588960275.390079,3.0159534529773606,-1.5940465470226395,-9.31595345297736,-0.6355555555555555,-0.19111111111111112,0.5466666666666666,0.037209081108504044,1.049127243325512,1.212790918891496
1588960275.400079,3.029104062998212,-1.5991040629982125,-9.274479685008938,-0.6355555555555555,-0.19111111111111112,0.5466666666666666,0.005599606261172035,0.9542988187835161,1.130599606261172
1588960275.410079,3.037001153613741,-1.5719953855450368,-9.241995385545037,-0.6355555555555555,-0.19111111111111112,0.5466666666666666,0.0,1.1125288403435205,1.125
1588960275.420079,3.056647782770072,-1.5766477827700724,-9.235549260923358,-0.6435711546670718,-0.1991267102226274,0.5546822657781829,0.06936576154196783,1.1181342384580322,1.125
1588960275.430079,3.0452866584691054,-1.6023566707654473,-9.260594451275745,-0.65,-0.20555555555555555,0.5611111111111111,0.15074306409468183,0.8822985513372272,0.9447985513372272
1588960275.440079,2.974070381851486,-1.6160078202057209,-9.313953078765675,-0.65,-0.20555555555555555,0.5611111111111111,0.21245112371424546,0.47529325771452724,0.5876955051430182
1588960275.450079,2.9244145662238146,-1.6011708675523708,-9.354414566223815,-0.65,-0.20555555555555555,0.5611111111111111,0.27759103889884174,0.1396358444046331,0.3547268833034748
1588960275.460079,2.9141070274790013,-1.59,-9.3520535137395,-0.65,-0.20555555555555555,0.5611111111111111,0.21316892174375737,-0.049665539128121314,0.324498308692182
1588960275.470079,2.775495002701242,-1.5371515397082658,-9.287151539708265,-0.6607654270964645,-0.19283277807791585,0.5679618374452248,0.007449520529443546,0.04015143841166935,0.7127523973527823
1588960275.480079,2.9012502298216583,-1.5613889399603686,-9.264305530019815,-0.6622222222222223,-0.19111111111111112,0.5688888888888889,0.24522609344037916,1.4357661232661234,3.153215715715716
1588960275.490079,3.067154701968102,-1.586585395908883,-9.26552846530296,-0.6622222222222223,-0.19111111111111112,0.5688888888888889,0.4507116325740239,2.1925819895785654,5.989333213040876
1588960275.500079,2.8730403916768665,-1.6607417380660954,-9.216007343941248,-0.6622222222222223,-0.19111111111111112,0.5688888888888889,0.14068237454100369,1.2345471236230112,6.062729498164015
1588960275.510079,2.7500869102518624,-1.6498261794962752,-9.156521816246896,-0.6622222222222223,-0.19111111111111112,0.5688888888888889,-0.18804318907413978,0.4157613515431004,5.20815227030862
1588960275.520079,2.8997798752408634,-1.6382223456024037,-9.246890492831248,-0.6521726887081732,-0.17558001386212627,0.5624937311981304,-0.3013896600150234,0.15833101995492996,7.500034700676051
1588960275.530079,2.763078289624118,-1.6464200657836876,-9.27,-0.65,-0.17222222222222222,0.5611111111111111,-0.3125,0.004623766555854572,8.682131989516824
1588960275.5400789,2.577616602481814,-1.5807124518613607,-9.385479246897733,-0.65,-0.17222222222222222,0.5611111111111111,-0.4087327057481101,-0.2549654114962202,11.323968585080587
1588960275.5500789,2.70112956456936,-1.52221760885766,-9.336878739486853,-0.65,-0.17222222222222222,0.5611111111111111,-0.6264119557117002,-0.5014119557117002,14.597539391035877
1588960275.5600789,2.84863488226534,-1.569180929359204,-9.270546047093864,-0.65,-0.17222222222222222,0.5611111111111111,-0.7285978676105583,-0.5214021323894417,18.766427276455225
1588960275.5700788,2.6762960274514977,-1.6172079978883462,-9.163960010558268,-0.6531866662756197,-0.17604622175296583,0.5451777797330126,-0.6424500131978356,-0.428300008798557,22.543449749241123
1588960275.5800788,2.7506715200200826,-1.5592142588176228,-9.085842851763525,-0.6555555555555556,-0.17888888888888888,0.5333333333333333,-1.1376341471068157,-1.1713395883017448,24.637634147106816
1588960275.5900788,2.811759398143808,-1.6523699259398144,-9.202369925939815,-0.6555555555555556,-0.17888888888888888,0.5333333333333333,-1.56620300928096,-1.78680451392144,29.12926695650136
1588960275.6000788,2.9194429886950664,-1.7377771954780266,-9.27981432956502,-0.6555555555555556,-0.17888888888888888,0.5333333333333333,-1.6747679119562775,-1.8252320880437225,33.07519933368271
1588960275.6100788,2.93677964111696,-1.7367796411169598,-9.197457487818719,-0.6555555555555556,-0.17888888888888888,0.5333333333333333,-1.5635591354714988,-1.4406774064144963,35.195976752832514
1588960275.6200788,3.0355084885445853,-1.7381160375803528,-9.271740563705292,-0.6555555555555556,-0.17347819716865373,0.5387440250535686,-1.5507252348772045,-1.7572523487720455,36.19112617438602
1588960275.6300788,2.9257642191070214,-1.7027122830852837,-9.270169826468226,-0.6555555555555556,-0.17222222222222222,0.54,-1.9353771691471624,-2.4809253998641387,35.504245661705674
1588960275.6400788,2.626100386100386,-1.6974676357029297,-9.342143992732227,-0.6555555555555556,-0.17222222222222222,0.54,-2.1558454462866226,-2.6875,36.0901090165796
1588960275.6500788,2.7422398283805856,-1.7233353648131444,-9.245544720996563,-0.6555555555555556,-0.17222222222222222,0.54,-1.895807939835694,-2.05550053631067,38.12515236098584
1588960275.6600788,2.895896012852344,-1.6293091865050386,-9.195615598072148,-0.6555555555555556,-0.17222222222222222,0.54,-1.2131499196728495,-0.6762998393456989,40.99243281729225
1588960275.6700788,2.9559093735426707,-1.549393750971553,-9.155505207523706,-0.6585493635248804,-0.1673232637269634,0.5416329861650863,-0.5165722641069486,0.25757811285558835,45.44553717161511
1588960275.6800787,2.8817825430738773,-1.8209345904306407,-9.159434698237842,-0.6677777777777778,-0.15222222222222226,0.5466666666666666,-1.9471450692906287,-2.9160304408334476,51.11209253778152
1588960275.6900787,2.933718174351754,-1.9553854276663147,-9.32833274668544,-0.6677777777777778,-0.15222222222222226,0.5466666666666666,-4.988773025929837,-6.485568461809223,49.557704153467085
1588960275.7000787,2.8551696551724137,-1.974177655172414,-9.379033931034483,-0.6677777777777778,-0.15222222222222226,0.5466666666666666,-5.903231034482759,-7.786227586206897,47.147355172413796
1588960275.7100787,2.664768301304711,-2.015313323478373,-9.364414165434797,-0.6677777777777778,-0.15222222222222226,0.5466666666666666,-5.490973873642265,-7.35694774728453,43.499317115495856
1588960275.7200787,2.555488811052734,-1.9196230784199262,-9.316089511578127,-0.6610692309355474,-0.13758539274826492,0.5545949492983935,-4.913059447363301,-6.475559447363301,40.757508756567425
1588960275.7300787,2.3174448754236994,-1.8765555439074675,-9.299666631722403,-0.6555555555555556,-0.12555555555555556,0.5611111111111111,-5.343054390746759,-7.028470839011776,40.53680504595171
1588960275.7400787,2.426228155151703,-1.855133878405084,-9.303783469601271,-0.6555555555555556,-0.12555555555555556,0.5611111111111111,-5.532086740031774,-7.282086740031774,42.086219339714035
1588960275.7500787,2.659563546949439,-1.9157845397264484,-9.27244198555402,-0.6555555555555556,-0.12555555555555556,0.5611111111111111,-5.480559397571846,-7.661153373290302,46.59754879360688
1588960275.7600787,2.6574070745697895,-2.0351858508604206,-9.247830592734225,-0.6555555555555556,-0.12555555555555556,0.5611111111111111,-6.070440965583174,-8.825734942638624,50.189499282982794
1588960275.7700787,2.4838544334576107,-2.1039186253849893,-9.274796563462473,-0.6640613821797158,-0.11241018713639885,0.5564715693161146,-6.915952747609013,-10.394405495218026,52.91635394715513
1588960275.7800786,2.355970112569434,-2.1019962640711793,-9.29,-0.6677777777777778,-0.10666666666666667,0.5544444444444444,-7.375116747775648,-10.76247665044487,53.21233655311409
1588960275.7900786,2.0192580974613366,-2.042430940569983,-9.454483026942905,-0.6677777777777778,-0.10666666666666667,0.5544444444444444,-7.23189621632137,-10.441594324482054,52.61099054080342
1588960275.8000786,2.147412246448699,-2.125050340882707,-9.497311564683285,-0.6677777777777778,-0.10666666666666667,0.5544444444444444,-6.593435369483083,-9.780935369483082,52.819880954893726
1588960275.8100786,2.3185122201453208,-2.1189532416061163,-9.438429862409174,-0.6677777777777778,-0.10666666666666667,0.5544444444444444,-6.2980373280114685,-9.38292043202676,53.707126719885316
1588960275.8200786,2.459986507947662,-2.0600056216884743,-9.35000843253271,-0.6677777777777778,-0.10666666666666667,0.5544444444444444,-6.187510540665889,-9.125024594887075,54.81239459334111
1588960275.8300786,2.2539538332826283,-2.1195383328262856,-9.165115416793428,-0.6677777777777778,-0.09333333333333334,0.5688888888888889,-6.181682812975358,-9.175865625950715,54.427354683221786
1588960275.8400786,2.2117701462575283,-2.0270497562374534,-9.231993834241468,-0.6677777777777778,-0.09333333333333334,0.5688888888888889,-6.34778731717809,-9.637461464009178,53.25
1588960275.8500786,2.1805820685338757,-2.2073544828665312,-9.396419769989047,-0.6677777777777778,-0.09333333333333334,0.5688888888888889,-6.547178160694727,-10.783068964168361,53.32076724104209
1588960275.8600786,2.3172319201995015,-2.211496259351621,-9.4527680798005,-0.6677777777777778,-0.09333333333333334,0.5688888888888889,-6.644950124688279,-11.449501246882793,52.73924563591022
1588960275.8700786,2.1516899786078656,-2.191028467994076,-9.442279085074873,-0.662655184392884,-0.07936262410180461,0.5744771725815003,-6.39935412209972,-11.482073802863255,49.075808375843344
1588960275.8800786,1.910209132383221,-2.1893726028503373,-9.40659695587226,-0.6555555555555556,-0.06,0.5822222222222222,-5.792538051596754,-10.349691146190803,42.32818492874157
1588960275.8900785,1.890450375865152,-2.2333110905056794,-9.409774812067424,-0.6555555555555556,-0.06,0.5822222222222222,-4.985925754213994,-8.884434919031692,37.235508701195485
1588960275.9000785,1.9149219678364888,-2.100936385962133,-9.326170482452666,-0.6555555555555556,-0.06,0.5822222222222222,-4.22118850510972,-7.383778618394993,34.23484413372415
1588960275.9100785,2.014236350011921,-2.1143971184304644,-9.245040192104636,-0.6555555555555556,-0.06,0.5822222222222222,-3.752512006539732,-6.3165192104635715,32.38153121700331
1588960275.9200785,1.950728767785884,-2.1949772260066913,-9.215113869966544,-0.6450480784303187,-0.050045547986617755,0.5789040715510948,-3.1575310371236247,-5.128131424079971,30.815916098996333
1588960275.9300785,1.6074877638273588,-2.15437194095684,-9.26984910332553,-0.6344444444444445,-0.04,0.5755555555555556,-2.910646921127469,-4.687028447892283,29.527796183087965
1588960275.9400785,1.8648455804046857,-2.1008945686900957,-9.400053248136315,-0.6344444444444445,-0.04,0.5755555555555556,-2.619076144834931,-3.760516506922258,28.80657614483493
1588960275.9500785,1.7695796545541205,-1.9855151047459088,-9.481793958101637,-0.6344444444444445,-0.04,0.5755555555555556,-2.524570746045076,-3.168535373022538,29.66984895254091
1588960275.9600785,1.872609433962264,-2.025362578616352,-9.5,-0.6344444444444445,-0.04,0.5755555555555556,-2.674819182389937,-3.524457547169811,29.647643474842766
1588960275.9700785,2.118579772735318,-2.1251028354986015,-9.482859924245107,-0.6344444444444445,-0.03972793530547787,0.5771879437226883,-2.9808400297355657,-4.656771036142873,29.644038284541047
1588960275.9800785,1.9857650382519125,-2.166683084154208,-9.455765038251913,-0.6344444444444445,-0.03888888888888889,0.5822222222222222,-3.5,-6.875,31.4375
1588960275.9900784,1.826323373068832,-2.2251021285258656,-9.490204257051731,-0.6344444444444445,-0.03888888888888889,0.5822222222222222,-3.404335090140017,-6.492340360560067,31.852047942726593
1588960276.0000784,1.6671769619324435,-2.1784691142026698,-9.431292152270226,-0.6344444444444445,-0.03888888888888889,0.5822222222222222,-3.348285337359257,-6.017643987922228,33.43091613285549
1588960276.0100784,1.7216636865427972,-2.166039804089248,-9.369584078364301,-0.6344444444444445,-0.03888888888888889,0.5822222222222222,-3.147151714219078,-5.351604407991915,34.60544779600404
1588960276.0200784,1.7832994137071232,-2.19,-9.36,-0.6322870913234145,-0.03414271202262307,0.5770445747317504,-2.719067996495721,-4.1086635442639885,34.923540445223175
1588960276.0300784,1.7976825531656706,-2.194463489366866,-9.355536510633133,-0.6288888888888889,-0.02666666666666667,0.5688888888888889,-2.3192063829141767,-2.748928723113794,35.33476170251494
1588960276.0400784,1.7106091243315509,-2.21187817513369,-9.409390875668448,-0.6288888888888889,-0.02666666666666667,0.5688888888888889,-2.546954378342246,-3.1056473512700533,35.40355322526738
1588960276.0500784,1.6131599858384802,-2.27104008496912,-9.502280004720507,-0.6288888888888889,-0.02666666666666667,0.5688888888888889,-2.9857499704968333,-4.125,35.16000059006333
1588960276.0600784,1.488738656987296,-2.3225470219435738,-9.482383270087444,-0.6288888888888889,-0.02666666666666667,0.5688888888888889,-2.9662674269922453,-3.779790876093054,36.90172052879063
1588960276.0700784,1.5305102671270217,-2.22,-9.392674904597492,-0.6320736164112505,-0.007558301532497428,0.5848125265006966,-3.2866254770125387,-3.9482509540250774,37.7050154461203
1588960276.0800784,1.7889393780974885,-2.1505303109512557,-9.356315426277158,-0.6344444444444445,0.006666666666666667,0.5966666666666667,-3.9736569707868927,-5.953856569289643,36.756628886890695
1588960276.0900784,1.8114608904933815,-2.0924382671480144,-9.45366257521059,-0.6344444444444445,0.006666666666666667,0.5966666666666667,-4.103652226233454,-7.131108604091456,35.006043922984354
1588960276.1000783,1.7756879847191218,-2.262015511011898,-9.463120152808782,-0.6344444444444445,0.006666666666666667,0.5966666666666667,-3.893350286516466,-6.992550859549398,34.40939923595609
1588960276.1100783,1.7299684443660452,-2.2908402422531897,-9.401806707042198,-0.6344444444444445,0.006666666666666667,0.5966666666666667,-3.442948736794653,-6.039324493835871,35.221967425177866
1588960276.1200783,1.6787830654937677,-2.1643915327468837,-9.371216934506233,-0.6227336904527542,0.013497939828485975,0.5966666666666667,-2.86276460165988,-4.611111326971496,36.45899451369245
1588960276.1300783,1.7691896433389345,-2.198282015478191,-9.388282015478191,-0.6077777777777778,0.022222222222222227,0.5966666666666667,-2.7582050386954773,-4.157820154781909,37.19570503869548
1588960276.1400783,1.7727224969097652,-2.2720704573547588,-9.46207045735476,-0.6077777777777778,0.022222222222222227,0.5966666666666667,-2.7474119283065512,-4.0821036773794805,36.241134888751546
1588960276.1500783,1.7485069403668647,-2.234479178899406,-9.462488432721893,-0.6077777777777778,0.022222222222222227,0.5966666666666667,-2.628110540902365,-3.3670790567677384,34.21379500669376
1588960276.1600783,1.7679593216173037,-2.0637423702429234,-9.357823727008316,-0.6077777777777778,0.022222222222222227,0.5966666666666667,-2.512330506738765,-2.925169493261235,31.570169442054812
1588960276.1700783,1.7360475833440008,-1.9686032222079988,-9.286976208328,-0.6051939969155558,0.025322759256888698,0.5951163981493335,-2.466567534699998,-3.0872026040999945,28.36200121610007
1588960276.1800783,1.6900263335954502,-2.0299648885393995,-9.309986833202275,-0.5966715432584168,0.03554970364545553,0.59000292595505,-2.562445138342812,-3.3748354150284365,24.81452988131595
1588960276.1900783,1.683455147615443,-1.9959869417108251,-9.420557910673732,-0.5966666666666667,0.03555555555555556,0.59,-2.3914967354277064,-3.013009793716881,22.15356855601817
1588960276.2000782,1.4509924437173793,-2.197819584014957,-9.454751889070655,-0.5966666666666667,0.03555555555555556,0.59,-2.4375,-2.9269737867102905,21.321146880112174
1588960276.2100782,1.3268000069568848,-2.2493599666069533,-9.469839991651739,-0.5966666666666667,0.03555555555555556,0.59,-2.3324999565194706,-3.270499982607788,22.837500217402646
1588960276.2200782,1.367358977366014,-2.101774363785622,-9.419697431687581,-0.5992831919523605,0.03866267933231696,0.592289459624982,-2.1433974434150347,-3.2242948868300694,23.920993608537586
1588960276.2300782,1.4916324875155265,-2.1751020304697204,-9.36,-0.6144444444444445,0.05666666666666665,0.6055555555555555,-2.568876904357525,-4.3622430226368225,24.05994923825699
1588960276.2400782,1.5543871071642203,-2.159182809552294,-9.417247273731192,-0.6144444444444445,0.05666666666666665,0.6055555555555555,-2.940053720149082,-5.835483481341738,23.28696279850918
1588960276.2500782,1.6014055433663188,-2.0880414633054225,-9.460552993328259,-0.6144444444444445,0.05666666666666665,0.6055555555555555,-2.852390520754041,-5.902649666412931,22.36275914565889
1588960276.2600782,1.5487517439010594,-2.078499302439576,-9.439607292334376,-0.6144444444444445,0.05666666666666665,0.6055555555555555,-2.5142882055729423,-4.682152822291769,21.545319039628975
1588960276.2700782,1.3673328129065834,-2.184199843871975,-9.405800156128025,-0.6115518836557088,0.05193338537600831,0.6021370746234134,-2.143125487900078,-3.3454169919333854,20.598750975800158
1588960276.2800782,1.4807314077887725,-2.19945776161349,-9.38617906147415,-0.6022222222222222,0.03666666666666667,0.5911111111111111,-2.245428701320171,-3.740857402640342,19.767102885955175
1588960276.2900782,1.3905341511344012,-2.1528243911153457,-9.448702435538618,-0.6022222222222222,0.03666666666666667,0.5911111111111111,-2.4055335556481867,-4.061067111296373,18.72614333353183
1588960276.3000782,1.3170427072467326,-2.1547864637663374,-9.5,-0.6022222222222222,0.03666666666666667,0.5911111111111111,-2.143483079707922,-3.518483079707922,18.032584601460393
1588960276.3100781,1.2985713139257269,-2.2395243063218504,-9.477142627851453,-0.6022222222222222,0.03666666666666667,0.5911111111111111,-2.2113097626547358,-3.752978101237887,17.64583166141685
1588960276.3200781,1.2735348823649457,-2.1906976472989124,-9.410906970642255,-0.5953979313852203,0.04313178430172103,0.5957803627364282,-2.0681685665140956,-3.5776161773709223,17.496220955657268
1588960276.3300781,1.147005308880309,-2.0239551158301157,-9.36807915057915,-0.5811111111111111,0.05666666666666665,0.6055555555555555,-1.800494691119691,-2.9297327461389964,18.06073540057915
1588960276.340078,1.0299131772397165,-2.1670684376340428,-9.415602656451064,-0.5811111111111111,0.05666666666666665,0.6055555555555555,-1.9552796225354612,-3.5527962253546126,18.650855470425537
1588960276.350078,1.0733394962209175,-2.204290996760786,-9.47143649514118,-0.5811111111111111,0.05666666666666665,0.6055555555555555,-1.994053121625819,-3.9405312162581905,19.11613745950983
1588960276.360078,1.2084481614230718,-2.208514536041418,-9.455742731979292,-0.5811111111111111,0.05666666666666665,0.6055555555555555,-2.1875,-4.5625,19.856846541882383
1588960276.370078,1.2989265564848003,-2.250273795300677,-9.434863102349661,-0.5811111111111111,0.05666666666666665,0.6055555555555555,-2.1875,-4.5625,20.074342683857694
1588960276.380078,1.3466821090204866,-2.2166821090204865,-9.438894036340162,-0.5877777777777777,0.08333333333333333,0.62,-2.3055877271260132,-4.861464998386148,19.75028954413412
1588960276.390078,1.322791585182935,-2.1927915851829347,-9.430930528394311,-0.5877777777777777,0.08333333333333333,0.62,-2.255815802464448,-4.313973827108925,19.30234222218003
1588960276.400078,1.5035813342096616,-2.2613256654617153,-9.564720999014131,-0.5877777777777777,0.08333333333333333,0.62,-2.4174416694051923,-4.60610417351298,18.265408314163654
1588960276.410078,1.5630426347070092,-2.1779512746205607,-9.482048725379439,-0.5877777777777777,0.08333333333333333,0.62,-2.5877284002161205,-5.006973267351048,16.669625534161796
1588960276.420078,1.50107401144906,-2.24785197710188,-9.400333896958461,-0.5870617701450712,0.08404934096603989,0.6168973002582716,-2.2030119991036323,-3.964350286226496,15.173622853301282
1588960276.430078,1.5096186362988164,-2.230762727402367,-9.323432273310653,-0.5813653535785669,0.08974575753254425,0.592212828470086,-1.829184661926783,-4.177965907470409,13.571505693971927
1588960276.440078,1.181066138118089,-2.2468443563530145,-9.390524514917589,-0.5811111111111111,0.09,0.5911111111111111,-1.3388326726476112,-2.7566098998539537,11.677665345295223
1588960276.450078,0.9576265720735246,-2.2052531441470493,-9.438987423411803,-0.5811111111111111,0.09,0.5911111111111111,-1.0328321509190583,-2.101660754595292,11.30300709448565
1588960276.460078,0.9845676303802176,-2.1746366087199034,-9.496159152179976,-0.5811111111111111,0.09,0.5911111111111111,-0.9375,-1.673010597750302,12.163063586501814
1588960276.470078,1.04,-2.161408605629246,-9.481443545778065,-0.5788927711276466,0.09063381142384701,0.5974492253495812,-0.9909778388870916,-1.6786962148172113,12.625
1588960276.480078,1.1081658958743532,-2.1945443930582904,-9.45545560694171,-0.5733333333333334,0.09222222222222222,0.6133333333333333,-1.125,-1.5568049132286277,12.596597543385686
1588960276.490078,1.2133102412868633,-2.2,-9.496620482573727,-0.5733333333333334,0.09222222222222222,0.6133333333333333,-1.1492815013404827,-1.6735630026809651,12.46537399463807
1588960276.500078,1.3075885253249664,-2.205235320484088,-9.533352756611386,-0.5733333333333334,0.09222222222222222,0.6133333333333333,-1.1875,-1.7663603765127744,11.98529246974451
1588960276.510078,1.47,-2.22204682880946,-9.42522406611126,-0.5733333333333334,0.09222222222222222,0.6133333333333333,-1.1832357733136254,-1.8167642266863746,10.955894332840634
1588960276.520078,1.47,-2.243181772373018,-9.375909197796291,-0.5733333333333334,0.09222222222222222,0.6133333333333333,-1.1392046408895458,-1.8607953591104542,9.855116022238645
1588960276.530078,1.415655944055944,-2.226741958041958,-9.41543006993007,-0.5955555555555555,0.09777777777777777,0.6266666666666667,-1.0,-2.3192875874125876,7.303159965034965
1588960276.540078,1.4136061737337715,-2.1877795731877194,-9.493606173733772,-0.5955555555555555,0.09777777777777777,0.6266666666666667,-0.9427167493174347,-2.336811166211623,5.133761910068535
1588960276.550078,1.4824458461283094,-2.162832807701884,-9.563390115362271,-0.5955555555555555,0.09777777777777777,0.6266666666666667,-0.8065983172877417,-2.267705048136775,3.6743427877832184
1588960276.560078,1.412825130716242,-2.1889405759814093,-9.502471989376712,-0.5955555555555555,0.09777777777777777,0.6266666666666667,-0.752207133372064,-2.430878599883808,1.8250425346501782
1588960276.570078,1.0958916059708106,-2.202054197014595,-9.394522141294415,-0.5940339281373372,0.09739737092322319,0.6257536902157357,-0.38186549752139354,-2.201230995042787,0.0625
1588960276.580078,1.061044614915949,-2.2194776925420254,-9.348059486554599,-0.5811276351540552,0.09417079767740268,0.6180099144257664,0.09002083967985819,-1.2574583206402836,0.0625
1588960276.5900779,1.0371471502412721,-2.2271471502412723,-9.342822798069824,-0.5733333333333334,0.09222222222222222,0.6133333333333333,0.375,-0.5270272010715573,0.08033031099204918
1588960276.6000779,1.03,-2.220237841022054,-9.399762158977946,-0.5733333333333334,0.09222222222222222,0.6133333333333333,0.37574325319391777,-0.11979722764257575,0.1235134936121645
1588960276.6100779,1.0325388261395725,-2.2298446954417104,-9.407927087535297,-0.5733333333333334,0.09222222222222222,0.6133333333333333,0.45336766337232753,0.3442353267446551,0.0
1588960276.6200778,1.0395885437676482,-2.201645824929407,-9.48547398144413,-0.5733333333333334,0.09222222222222222,0.6133333333333333,0.4974283985478015,0.43235679709560304,0.0
1588960276.6300778,1.0516272800790727,-2.187093179980232,-9.58453410009884,-0.5733333333333334,0.10444444444444444,0.6266666666666667,0.38299712462934676,0.4273294995057957,0.04433237487644892
1588960276.6400778,1.0997161535718531,-2.167677404017592,-9.629858076785926,-0.5733333333333334,0.10444444444444444,0.6266666666666667,0.21919351004397955,0.11137079519790802,-0.04620973493403067
1588960276.6500778,1.163906875643519,-2.1260931243564807,-9.636558746138885,-0.5733333333333334,0.10444444444444444,0.6266666666666667,0.11279101361400297,-0.3613359455439881,-0.2851718910879762
1588960276.6600778,1.1799016130877473,-2.1100983869122523,-9.540590321473514,-0.5733333333333334,0.10444444444444444,0.6266666666666667,0.06280745910078939,-0.5612701635968425,-0.6850403271936849
1588960276.6700778,1.0409456850832097,-2.234024139963018,-9.423963790055472,-0.5733333333333334,0.10377375445060812,0.6245428150195184,-0.0625,-0.9127263121532928,-1.3187877186922154
1588960276.6800778,0.9642409525938268,-2.2681151321805215,-9.372827301729217,-0.5733333333333334,0.09809192241435753,0.6065503469047248,-0.0625,-1.2323293641923883,-1.3720548940320647
1588960276.6900778,0.9751224747474747,-2.245679292929293,-9.384565656565655,-0.5733333333333334,0.09777777777777777,0.6055555555555555,-0.3260022095959596,-1.2635022095959596,-0.7939867424242424
1588960276.7000778,1.03,-2.229158712501794,-9.511682574996412,-0.5733333333333334,0.09777777777777777,0.6055555555555555,-0.3907741405913593,-1.3387902343189322,-0.4842258594086407
1588960276.7100778,1.03,-2.2216334146691548,-9.526733170661691,-0.5733333333333334,0.09777777777777777,0.6055555555555555,-0.5318734749533516,-1.573955791588919,-0.3431265250466485
1588960276.7200778,1.0435452590750032,-2.208818246974999,-9.529409123487499,-0.5741868216291675,0.09817169545277812,0.60680296152639,-0.6102280871874868,-2.0917631961718453,-0.3676140435937434
1588960276.7300777,1.0965951347021377,-2.1911349550992876,-9.520567477549644,-0.5869580879838479,0.10406612607801527,0.6254686585063077,-0.38918693874109367,-1.5944206121674607,-0.25709346937054683
1588960276.7400777,1.1290817315046144,-2.194540865752307,-9.52,-0.5877777777777777,0.10444444444444444,0.6266666666666667,-0.5652118492836384,-2.53046130117779,-0.5851412328557589
1588960276.7500777,1.157595472390761,-2.208797736195381,-9.52,-0.5877777777777777,0.10444444444444444,0.6266666666666667,-0.9661863304950798,-4.980860908581043,-0.8524575536633865
1588960276.7600777,1.0028698778385121,-2.234860963351554,-9.388286987783852,-0.5877777777777777,0.10444444444444444,0.6266666666666667,-1.0303810209472102,-9.5711897905279,-1.6678253054037198
1588960276.7700777,0.9259356542793207,-2.211780696283796,-9.380593565427933,-0.5877777777777777,0.10444444444444444,0.6266666666666667,-0.8861293517737261,-11.013706482262739,-1.8601608643016985
1588960276.7800777,0.8847033169790749,-2.2076483415104624,-9.435868243384911,-0.5611111111111111,0.08444444444444445,0.6266666666666667,-0.625,-9.158513125340713,-1.3824170755231266
1588960276.7900777,0.9,-2.1986068979581432,-9.538110326544137,-0.5611111111111111,0.08444444444444445,0.6266666666666667,-0.6162931122383951,-6.198362499681358,-0.9390517856687655
1588960276.8000777,0.9075121122362289,-2.1918780280590573,-9.65,-0.5611111111111111,0.08444444444444445,0.6266666666666667,-0.4920739477853551,-3.1399436867121304,-0.46859859704714013
1588960276.8100777,0.9452060926575158,-2.2,-9.640889337849348,-0.5611111111111111,0.08444444444444445,0.6266666666666667,-0.1875,-1.0928679660110523,-0.03809644066789471
1588960276.8200777,0.9784368253213699,-2.2,-9.582735555687602,-0.5611111111111111,0.08444444444444445,0.6266666666666667,-0.1875,0.30905356824529084,0.1176726186939212
1588960276.8300776,0.9883584274362192,-2.2167168548724385,-9.37103931409452,-0.5676121102281705,0.07887215948696501,0.6090210976346484,-0.3964606859054789,0.47948034295273945,0.22948034295273945
1588960276.8400776,0.9711837152935149,-2.228816284706485,-9.31183715293515,-0.5688888888888889,0.07777777777777778,0.6055555555555555,-0.41199110292234026,-0.3272964411689361,-0.06989822058446804
1588960276.8500776,0.979448834413857,-2.2205511655861434,-9.394488344138571,-0.5688888888888889,0.07777777777777778,0.6055555555555555,-0.6702760754330306,-0.4306104301732122,-0.1215552150866061
1588960276.8600776,0.972905505817536,-2.227094494182464,-9.421283482547391,-0.5688888888888889,0.07777777777777778,0.6055555555555555,-0.5544782340787995,-0.6148623545616007,-0.125
1588960276.8700776,0.9698015677246067,-2.1798015677246068,-9.50029764841309,-0.5686243125216979,0.07804235414496885,0.6056988677544507,-0.49875979827879185,-1.5055809077454365,-0.18812010086060407
1588960276.8800776,0.9544740448391164,-2.1644740448391167,-9.523288932741325,-0.5481876153410441,0.09847905132562261,0.6167687453939715,-0.40296278024447735,-1.936667488899852,-0.23601860987776133
1588960276.8900776,0.9496959790781301,-2.1802026806145802,-9.54060804184374,-0.5422222222222223,0.10444444444444444,0.62,-0.3125,-2.373099869238313,-0.25063337692056226
1588960276.9000776,0.9268437397842433,-2.1954375068105048,-9.586312520431512,-0.5422222222222223,0.10444444444444444,0.62,-0.3125,-2.23027337365152,-0.29824220878282665
1588960276.9100776,0.870739925791699,-2.210739925791699,-9.457410259729054,-0.5422222222222223,0.10444444444444444,0.62,-0.36806319570282164,-1.3588828846319787,-0.29400185520752437
1588960276.9200776,0.8888359651393563,-2.228835965139356,-9.394074122012254,-0.5422222222222223,0.10444444444444444,0.62,-0.1984128268185348,0.5638212960566054,0.15839912848390714
1588960276.9300776,0.9328756732277734,-2.2185621633861135,-9.317124326772227,-0.5688888888888889,0.09222222222222222,0.6266666666666667,-0.3304729576735836,2.3570270423264166,0.4820270423264164
1588960276.9400775,0.9464430930469521,-2.211778453476524,-9.303556906953048,-0.5688888888888889,0.09222222222222222,0.6266666666666667,-0.41526933154345047,2.2722306684565496,0.39723066845654953
1588960276.9500775,0.981877809610323,-2.1990610951948386,-9.531877809610323,-0.5688888888888889,0.09222222222222222,0.6266666666666667,-0.30663184496774043,2.2030547597419234,0.3573955349032213
1588960276.9600775,0.9995071472561667,-2.1885214417685,-9.5514785582315,-0.5688888888888889,0.09222222222222222,0.6266666666666667,-0.2438393407020842,1.6914737366698,0.1905803296489579
1588960276.9700775,0.9927094745713267,-2.16812842371398,-9.57187157628602,-0.5688888888888889,0.09222222222222222,0.6266666666666667,-0.15886843214158375,0.8842501053450456,0.23306578392920813
1588960276.9800775,0.99,-2.178195260936993,-9.543609478126013,-0.5729322802082206,0.08514628741339168,0.6398076884544948,0.04558057128430773,0.22133885743138454,0.022559238287589684
1588960276.9900775,0.9861551113360324,-2.208718370445344,-9.471281629554657,-0.5733333333333334,0.08444444444444445,0.6411111111111111,0.10897963056680163,-1.2002546179149798,-0.14903055414979757
1588960277.0000775,0.96,-2.204274704572701,-9.46005137866073,-0.5733333333333334,0.08444444444444445,0.6411111111111111,-0.02671690357938003,-2.67827324884398,-0.32140563452646004
1588960277.0100775,0.96,-2.228218873094708,-9.34831192555803,-0.5733333333333334,0.08444444444444445,0.6411111111111111,-0.176367956841925,-3.3267611463150084,-0.3712893189473083
1588960277.0200775,0.9691048311444652,-2.193580675422139,-9.330895168855534,-0.5733333333333334,0.08444444444444445,0.6411111111111111,0.04012077861163227,-3.7164311679174484,-0.4888103893058161
1588960277.0300775,0.9441807469610267,-2.1964548132597432,-9.362274066298717,-0.5783537436464671,0.07583802676478665,0.6231810742784907,0.0625,-4.113083245860563,-0.5403425828733959
1588960277.0400774,0.8962005149662053,-2.1662005149662056,-9.557447296427423,-0.5811111111111111,0.07111111111111111,0.6133333333333333,0.0625,-3.4675128741551333,-0.45687660926939166
1588960277.0500774,0.8966378544168133,-2.17991356325044,-9.643102835334506,-0.5811111111111111,0.07111111111111111,0.6133333333333333,0.14547318021016678,-1.6945229859017479,-0.18858045936949966
1588960277.0600774,0.9322684047440966,-2.165798696441928,-9.629664494069878,-0.5811111111111111,0.07111111111111111,0.6133333333333333,-0.06459691206325463,0.3350651779036222,0.08875814723795278
1588960277.0700774,0.94,-2.1680864539274087,-9.54722191465332,-0.5811111111111111,0.07111111111111111,0.6133333333333333,0.07716134818522047,0.7260806740926102,0.07445966295369488
1588960277.0800774,0.9208444525680863,-2.2083110948638276,-9.397466642295742,-0.5611111111111111,0.09222222222222222,0.62,0.005277828550539206,-0.015833485651617622,0.010555657101078413
1588960277.0900774,0.9278139279839153,-2.1943721440321697,-9.376558216048254,-0.5611111111111111,0.09222222222222222,0.62,0.04883704989946993,-0.1465111496984098,0.09767409979893986
1588960277.1000774,0.9695049718590977,-2.1895049718590975,-9.429504971859098,-0.5611111111111111,0.09222222222222222,0.62,0.12809392588063942,0.08787288943232698,0.05631214823872116
1588960277.1100774,0.9619630302267456,-2.1819630302267456,-9.421963030226745,-0.5611111111111111,0.09222222222222222,0.62,0.17523106108284034,-0.4777727329940842,-0.03796212216568068
1588960277.1200774,0.9088216858195415,-2.1714702809699236,-9.462648595150382,-0.5611111111111111,0.09222222222222222,0.62,0.1341892560620223,-1.1581074393797768,-0.11581074393797768
1588960277.1300774,0.9086351730810072,-2.161364826918993,-9.521811038486042,-0.5553543290571064,0.08550597649255004,0.62,0.125,-0.980150841218528,-0.017060336487411218
1588960277.1400774,0.9276177611526739,-2.170794079615775,-9.566352636926203,-0.5544444444444444,0.08444444444444445,0.62,0.4801480096056156,0.1349259951971922,0.0575370024014039
1588960277.1500773,0.9017058375999836,-2.1795735406000043,-9.634029568400058,-0.5544444444444444,0.08444444444444445,0.62,0.24466925750005142,0.2579961137499229,0.0026653712499742975
1588960277.1600773,0.9362034009828717,-2.170949149754282,-9.513288096559949,-0.5544444444444444,0.08444444444444445,0.62,0.1368643719285259,0.41970344210721117,0.05656781403573705
1588960277.1700773,0.9317843465246292,-2.178215653475371,-9.426059118721662,-0.5544444444444444,0.08444444444444445,0.62,0.125,-0.12732617643174715,0.0625
1588960277.1800773,0.9323289496552923,-2.2,-9.352911187069115,-0.5688888888888889,0.09777777777777777,0.6344444444444445,-0.12136101616360581,-0.5813321939632698,-0.11772203232721164
1588960277.1900773,0.9647279995365274,-2.2,-9.39340999942066,-0.5688888888888889,0.09777777777777777,0.6344444444444445,-0.0707375007241759,0.026149991309889375,-0.016475001448351775
1588960277.2000773,0.9607325697999684,-2.1629302791998737,-9.520476592600412,-0.5688888888888889,0.09777777777777777,0.6344444444444445,-0.12042143875019792,0.009157122499604167,0.057921438750197916
1588960277.2100773,0.9442907851198235,-2.167854607440088,-9.545709214880176,-0.5688888888888889,0.09777777777777777,0.6344444444444445,-0.125,-0.44182166850496335,-0.03568259300110298
1588960277.2200773,0.9236781068797993,-2.1645593689599334,-9.5663218931202,-0.5688888888888889,0.09777777777777777,0.6344444444444445,-0.09099605599958209,-0.596503944000418,-0.0625
1588960277.2300773,0.8918263242869224,-2.1721157838087186,-9.555768432382562,-0.5715812852908263,0.09777777777777777,0.6344444444444445,-0.0625,-1.0036182440224495,-0.10036182440224495
1588960277.2400773,0.8996587877659905,-2.18,-9.520341212234008,-0.5733333333333334,0.09777777777777777,0.6344444444444445,0.06036742353744029,-1.2909558078458134,-0.20691161569162686
1588960277.2500772,0.9190597555292684,-2.18,-9.519059755529268,-0.5733333333333334,0.09777777777777777,0.6344444444444445,-0.10149388823170952,-1.5389938882317096,-0.3632469441158548
1588960277.2600772,0.9267782585460878,-2.200334775638263,-9.384434829078247,-0.5733333333333334,0.09777777777777777,0.6344444444444445,-0.125,-1.435407652260856,-0.332635884086952
1588960277.2700772,0.9228642445071806,-2.195728489014361,-9.305728489014362,-0.5733333333333334,0.09777777777777777,0.6344444444444445,-0.08040152816987847,-1.107409169019271,-0.13410611267951392
1588960277.2800772,0.9270356865452662,-2.19,-9.356285492362131,-0.5702063615354372,0.08370640468724529,0.6305357296970744,-0.01852695909208596,-0.34040438638128934,0.02544608181582808
1588960277.2900772,0.91,-2.1899003525700502,-9.560332158099833,-0.5688888888888889,0.07777777777777778,0.6288888888888889,-0.00020759881239562072,0.18480121543885694,-0.00020759881239562072
1588960277.3000772,0.91,-2.166551122657265,-9.638162924475784,-0.5688888888888889,0.07777777777777778,0.6288888888888889,-0.04885182779736501,-0.447573761365745,-0.04885182779736501
1588960277.3100772,0.91,-2.151680452164323,-9.643360904328647,-0.5688888888888889,0.07777777777777778,0.6288888888888889,-0.11449717397298043,-1.092974565756824,-0.21849152191894128
1588960277.3200772,0.91,-2.1721982785311784,-9.595603442937643,-0.5688888888888889,0.07777777777777778,0.6288888888888889,-0.03250717278675666,-1.46497848163973,-0.25
1588960277.3300772,0.8925944455387039,-2.208702777230648,-9.396756943076621,-0.5688888888888889,0.09222222222222222,0.6411111111111111,0.2540538211542249,-1.7135156096119757,-0.24594617884577508
1588960277.3400772,0.9256399448493206,-2.19218002757534,-9.35545006893835,-0.5688888888888889,0.09222222222222222,0.6411111111111111,0.3056874138270632,-1.248813275556431,-0.19431258617293679
1588960277.3500772,0.9390407727453317,-2.1719184545093366,-9.422326181962653,-0.5688888888888889,0.09222222222222222,0.6411111111111111,0.1429855110250298,-0.6789565330750894,-0.1309951703416766
1588960277.3600771,0.8854965546854233,-2.2245034453145767,-9.437786206473511,-0.5688888888888889,0.09222222222222222,0.6411111111111111,0.07633620954055656,-0.3330172572433394,-0.31965516183777376
1588960277.3700771,0.8794646550675265,-2.216338362331184,-9.45419698260129,-0.5688888888888889,0.09222222222222222,0.6411111111111111,0.0625,-0.1908459058279596,-0.4341540941720404
1588960277.3800771,0.8929744362126516,-2.181076691362045,-9.48784661727591,-0.5665754385012709,0.09222222222222222,0.6368147032483921,0.025319547341854598,-0.310902263290727,-0.5
1588960277.390077,0.9,-2.1723518815052043,-9.53,-0.5611111111111111,0.09222222222222222,0.6266666666666667,-0.21689851881505204,-1.2517951861489192,-0.5
1588960277.400077,0.926120056174271,-2.1712933146085764,-9.582240112348542,-0.5611111111111111,0.09222222222222222,0.6266666666666667,-0.14924964891080703,-1.9978342695711813,-0.663250351089193
1588960277.410077,0.9422731678945327,-2.182273167894533,-9.516360992632803,-0.5611111111111111,0.09222222222222222,0.6266666666666667,-0.125,-2.1392072993408298,-0.6107927006591702
1588960277.420077,0.9247620380739082,-2.19,-9.42583356662934,-0.5611111111111111,0.09222222222222222,0.6266666666666667,-0.125,-2.7001461016237402,-0.7596715775475924
1588960277.430077,0.8635533595668511,-2.19,-9.344264031480222,-0.5611111111111111,0.09222222222222222,0.6400845850140208,-0.06694169945856386,-3.5805830054143613,-0.9911166010828723
1588960277.440077,0.8214055293916692,-2.1803513823479177,-9.407540323564579,-0.5611111111111111,0.09222222222222222,0.6411111111111111,-0.18310772065103342,-2.6601382347917326,-0.6984806983724166
1588960277.450077,0.8465715410352292,-2.18,-9.551714885521223,-0.5611111111111111,0.09222222222222222,0.6411111111111111,-0.24285737715672767,-0.9642786852981695,-0.4660704913730893
1588960277.460077,0.8413726826288211,-2.188627317371179,-9.595881952113537,-0.5611111111111111,0.09222222222222222,0.6411111111111111,-0.034317065720529144,0.4362561385370898,0.04778660212880942
1588960277.470077,0.8703952109924898,-2.1596047890075103,-9.557446704610514,-0.5611111111111111,0.09222222222222222,0.6411111111111111,0.0,0.6629940137406123,0.08700598625938774
1588960277.480077,0.89,-2.177363825696892,-9.477690644024351,-0.5561292676848588,0.10135560183701804,0.6253352735946456,0.09340956424223006,0.8276143463633451,0.2493191284844601
1588960277.490077,0.9072895994565613,-2.1986447997282808,-9.390841602173756,-0.5544444444444444,0.10444444444444444,0.62,0.17902999830175403,1.037089994905262,0.09638000679298381
1588960277.500077,0.9017469865843416,-2.2,-9.446024107325268,-0.5544444444444444,0.10444444444444444,0.62,0.39382533539146025,1.010918666152135,0.0625
1588960277.510077,0.9071368732546993,-2.1857262534906017,-9.424315633726504,-0.5544444444444444,0.10444444444444444,0.62,0.25907816863251787,1.0446054578418706,0.15171091568374107
1588960277.520077,0.9225529642157736,-2.18,-9.435105928431547,-0.5544444444444444,0.10444444444444444,0.62,0.14827198682570766,0.7879039077799537,0.10904397365141534
1588960277.530077,0.93,-2.162971293481932,-9.472704942024091,-0.5475068232704167,0.10066028744042928,0.6370287065180682,0.125,0.5185705842620736,-0.07940588765056852
1588960277.540077,0.9546370373580654,-2.1352177775851606,-9.549128889659357,-0.5422222222222223,0.09777777777777777,0.65,0.06340740660483661,0.22192592311692813,-0.34148148348790847
1588960277.550077,1.0019709961670684,-2.12,-9.639294661556091,-0.5422222222222223,0.09777777777777777,0.65,-0.0457729086813925,-0.7781394475836726,-0.8204103607697475
1588960277.560077,0.9830922834452894,-2.146907716554711,-9.617710740134347,-0.5422222222222223,0.09777777777777777,0.65,-0.0625,-1.4661157483206586,-1.2402118112404938
1588960277.570077,0.9106240696209779,-2.1924436047177376,-9.55409023245162,-0.5422222222222223,0.09777777777777777,0.65,-0.03444549410282835,-1.7563909882056568,-1.8085995648688882
1588960277.580077,0.8057358053302434,-2.22,-9.332943221320974,-0.5589442513196858,0.07417020728724089,0.6421308098364876,-0.055330243337195835,-1.355518539976825,-2.0768395133256083
1588960277.590077,0.8247819629789066,-2.203478691347396,-9.334781962978907,-0.5611111111111111,0.07111111111111111,0.6411111111111111,-0.0625,-1.0027254627636677,-1.6494672836848903
1588960277.600077,0.83,-2.1917702814368347,-9.44698634132115,-0.5611111111111111,0.07111111111111111,0.6411111111111111,0.04037148203956642,0.0912148203956642,-1.1510140718417343
1588960277.610077,0.796519513137558,-2.1983701217156106,-9.511850608578053,-0.5611111111111111,0.07111111111111111,0.6411111111111111,-0.042126521445131376,1.0448856501159196,-0.7486204356646059
1588960277.620077,0.8570809110835795,-2.1932919088916423,-9.58037281997522,-0.5611111111111111,0.07111111111111111,0.6411111111111111,-0.020574430572762793,1.606755694272372,-0.31016987515486516
1588960277.630077,0.9637358039450089,-2.1981928671050013,-9.593614265789999,-0.5492769697372207,0.07111111111111111,0.6356491997077771,0.15361625821876868,3.5022788404064555,0.2846433552500498
1588960277.6400769,0.9669578732983171,-2.1673946832457927,-9.570436809947475,-0.5466666666666666,0.07111111111111111,0.6344444444444445,0.14674335405724087,3.630460124343445,0.41575664594275913
1588960277.6500769,1.0062377392139379,-2.1808251594759587,-9.490643391179093,-0.5466666666666666,0.07111111111111111,0.6344444444444445,-0.06765724672474108,1.477098909390219,0.10034981823170314
1588960277.6600769,0.9430445538551091,-2.2413036307632606,-9.43579757949116,-0.5466666666666666,0.07111111111111111,0.6344444444444445,-0.33876512818025273,-3.0796548713346756,-0.7481779486308845
1588960277.6700768,0.8258263337774432,-2.222220355673985,-9.416110177836993,-0.5466666666666666,0.07111111111111111,0.6344444444444445,-0.6354341655563923,-7.179049846492498,-1.3958683311127846
1588960277.6800768,0.7580703116801344,-2.2045175779200337,-9.366140623360268,-0.5545857207821737,0.06806532106668532,0.6313986544000187,-0.75,-6.460266030013642,-1.1452880680029385
1588960277.6900768,0.7814671153790362,-2.188152252748847,-9.407010357132496,-0.5611111111111111,0.06555555555555556,0.6288888888888889,-0.75,-4.625,-0.75
1588960277.7000768,0.8606002021406173,-2.194457200611605,-9.525057402752223,-0.5611111111111111,0.06555555555555556,0.6288888888888889,-0.34339123279861095,-1.191414854743826,-0.2078549770648146
1588960277.7100768,0.91020832326357,-2.1848958383682153,-9.527343757552323,-0.5611111111111111,0.06555555555555556,0.6288888888888889,0.04850252549664072,1.3522131325825317,0.1888020203973126
1588960277.7200768,0.8818940770167488,-2.1736490128361248,-9.52,-0.5611111111111111,0.06555555555555556,0.6288888888888889,0.125,0.8370455951929412,0.09122532090312019
1588960277.7300768,0.8940058630798413,-2.1768011726159684,-9.47239179168822,-0.5611111111111111,0.08369201586480428,0.6273775171964515,0.03998534230039662,0.3125,-0.04250732884980169
1588960277.7400768,0.9290156751419403,-2.173661441619353,-9.418307208096767,-0.5611111111111111,0.09222222222222222,0.6266666666666667,-0.07923197975808442,-0.6778997469760553,-0.14173197975808444
1588960277.7500768,0.926303089898264,-2.1928281835028933,-9.454787640406943,-0.5611111111111111,0.09222222222222222,0.6266666666666667,-0.15353522937861655,-2.220197798872962,-0.3301761468930827
1588960277.7600768,1.0468790944522763,-2.198099344887636,-9.498099344887637,-0.5611111111111111,0.09222222222222222,0.6266666666666667,-0.08484067916079277,-3.375,-0.7053186416784145
1588960277.7700768,1.1293500592651127,-2.18,-9.492259976293955,-0.5611111111111111,0.09222222222222222,0.6266666666666667,-0.0766248518372185,-1.8425029632556302,-1.6029360924535756
1588960277.7800767,0.7977957878487154,-2.163568199360459,-9.5,-0.549243699538109,0.08035481064922018,0.6166250107202803,0.1317468849928327,0.6654813099569963,-2.627343146984232
1588960277.7900767,0.6917270429654592,-2.1627337826453243,-9.521870261162595,-0.5466666666666666,0.07777777777777778,0.6144444444444445,0.27293070766638583,1.2733782645324347,-2.4082771693344567
1588960277.8000767,0.6682487725040916,-2.1752165848336062,-9.590433169667213,-0.5466666666666666,0.07777777777777778,0.6144444444444445,0.46739634478996184,3.1085242771412984,-0.6197013093289689
1588960277.8100767,0.8218876063615463,-2.18,-9.531760328032044,-0.5466666666666666,0.07777777777777778,0.6144444444444445,0.6080991799198882,5.830991799198881,0.7419473347396364
1588960277.8200767,0.8983170376999665,-2.1863861729499945,-9.44252444345005,-0.5466666666666666,0.07777777777777778,0.6144444444444445,0.6076728381250699,6.425432095312675,1.0
1588960277.8300767,0.8853384044726373,-2.19,-9.38227072357811,-0.5435856359531234,0.0823993238480928,0.6329306287257045,0.38919202236318673,5.749249072680357,0.9133460111815934
1588960277.8400767,0.8996941107815007,-2.212270583086126,-9.392270583086125,-0.5422222222222223,0.08444444444444445,0.6411111111111111,0.3588970480960949,5.778382288576569,0.9677940961921898
1588960277.8500767,0.9310811719608151,-2.198918828039185,-9.512432917124347,-0.5422222222222223,0.08444444444444445,0.6411111111111111,0.24324267524490575,5.831080891748302,0.9560808917483019
1588960277.8600767,0.9761850571522293,-2.1755259771391082,-9.531051954278217,-0.5422222222222223,0.08444444444444445,0.6411111111111111,-0.03865660720143324,4.681716963992834,0.7565747142388535
1588960277.8700767,0.9722586246374599,-2.1759137917875133,-9.549568958937567,-0.5422222222222223,0.08444444444444445,0.6411111111111111,-0.01411640398412456,2.328017669058159,0.3178880132804152
1588960277.8800766,0.9290255605516492,-2.1676102242206596,-9.56380511211033,-0.5614952067678628,0.07618459392488423,0.636981185851331,-0.09237219724175394,-0.355131725865347,-0.09237219724175394
1588960277.8900766,0.8931529979324604,-2.171231334711693,-9.52630599586492,-0.5733333333333334,0.07111111111111111,0.6344444444444445,-0.11730415805191821,-0.836520790259591,-0.1875
1588960277.9000766,0.9057964436917867,-2.18,-9.467754445385266,-0.5733333333333334,0.07111111111111111,0.6344444444444445,0.0987277730736664,0.6870152413209143,0.054341659610499554
1588960277.9100766,0.9256907436551438,-2.2084537182757185,-9.415855538069138,-0.5733333333333334,0.07111111111111111,0.6344444444444445,0.32976859137859305,1.801805774135779,0.2586342956892965
1588960277.9200766,0.933245397234759,-2.2202638082957233,-9.383509205530482,-0.5733333333333334,0.07111111111111111,0.6344444444444445,0.31579760369653986,2.0844325345655133,0.3327837327172434
1588960277.9300766,0.9418139694525485,-2.2054419083576455,-9.36818603054745,-0.5725271246877562,0.07494060217760234,0.6344444444444445,0.051162690921571996,1.8979642182941479,0.352325381843144
1588960277.9400766,0.962042665262049,-2.2099288912299184,-9.40415643929418,-0.5688888888888889,0.09222222222222222,0.6344444444444445,-0.025088885962602052,0.8102778509349486,0.17473334211219382
1588960277.9500766,0.9707974525279363,-2.18,-9.506810189888256,-0.5688888888888889,0.09222222222222222,0.6344444444444445,-0.10084394780026568,-0.6809872431038525,-0.07170381730092992
1588960277.9600766,0.9356416747424006,-2.18,-9.59,-0.5688888888888889,0.09222222222222222,0.6344444444444445,-0.15758682238000118,-2.1169790657199927,-0.375
1588960277.9700766,0.9072663869667085,-2.1460436985778895,-9.496620171089194,-0.5688888888888889,0.09222222222222222,0.6344444444444445,-0.07194327902795183,-2.365556720972048,-0.3484716395139759
1588960277.9800766,0.9157758424995357,-1.9195691025032504,-9.40436778999938,-0.5688888888888889,0.08888090930561575,0.6373084269443928,0.2147986874961306,-1.7394042656375754,-0.33934983593701634
1588960277.9900765,1.0849543327294686,-1.8797324124396133,-9.331240187198068,-0.5688888888888889,0.08444444444444445,0.6411111111111111,0.6012157495471014,-0.9474543327294686,-0.9485559141002415
1588960278.0000765,1.257716049382716,-2.0762345679012344,-9.418888888888889,-0.5688888888888889,0.08444444444444445,0.6411111111111111,0.1956018518518518,-6.4077932098765435,-2.814814814814815
1588960278.0100765,1.214691373720679,-2.1333580191977624,-9.618592587883796,-0.5688888888888889,0.08444444444444445,0.6411111111111111,-0.7861110228211811,-15.211264779734282,-5.819752797024982
1588960278.0200765,0.97862821326563,-2.13968343383053,-9.66010552205649,-0.5688888888888889,0.08444444444444445,0.6411111111111111,-1.501319025706125,-21.267806847032688,-8.665812936369406
1588960278.0300765,0.7614761780786253,-1.9455986164317327,-9.568829917804143,-0.5639708987821459,0.08936243455118748,0.6368956910196171,-1.9411565068620522,-21.080080522185444,-9.20682392978019
1588960278.0400765,0.5849434345010533,-1.624898182101896,-9.472483030350315,-0.5611111111111111,0.09222222222222222,0.6344444444444445,-2.125,-15.075897733478973,-8.687358586252634
1588960278.0500765,0.45492149641403373,-1.3853508431866641,-9.427968598565613,-0.5611111111111111,0.09222222222222222,0.6344444444444445,-2.090575935258771,-9.233378561736771,-7.604974316728048
1588960278.0600765,0.33666465795690115,-1.2323058381140626,-9.33102347779974,-0.5611111111111111,0.09222222222222222,0.6344444444444445,-2.0625,-6.0993377283903,-4.794814817046714
1588960278.0700765,0.3441810003437094,-1.0730316660938177,-9.17729411061464,-0.5611111111111111,0.09222222222222222,0.6344444444444445,-1.928789582617272,-6.279977434732579,-2.229242008757117
1588960278.0800765,0.45700345203759885,-0.8849942466040019,-9.014328347056802,-0.5611111111111111,0.09222222222222222,0.6344444444444445,-1.6937428082550023,-7.6510836185124855,-0.5447401258275177
1588960278.0900764,0.8601665972511454,-0.6447167846730529,-9.235283215326948,-0.5611111111111111,0.07111111111111111,0.6344444444444445,-0.125,-5.514369012911287,-1.2487505206164098
1588960278.1000764,0.7506553097953016,-0.7246050281632093,-9.241714521225443,-0.5611111111111111,0.07111111111111111,0.6344444444444445,0.009874295919769183,4.780687594449787,-1.4564071301002885
1588960278.1100764,0.6417452161028971,-0.6966980864411588,-9.401556697455945,-0.5611111111111111,0.07111111111111111,0.6344444444444445,0.125,12.96978539453359,-1.057635320450175
1588960278.1200764,0.6217761760242793,-0.6908880880121396,-9.43822382397572,-0.5611111111111111,0.07111111111111111,0.6344444444444445,0.2270758251138088,14.575045049317147,-0.36462087443095603
1588960278.1300764,0.6259933186160549,-0.7280133627678903,-9.374478285502178,-0.5560531428335753,0.07111111111111111,0.6367788913417687,0.3125,12.005268671733058,0.17192719831207143
1588960278.1400764,0.614554966798578,-0.78,-9.257979073043128,-0.5466666666666666,0.07111111111111111,0.6411111111111111,0.29430629150177745,5.822317895231068,0.538743376484003
1588960278.1500764,0.6690291954779937,-0.7990291954779937,-9.20664087366919,-0.5466666666666666,0.07111111111111111,0.6411111111111111,0.13106752826253978,-2.672946849961585,1.0802189660849524
1588960278.1600764,0.7089247984687304,-0.8805738579894725,-9.23512533588545,-0.5466666666666666,0.07111111111111111,0.6411111111111111,-0.1368733205727537,-8.352159789450436,1.4612466411455074
1588960278.1700764,0.7490249485008011,-1.0570748455024033,-9.204756237125201,-0.5466666666666666,0.07111111111111111,0.6411111111111111,-0.37195296406500344,-11.993162050812543,2.3475766765850308
1588960278.1800764,0.8034293986488735,-1.1868587972977471,-9.26571566441479,-0.5658576177428718,0.0680157964214006,0.6460636146146479,-0.4723222902592432,-11.802653582481947,3.494656644147892
1588960278.1900764,0.7644372983661151,-1.2876819648246436,-9.381522947236965,-0.5811111111111111,0.06555555555555556,0.65,-0.6490061400770112,-7.833619523363513,4.757033770423561
1588960278.2000763,0.6781851920578957,-1.32,-9.48226850992763,-0.5811111111111111,0.06555555555555556,0.65,-0.5866609064761551,-2.19204339858972,6.488541473371683
1588960278.2100763,0.6289777387984626,-1.2814220857946192,-9.53,-0.5811111111111111,0.06555555555555556,0.65,-0.3686108674903913,3.1700076740526737,8.802504385172956
1588960278.2200763,0.5877394547874526,-1.2379022955452947,-9.433218364362357,-0.5811111111111111,0.06555555555555556,0.65,-0.2620928981053946,4.7862786943161835,10.56860652841908
1588960278.2300763,0.5490474965430749,-1.2073335048396951,-9.282762002765539,-0.5774921124938812,0.06897349869405052,0.64839155617012,-0.21011874135768724,3.963103354021288,12.038090491044152
1588960278.2400763,0.5807774563777176,-1.1561483624148547,-9.210035644303442,-0.5611111111111111,0.08444444444444445,0.6411111111111111,-0.42778179527852944,0.25089110758607813,14.182195343846226
1588960278.2500763,0.56,-1.1943403612123091,-9.157446709557398,-0.5611111111111111,0.08444444444444445,0.6411111111111111,-0.7343083869467483,-2.468083869467483,15.823669192310673
1588960278.2600763,0.5933175979301893,-1.3237982842358496,-9.367596568471699,-0.5611111111111111,0.08444444444444445,0.6411111111111111,-1.0862392764740592,-5.243696382370296,18.541174935318416
1588960278.2700763,0.626119424490048,-1.3694028775497602,-9.427761151019904,-0.5611111111111111,0.08444444444444445,0.6411111111111111,-1.3227607908116008,-6.208021581623202,20.245332729555606
1588960278.2800763,0.6114049451065028,-1.3942699634043352,-9.442865018297832,-0.5611111111111111,0.07903274321520545,0.6471594830732017,-1.3837809069156424,-6.4375,21.55475274467486
1588960278.2900763,0.5792228108444999,-1.3907771891555,-9.45,-0.5611111111111111,0.06555555555555556,0.6622222222222223,-1.25,-6.280332658148956,23.276121844811467
1588960278.3000762,0.5459670194437608,-1.3959670194437608,-9.44298350972188,-0.5611111111111111,0.06555555555555556,0.6622222222222223,-1.2061469357617525,-5.517616293379277,24.985663302978097
1588960278.3100762,0.5191639724486927,-1.3674919173460782,-9.421639724486926,-0.5611111111111111,0.06555555555555556,0.6622222222222223,-1.1302251721956704,-4.463019661934214,26.177655854652798
1588960278.3200762,0.5069358234033102,-1.3430641765966898,-9.311614940419862,-0.5611111111111111,0.06555555555555556,0.6622222222222223,-1.2641044149172445,-2.4768378589775777,28.718684215608643
1588960278.3300762,0.4903739473999282,-1.3788781578002156,-9.272406513150017,-0.5576350365610852,0.06849684940557751,0.6656982967722482,-1.4675814143752244,-2.315854850939857,30.408436265315082
1588960278.3400762,0.4762631513581605,-1.47,-9.30846051487678,-0.5466666666666666,0.07777777777777778,0.6766666666666666,-1.6895558699856288,-4.15106874190515,32.16069052392527
1588960278.3500762,0.5,-1.4777339482946958,-9.396403689768176,-0.5466666666666666,0.07777777777777778,0.6766666666666666,-1.9394495691224662,-5.826146983857265,33.5116974147348
1588960278.3600762,0.4916826831588963,-1.4667307326355852,-9.513365366317792,-0.5466666666666666,0.07777777777777778,0.6766666666666666,-2.0470251546146527,-7.566857457183635,35.06685745718364
1588960278.3700762,0.48551455078899375,-1.4227572753944968,-9.478970898422013,-0.5466666666666666,0.07777777777777778,0.6766666666666666,-1.9547329712156054,-8.428761597018475,36.06662536674332
1588960278.3800762,0.4988181746094679,-1.4294090873047338,-9.452363650781063,-0.5466666666666666,0.07777777777777778,0.6766666666666666,-1.9963067956545872,-9.010795139164221,36.98124950440092
1588960278.3900762,0.41873927244780323,-1.45,-9.369730690406046,-0.5344444444444445,0.09777777777777777,0.6555555555555556,-1.8125,-8.58896863391828,38.06586636992443
1588960278.4000762,0.36245482225473524,-1.4780722843924237,-9.32456324884337,-0.5344444444444445,0.09777777777777777,0.6555555555555556,-1.9002258887263237,-8.052616750365772,39.50771827672111
1588960278.4100761,0.33,-1.5248155312188878,-9.359631062437774,-0.5344444444444445,0.09777777777777777,0.6555555555555556,-2.0787014649409756,-7.57408974541317,40.90273076376049
1588960278.4200761,0.3235592190537913,-1.5035592190537914,-9.336440780946209,-0.5344444444444445,0.09777777777777777,0.6555555555555556,-2.2055097618276087,-7.129235357258588,42.33793113050875
1588960278.4300761,0.31,-1.5059375147038065,-9.361953136027855,-0.5315668376229239,0.10043403022841219,0.6644097303910036,-2.3999023667246977,-6.8376464499129535,43.573974850609325
1588960278.440076,0.3023931870669746,-1.5598575827559662,-9.42774923017706,-0.52,0.1111111111111111,0.7,-2.4524574191685913,-6.782585161662817,44.926103011932256
1588960278.450076,0.2682743029389601,-1.5446571213263,-9.50345139412208,-0.52,0.1111111111111111,0.7,-2.2941785983421252,-7.0625,46.105642426525996
1588960278.460076,0.24193481537302186,-1.5775814807837227,-9.556130369253957,-0.52,0.1111111111111111,0.7,-2.2530231490203465,-7.0625,46.764129615674456
1588960278.470076,0.21947128383881162,-1.5742114864644754,-9.472096621819722,-0.52,0.1111111111111111,0.7,-2.3256608952014854,-7.065804476007427,47.88491342802228
1588960278.480076,0.1853124083786689,-1.5878750366485326,-9.349124670163208,-0.52,0.1111111111111111,0.7,-2.368359489526664,-7.279297447633319,48.525392342899956
1588960278.490076,0.1852612032681357,-1.6905224065362714,-9.348153008170339,-0.5022222222222222,0.12444444444444445,0.6855555555555556,-2.434234959148304,-8.597131096806141,49.99346991829661
1588960278.500076,0.17,-1.6566755599241731,-9.356542161061574,-0.5022222222222222,0.12444444444444445,0.6855555555555556,-2.625,-9.541055255213086,50.4996665028435
1588960278.510076,0.16760015022533803,-1.6428004506760139,-9.457199549323985,-0.5022222222222222,0.12444444444444445,0.6855555555555556,-2.6699971832749125,-10.269983099649474,50.839994366549824
1588960278.520076,0.1600990771872094,-1.6202972315616282,-9.479702768438372,-0.5022222222222222,0.12444444444444445,0.6855555555555556,-2.810642302739824,-11.113853816438944,51.12128460547965
1588960278.530076,0.13120728538510565,-1.6475854292297887,-9.458792714614894,-0.5022222222222222,0.12712730085579035,0.6890432688903052,-2.74245446634309,-11.522636600970731,50.99245446634309
1588960278.540076,0.13301035673187572,-1.6212629459148447,-9.443010356731875,-0.5022222222222222,0.14666666666666667,0.7144444444444444,-2.6547360471806676,-11.578286823935558,50.948421317606446
1588960278.550076,0.0947971978571849,-1.5721957967857774,-9.428209807499853,-0.5022222222222222,0.14666666666666667,0.7144444444444444,-2.4512237299111086,-10.851136162948137,50.93496497321481
1588960278.560076,0.08,-1.5408124593615506,-9.469499953556058,-0.5022222222222222,0.14666666666666667,0.7144444444444444,-2.2878905161470104,-10.192577871009691,50.71718735486268
1588960278.570076,0.06331597708975849,-1.491122681940161,-9.383315977089758,-0.5022222222222222,0.14666666666666667,0.7144444444444444,-2.1771375715945047,-9.742983237873993,50.39572485681099
1588960278.580076,0.01818428267767475,-1.5236314346446505,-9.34363143464465,-0.4949593529329212,0.14989460857302267,0.7209003282571564,-2.3578929330581313,-9.630589399587198,50.03421413388374
1588960278.590076,0.016766116611661164,-1.5230847084708472,-9.373532233223322,-0.4622222222222222,0.16444444444444445,0.75,-2.5625,-9.916355885588558,49.41355885588559
1588960278.600076,0.021585104308832127,-1.4984148956911678,-9.429452134919087,-0.4622222222222222,0.16444444444444445,0.75,-2.5362034509651004,-9.8487034509651,48.776479333203355
1588960278.610076,-0.008151686488594274,-1.5281516864885942,-9.53353090271008,-0.4622222222222222,0.16444444444444445,0.75,-2.443275979723143,-9.755775979723143,47.98659582764672
1588960278.620076,-0.03379122462703979,-1.6232692861946394,-9.4505219384324,-0.4622222222222222,0.16444444444444445,0.75,-2.2651096921620026,-9.589457269121501,46.45054846081001
1588960278.630076,-0.045304063790950144,-1.6635642232683254,-9.421739840522624,-0.4622222222222222,0.16444444444444445,0.75,-2.1211992026131234,-9.481524401959842,45.730996013065614
1588960278.640076,-0.11007552428690238,-1.689811189282744,-9.369773427139291,-0.44222222222222224,0.17888888888888888,0.7566666666666667,-1.74976398660343,-8.87381993301715,43.36933567848232
1588960278.650076,-0.12893097170086987,-1.6426725707478251,-9.31320708489739,-0.44222222222222224,0.17888888888888888,0.7566666666666667,-1.6908407134347816,-8.579203567173908,41.95517712243476
1588960278.660076,-0.2684862937004935,-1.7098013519678181,-9.465856177165845,-0.44222222222222224,0.17888888888888888,0.7566666666666667,-1.7051797785426948,-8.5625,40.27962354331688
1588960278.670076,-0.29,-1.7615995044340116,-9.436398017736046,-0.44222222222222224,0.17888888888888888,0.7566666666666667,-1.75,-8.542506194574857,39.45253407016171
1588960278.680076,-0.2936680493304752,-1.7663319506695248,-9.464497926004288,-0.4397768560019054,0.18021346225822715,0.7606403867746815,-1.75,-8.403112037526794,38.811955402132455
1588960278.6900759,-0.3466552587219697,-1.7181033866271644,-9.419517290698268,-0.4155555555555556,0.19333333333333333,0.8,-1.705387699851867,-8.09224153343209,37.97930926597538
1588960278.7000759,-0.39417146158846333,-1.6741714615884633,-9.470399884440377,-0.4155555555555556,0.19333333333333333,0.8,-1.471429087319739,-8.09642908731974,37.23964326985579
1588960278.7100759,-0.3941803055719273,-1.6883606111438545,-9.505819694428073,-0.4155555555555556,0.19333333333333333,0.8,-1.232274618035091,-7.591393888561455,37.027049236070184
1588960278.7200758,-0.4342047903704607,-1.7557952096295393,-9.448976048147697,-0.4155555555555556,0.19333333333333333,0.8,-1.1875,-6.664760481476963,36.81924027083079
1588960278.7300758,-0.4508798411122145,-1.7391201588877856,-9.369120158887785,-0.40822354628710145,0.1917691713560631,0.8024440030894847,-1.1875,-5.853003972194638,36.27051886792453
1588960278.7400758,-0.47153556376992445,-1.7392284510159395,-9.366921338261955,-0.3322222222222222,0.17555555555555555,0.8277777777777777,-1.1875,-5.740355637699245,34.89911090575189
1588960278.7500758,-0.51,-1.7748229988726043,-9.409291995490417,-0.3322222222222222,0.17555555555555555,0.8277777777777777,-1.1975479143179255,-6.2355270574971815,33.81692502818489
1588960278.7600758,-0.51,-1.796647472031914,-9.496589888127655,-0.3322222222222222,0.17555555555555555,0.8277777777777777,-1.2430155667331542,-6.735671234064695,33.27131319920215
1588960278.7700758,-0.5643579918892463,-1.8241893441476718,-9.504189344147672,-0.3322222222222222,0.17555555555555555,0.8277777777777777,-1.0977625506922108,-6.4092085023073695,32.149075304153264
1588960278.7800758,-0.5819539924486086,-1.800728010068522,-9.480728010068523,-0.3322222222222222,0.17555555555555555,0.8277777777777777,-0.9877875471961963,-6.042625157320654,31.489225283177177
1588960278.7900758,-0.6285324362066776,-1.857431763361686,-9.44110067284499,-0.26157942250997984,0.12953070119757942,0.8438329595305601,-0.8170861368541322,-5.393344547416529,30.465016821124795
1588960278.8000758,-0.6779047496625747,-1.8241905006748507,-9.455269833108384,-0.2588888888888889,0.12777777777777774,0.8444444444444444,-0.5,-5.141468228463697,29.377976573044542
1588960278.8100758,-0.7027511091715761,-1.7896288821005164,-9.46312222707106,-0.2588888888888889,0.12777777777777774,0.8444444444444444,-0.48280556767764926,-5.196097216161175,28.678902783838826
1588960278.8200758,-0.7180042184886173,-1.843014764710161,-9.424989453778457,-0.2588888888888889,0.12777777777777774,0.8444444444444444,-0.3874736344461415,-5.243763182776929,28.63123681722307
1588960278.8300757,-0.6726705961778148,-1.8216023577066889,-9.401068238471126,-0.2588888888888889,0.12777777777777774,0.8444444444444444,-0.4341617547777316,-5.427485264333195,28.684161754777733
1588960278.8400757,-0.8457744584125806,-1.8385025745697454,-9.427753861854617,-0.22599542298711942,0.08666094540056593,0.8444444444444444,-0.5531410910609083,-5.321858908939092,28.456217817878183
1588960278.8500757,-0.8924258196435625,-1.85970327857425,-9.469406557148499,-0.22333333333333333,0.08333333333333333,0.8444444444444444,-0.5170158816832028,-6.426372946534378,29.19338882821758
1588960278.8600757,-0.9151699670732273,-1.8834985855400455,-9.5061614803135,-0.22333333333333333,0.08333333333333333,0.8444444444444444,-0.30727693270880674,-7.792758428790057,30.49902610953949
1588960278.8700757,-0.9790238779571081,-1.8735358169356622,-9.423007959319037,-0.22333333333333333,0.08333333333333333,0.8444444444444444,-0.043700254256024765,-8.653199618615963,31.86939669467168
1588960278.8800757,-1.0253902277249614,-1.9430853415874418,-9.438463409241653,-0.22333333333333333,0.08333333333333333,0.8444444444444444,0.05289630776033605,-8.798094461640504,33.12515200088437
1588960278.8900757,-1.020299000578178,-1.9155232510118114,-9.395224250433634,-0.32,0.08888888888888889,0.7744444444444445,0.016325782605104484,-9.294305463781283,35.69541639134385
1588960278.9000757,-0.9714192104097195,-1.804924795373458,-9.370300818506168,-0.32,0.08888888888888889,0.7744444444444445,-0.125,-9.622179826504675,37.48790021686916
1588960278.9100757,-1.0654317060627416,-1.787146340069713,-9.512571951010457,-0.32,0.08888888888888889,0.7744444444444445,-0.1303582312717853,-8.14103659930287,39.30182163196891
1588960278.9200757,-1.2092335384087922,-1.9469261537875469,-9.53653892306813,-0.32,0.08888888888888889,0.7744444444444445,-0.1802894230586084,-6.543238462124531,40.949550960934076
1588960278.9300756,-1.23,-2.0075618861538995,-9.514958742564067,-0.32,0.08888888888888889,0.7744444444444445,-0.4613887532055196,-7.525435907053016,42.400435907053016
1588960278.9400756,-1.2134941844085805,-2.0134941844085805,-9.49174709220429,-0.4153669345282014,0.1457422537037782,0.8157089834229931,-0.6765806737231859,-11.035356381052038,44.620839537972394
1588960278.9500756,-1.0694448720851257,-1.88,-9.487905818428798,-0.4355555555555555,0.15777777777777774,0.8244444444444444,-0.5296468191079918,-11.703268621236132,46.24358727643197
1588960278.9600756,-0.9428136854655154,-1.8671102640991364,-9.528281368546551,-0.4355555555555555,0.15777777777777774,0.8244444444444444,-0.7089828931681058,-8.770532262726254,46.869629276707975
1588960278.9700756,-0.7912800317930562,-1.753460023844792,-9.513128003179306,-0.4355555555555555,0.15777777777777774,0.8244444444444444,-0.8983999602586799,-5.645150655731782,46.82227500993533
1588960278.9800756,-1.085941256402216,-1.4473993937493466,-9.497638758231421,-0.4416382704435385,0.15424131563360158,0.8226526369580618,-0.8272577610536218,-1.2431992787707746,44.568144402634054
1588960278.9900756,-1.1882376920664786,-1.7469818124804015,-9.629162746942615,-0.5463703355283788,0.0933505801191596,0.7918013309640779,-0.005232831608654731,-2.202228363123236,42.513082079021636
1588960279.0000756,-1.1108423497218574,-1.6442117486092858,-9.262743442490144,-0.5788888888888889,0.07444444444444444,0.7822222222222223,-0.7032940572848219,-8.101381487749114,40.86973531423839
1588960279.0100756,-1.1183932525608944,-1.6819662628044718,-9.466617819144147,-0.5788888888888889,0.07444444444444444,0.7822222222222223,-0.8448734855167696,-10.130686625740363,40.82254217149441
1588960279.0200756,-0.9335046587303192,-1.6429205489419325,-9.344088768518706,-0.5788888888888889,0.07444444444444444,0.7822222222222223,-1.220794510580674,-10.607623239080786,39.993575297613035
1588960279.0300756,-0.984368292337854,-1.685306910281545,-9.403429674394163,-0.5788888888888889,0.07444444444444444,0.7822222222222223,-0.7969308971845503,-8.541288123774683,38.08618903733048
1588960279.0400755,-1.072733000501428,-1.764533998997144,-9.439565501754998,-0.5011111111111111,0.09333333333333334,0.6788888888888889,-0.9118781202991126,-4.8831468420937885,34.39400929821884
1588960279.0500755,-1.09,-1.728824887104867,-9.498824887104867,-0.5011111111111111,0.09333333333333334,0.6788888888888889,-0.75,-3.7463277722027093,31.55169969894631
1588960279.0600755,-1.0908333961127017,-1.708333207774597,-9.474999623323791,-0.5011111111111111,0.09333333333333334,0.6788888888888889,-0.7343738228868465,-3.7708396112701523,28.072893909145698
1588960279.0700755,-1.0987328612324847,-1.692534277535031,-9.427602832605093,-0.5011111111111111,0.09333333333333334,0.6788888888888889,-0.5862588518909146,-4.560786123248455,25.209337803224347
1588960279.0800755,-1.0823616328575008,-1.678241088571667,-9.4376383671425,-0.5011111111111111,0.09333333333333334,0.6788888888888889,-0.6359931964270807,-5.495925160697888,22.6554439018282
1588960279.0900755,-1.050045081493469,-1.60348360497823,-9.40343852348476,-0.4360728582009359,0.1169836071188516,0.6411962650432191,-0.5627817593341811,-5.688345278002543,18.734707933572228
1588960279.1000755,-1.0211433694491072,-1.5607622462994049,-9.37495460094613,-0.4033333333333333,0.1288888888888889,0.6222222222222222,-0.4833258622005189,-3.460073153517473,14.582691133831833
1588960279.1100755,-1.0451455440256372,-1.5767636960170914,-9.478964024111095,-0.4033333333333333,0.1288888888888889,0.6222222222222222,-0.13329414962612546,-1.309878347703342,12.382491797649932
1588960279.1200755,-1.05,-1.528343271772902,-9.416057816630964,-0.4033333333333333,0.1288888888888889,0.6222222222222222,-0.02214318107257955,-0.10822044037901157,9.596804502209615
1588960279.1300755,-0.9812419825072887,-1.477080660835763,-9.324161321671525,-0.4033333333333333,0.1288888888888889,0.6222222222222222,0.14324586977648202,-0.16498623258827338,5.44758260447036
1588960279.1400754,-0.9182906428643065,-1.4839031190452312,-9.323903119045232,-0.37012032672528117,0.1597847089894026,0.6222222222222222,0.10060550596730518,-0.18215825895095777,2.21634866111724
1588960279.1500754,-0.9661770943796394,-1.452184517497349,-9.339453870625663,-0.3555555555555556,0.17333333333333334,0.6222222222222222,0.1806733828207847,0.7613003711558856,-2.653134941675504
1588960279.1600754,-1.0815268524312587,-1.5317863584495897,-9.458961975926675,-0.3555555555555556,0.17333333333333334,0.6222222222222222,0.28043904369271544,1.7418904369271542,-5.570232267088747
1588960279.1700754,-1.1592254901960783,-1.658063725490196,-9.470580882352941,-0.3555555555555556,0.17333333333333334,0.6222222222222222,0.25121017156862746,2.5528186274509803,-8.829013480392156
1588960279.1800754,-1.106374102317317,-1.591052417265122,-9.416374102317317,-0.3555555555555556,0.17333333333333334,0.6222222222222222,0.3457605315762197,1.4133736210853631,-10.933851428888724
1588960279.1900754,-1.1770016404398809,-1.5952026247038096,-9.35,-0.33555555555555555,0.20777777777777776,0.6222222222222222,0.4449958989002977,0.6711905340543167,-14.12996309010268
1588960279.2000754,-1.1345294367823076,-1.5272470988516922,-9.35,-0.33555555555555555,0.20777777777777776,0.6222222222222222,0.5511764080442311,2.2108079166413512,-15.08558767239808
1588960279.2100754,-1.1322346219258181,-1.5533519328887275,-9.460744873975274,-0.33555555555555555,0.20777777777777776,0.6222222222222222,0.6296554623454549,4.493365548145459,-15.916899161109095
1588960279.2200754,-1.1803242819743556,-1.6254864229615333,-9.476774760658119,-0.33555555555555555,0.20777777777777776,0.6222222222222222,0.7298422541132408,5.695607049358888,-16.818580287019167
1588960279.2300754,-1.1488028428792758,-1.7141548828173032,-9.405845117182697,-0.33555555555555555,0.20777777777777776,0.6222222222222222,0.698503553599095,5.062060411184615,-18.184418267220813
1588960279.2400753,-1.1824989818359533,-1.7937484727539301,-9.404166327278652,-0.3308334464626719,0.20856479595992505,0.626944331315106,0.7317697727457848,3.6797161358638104,-19.80986295511933
1588960279.2500753,-1.1776663198057578,-1.7472773731067175,-9.403500520291363,-0.3288888888888889,0.2088888888888889,0.6288888888888889,0.6850690831309978,1.487845415654989,-22.68334200485605
1588960279.2600753,-1.1197532574347433,-1.679506514869486,-9.489342019825981,-0.3288888888888889,0.2088888888888889,0.6288888888888889,0.6265421410328558,1.210118068481884,-24.13014047010952
1588960279.2700753,-1.092518722133241,-1.6250374442664821,-9.416716592355309,-0.3288888888888889,0.2088888888888889,0.6288888888888889,0.7967579866672438,3.706617137786243,-24.697526622224146
1588960279.2800753,-1.1148919891008175,-1.5868106811989102,-9.385108010899183,-0.3288888888888889,0.2088888888888889,0.6288888888888889,0.864358310626703,6.737848773841963,-25.061149863760217
1588960279.2900753,-1.12,-1.58,-9.38589478774481,-0.30858461999009823,0.2206784643785093,0.6249590303923488,0.9118424234050637,7.9019787744810195,-25.346054540430384
1588960279.3000753,-1.0375889955407755,-1.6418082533444185,-9.431205502229613,-0.29444444444444445,0.2288888888888889,0.6222222222222222,0.9375,7.239440046103847,-25.71461199077923
1588960279.3100753,-1.04591581963299,-1.7446132069036087,-9.49591581963299,-0.29444444444444445,0.2288888888888889,0.6222222222222222,0.9016282659117266,5.315130636469063,-26.386447745412376
1588960279.3200753,-1.049925171998014,-1.7879700687992057,-9.505940137598412,-0.29444444444444445,0.2288888888888889,0.6222222222222222,0.7622193949925526,2.8966327399106317,-27.977899585076955
1588960279.3300753,-0.9464727750827402,-1.7660787958471234,-9.434315183388494,-0.29444444444444445,0.2288888888888889,0.6222222222222222,0.6875,1.216932266400689,-29.837594074443487
1588960279.3400753,-0.9705918367346938,-1.838421768707483,-9.400197278911564,-0.33,0.2411111111111111,0.6355555555555555,0.8137329931972789,3.1438775510204082,-32.34702380952381
1588960279.3500752,-0.9904983388704319,-1.7853377630121816,-9.406832779623478,-0.33,0.2411111111111111,0.6355555555555555,0.8552048726467332,5.881021594684386,-33.508236434108525
1588960279.3600752,-0.9401781468054419,-1.7001781468054418,-9.504005769305733,-0.33,0.2411111111111111,0.6355555555555555,1.035237106771138,9.21717001910108,-35.02392264062683
1588960279.3700752,-0.8248844672657253,-1.6409460847240052,-9.43590757381258,-0.33,0.2411111111111111,0.6355555555555555,1.1062981386392812,9.60629813863928,-36.45764602053915
1588960279.3800752,-0.78,-1.62,-9.4,-0.33,0.2411111111111111,0.6355555555555555,1.125,8.239174079982694,-37.866141200010816
1588960279.3900752,-0.8271061142769136,-1.6738355591736156,-9.393270555103298,-0.33523401269743486,0.23737253061294336,0.6370509877548226,1.082940969395613,7.03617357153858,-39.553829948736
1588960279.4000752,-0.8057823573598093,-1.7265305855841144,-9.398843528528039,-0.3377777777777778,0.23555555555555555,0.6377777777777778,0.9519558933995231,6.971088213200954,-42.011477758907866
1588960279.4100752,-0.8,-1.7572812522200383,-9.509125008880153,-0.3377777777777778,0.23555555555555555,0.6377777777777778,1.1080078263752398,7.22734376850032,-43.670898553126996
1588960279.4200752,-0.6742072151977063,-1.6106210680472763,-9.464965656648996,-0.3377777777777778,0.23555555555555555,0.6377777777777778,1.272413419690188,8.33103174439471,-45.237496390338485
1588960279.4300752,-0.6988880859693699,-1.6068050537308562,-9.420555957015315,-0.3377777777777778,0.23555555555555555,0.6377777777777778,1.3125,9.361101074617125,-46.775157929089254
1588960279.4400752,-0.6437262594183947,-1.562794694563796,-9.352794694563796,-0.3557868554151013,0.23555555555555555,0.6441339228262449,1.610444299146896,9.267466841023724,-49.094343514540135
1588960279.4500751,-0.6580530696958201,-1.5780530696958202,-9.37707960454373,-0.3566666666666667,0.23555555555555555,0.6444444444444445,1.625,9.25,-49.1875
1588960279.4600751,-0.6516946230855931,-1.6713591460584765,-9.479664522972884,-0.3566666666666667,0.23555555555555555,0.6444444444444445,1.625,9.042365577139826,-49.81040326858052
1588960279.4700751,-0.6291040074784587,-1.738757315883596,-9.47910400747846,-0.3566666666666667,0.23555555555555555,0.6444444444444445,1.7120666355064218,8.303466915948626,-51.06936626158348
1588960279.4800751,-0.5738314274481651,-1.723065141958532,-9.423831427448166,-0.3566666666666667,0.23555555555555555,0.6444444444444445,1.75,8.057710715689794,-52.05304108336325
1588960279.490075,-0.5062149327235951,-1.6386447981707852,-9.37,-0.3689200598012488,0.22942885898826448,0.6444444444444445,1.7787188901591768,8.641940022865183,-53.11322113270601
1588960279.500075,-0.5181778614057095,-1.5843644277188582,-9.375635572281142,-0.38333333333333336,0.2222222222222222,0.6444444444444445,1.847722326757137,9.9192242083856,-54.00450094081423
1588960279.510075,-0.5254498064318295,-1.6018252903522558,-9.445475871056768,-0.38333333333333336,0.2222222222222222,0.6444444444444445,1.9659387098010657,10.164683870596804,-54.25
1588960279.520075,-0.4793698137101343,-1.6332172493084947,-9.45258706301863,-0.38333333333333336,0.2222222222222222,0.6444444444444445,2.0,9.554622671376679,-54.32255390408905
1588960279.530075,-0.4337709361990512,-1.6337709361990513,-9.4291806241327,-0.38333333333333336,0.2222222222222222,0.6444444444444445,2.0,8.8493945041469,-54.47643164875593
1588960279.540075,-0.38809287013375693,-1.6327628519464972,-9.388092870133756,-0.3996414219316354,0.209459370275725,0.6536620597391369,2.0398839123328036,8.602383912332805,-54.76191956166402
1588960279.550075,-0.37733094792161687,-1.6619928437648506,-9.399323791686466,-0.4088888888888889,0.20222222222222225,0.6588888888888889,2.0625,9.312276367651581,-54.875
1588960279.560075,-0.4127281727990948,-1.6961825382392757,-9.46891071103837,-0.4088888888888889,0.20222222222222225,0.6588888888888889,1.980679568002263,10.053422591986422,-54.711359136004525
1588960279.570075,-0.41640977957665587,-1.696409779576656,-9.472819559153312,-0.4088888888888889,0.20222222222222225,0.6588888888888889,1.9799694388229503,10.3125,-53.90301954000984
1588960279.580075,-0.4227221450519847,-1.7599717977859157,-9.453638927474007,-0.4088888888888889,0.20222222222222225,0.6588888888888889,2.0,10.034203076987835,-52.76736593425096
1588960279.590075,-0.4218569777043765,-1.8488581337737409,-9.433713955408752,-0.44598487934672904,0.16874535278465916,0.6371741627672264,1.8982122213047068,9.26427332782824,-50.98925887696119
1588960279.600075,-0.42,-1.9041065392944605,-9.422648910117589,-0.4544444444444444,0.16111111111111112,0.6322222222222222,1.920944311765063,8.941222752939748,-49.355114958813175
1588960279.610075,-0.405319630637735,-1.9126598153188674,-9.500742031492457,-0.4544444444444444,0.16111111111111112,0.6322222222222222,1.9375,9.012628462771234,-47.452839218030576
1588960279.620075,-0.43146749015610325,-1.9981089724370888,-9.492239011812677,-0.4544444444444444,0.16111111111111112,0.6322222222222222,1.780162549219484,9.10183436269513,-45.67880039375587
1588960279.630075,-0.44185058772311714,-2.0540747061384415,-9.474074706138442,-0.4544444444444444,0.16111111111111112,0.6322222222222222,1.6110992599042229,8.921264693077928,-43.96975729212016
1588960279.640075,-0.432767697954903,-2.079373885684321,-9.477232302045097,-0.4707431101788731,0.13804696148691956,0.6220739963875779,1.5172981122181437,8.279037755637127,-41.76678683796539
1588960279.650075,-0.44,-2.1343478705559873,-9.478695741111975,-0.5133333333333333,0.07777777777777778,0.5955555555555555,1.4809774270752363,6.614122652702205,-38.274442069304094
1588960279.660075,-0.44,-2.1954904656162983,-9.530356702266399,-0.5133333333333333,0.07777777777777778,0.5955555555555555,1.2173566317718798,4.899840506150647,-34.608836928553806
1588960279.670075,-0.41909431698905386,-2.218641475483581,-9.549094316989054,-0.5133333333333333,0.07777777777777778,0.5955555555555555,1.0625,3.534197405907932,-30.852592217723796
1588960279.680075,-0.3697475133894415,-2.19,-9.509831675592961,-0.5133333333333333,0.07777777777777778,0.5955555555555555,0.9679609793420045,2.811447972456006,-27.077180566182097
1588960279.690075,-0.29821958938570153,-2.106439178771403,-9.448219589385701,-0.5829673510238307,-0.01738871306590206,0.5172172856537458,0.8097181084151587,2.752781891584841,-23.362388927209285
1588960279.700075,-0.24672296809585678,-2.0366385159520717,-9.443192579760359,-0.6466666666666666,-0.10444444444444444,0.4455555555555555,0.6255278258986574,3.434860870506713,-19.675463764977625
1588960279.710075,-0.2327240495038466,-2.04,-9.525483554465382,-0.6466666666666666,-0.10444444444444444,0.4455555555555555,0.6079746906009589,4.113797524807671,-16.533164232355894
1588960279.720075,-0.23,-2.02452605278226,-9.53452605278226,-0.6466666666666666,-0.10444444444444444,0.4455555555555555,0.625,3.863151319556504,-13.767400512727082
1588960279.730075,-0.22348971999216763,-2.052551400039162,-9.490938319953006,-0.6466666666666666,-0.10444444444444444,0.4455555555555555,0.5029322498531428,3.3024182494615233,-11.600619248090856
1588960279.7400749,-0.24329556063483887,-2.0622348131217203,-9.462234813121722,-0.8261287634091291,-0.4305822933321887,-0.21362253055618152,0.3889675820107523,2.383046148150533,-8.808703280430093
1588960279.7500749,-0.2711776451131459,-2.0529407849622845,-9.452940784962285,-0.8777777777777778,-0.5244444444444445,-0.4033333333333333,0.33087990601427936,1.702178966157073,-6.220475676656852
1588960279.7600749,-0.28746392427507567,-2.0873196213753786,-9.524639242750757,-0.8777777777777778,-0.5244444444444445,-0.4033333333333333,0.2658504732807769,0.8469066259308764,-2.902575083881175
1588960279.7700748,-0.3356377688574681,-2.1521574501228207,-9.52392127493859,-0.8777777777777778,-0.5244444444444445,-0.4033333333333333,0.1685039841830927,-0.3122041818944341,0.38238047450721924
1588960279.7800748,-0.34918999955906344,-2.1529749988976588,-9.482974998897658,-0.8777777777777778,-0.5244444444444445,-0.4033333333333333,-0.010125005511706864,-1.4543437761806075,4.018406345076944
1588960279.7900748,-0.34973832379545877,-2.20303742846594,-9.464869161897731,-0.736572082743626,0.39907326215822614,-0.44823782639017085,-0.18586452372161713,-2.2738903567472772,8.038961544674175
1588960279.8000748,-0.37116242188532483,-2.361857760492382,-9.518370494836407,-0.5877777777777777,1.3722222222222222,-0.4955555555555556,-0.2732550455944267,-2.7717954103498403,11.559547690071177
1588960279.8100748,-0.35885222381635584,-2.4595078909612624,-9.606229555236729,-0.5877777777777777,1.3722222222222222,-0.4955555555555556,-0.4293041606886657,-3.2418041606886656,14.84836800573888
1588960279.8200748,-0.2858104797863523,-2.365810479786352,-9.594862878718114,-0.5877777777777777,1.3722222222222222,-0.4955555555555556,-0.6875,-3.3428929919882124,18.178302560088405
1588960279.8300748,-0.2733966459153856,-2.3831117392961505,-9.546793291830772,-0.5877777777777777,1.3722222222222222,-0.4955555555555556,-0.7700419260576801,-3.06309355545674,20.55537733451912
1588960279.8400748,-0.25606557995622975,-2.374918119387216,-9.50426231982492,-0.5541166285144098,1.1518946997710864,-0.0767583997853411,-0.9129098747264357,-2.9375,22.726433382386237
1588960279.8500748,-0.25,-2.2933410664938076,-9.483341066493809,-0.5022222222222222,0.8122222222222222,0.5688888888888889,-0.875,-2.8957366688274027,24.23027830848487
1588960279.8600748,-0.2413550501156515,-2.3259348496530454,-9.546192174248265,-0.5022222222222222,0.8122222222222222,0.5688888888888889,-0.902015468388589,-2.866530936777178,25.592732025828838
1588960279.8700747,-0.24496644295302014,-2.3799552572706935,-9.580089485458613,-0.5022222222222222,0.8122222222222222,0.5688888888888889,-0.9686800894854586,-3.4675615212527964,26.312080536912752
1588960279.8800747,-0.23077517992763133,-2.423379856057895,-9.528310071971053,-0.5022222222222222,0.8122222222222222,0.5688888888888889,-1.1095930752713825,-4.511434351266452,26.609593075271384
1588960279.8900747,-0.19315851251133756,-2.361406391719575,-9.49754468334845,-0.49536087546758195,0.6095006135623966,0.6244034217218873,-1.1173271354639065,-4.910086432268047,26.126117083711254
1588960279.9000747,-0.19462548749713238,-2.3341261374933087,-9.494625487497132,-0.49,0.4511111111111111,0.6677777777777778,-1.0929697656190258,-4.846090703142923,25.26092328133364
1588960279.9100747,-0.21,-2.364939485122033,-9.560605148779672,-0.49,0.4511111111111111,0.6677777777777778,-1.125,-5.034653961885657,24.116679204279507
1588960279.9200747,-0.21665091799265607,-2.3200944920440634,-9.55679265605875,-0.49,0.4511111111111111,0.6677777777777778,-1.0834317625458996,-5.5203411872705015,22.564567013463893
1588960279.9300747,-0.22,-2.2829828998073216,-9.50731053307643,-0.49,0.4511111111111111,0.6677777777777778,-0.9915954158638407,-4.986858742774567,21.770477079319203
1588960279.9400747,-0.27329410995620057,-2.1967205988102245,-9.470014708766426,-0.47223529668126646,0.3719101421484241,0.6929444408126503,-0.9375,-3.1676472510949862,20.917095672354055
1588960279.9500747,-0.2880160138988556,-2.16,-9.489959965252861,-0.4633333333333333,0.3322222222222222,0.7055555555555556,-0.9375,-1.6386509989802471,20.400300260603544
1588960279.9600747,-0.3147207015975869,-2.1484264328008047,-9.544720701597587,-0.4633333333333333,0.3322222222222222,0.7055555555555556,-0.9736673974974863,-1.2433369874874316,20.105330410010055
1588960279.9700747,-0.35805660757905117,-2.1821320843511196,-9.557962261613966,-0.4633333333333333,0.3322222222222222,0.7055555555555556,-1.0376179324563566,-2.4283021087779844,20.0
1588960279.9800746,-0.4053318111243036,-2.2762471458580693,-9.532334094437848,-0.4633333333333333,0.3322222222222222,0.7055555555555556,-1.0348970225591378,-4.173913142752763,20.0
1588960279.9900746,-0.46459744830620325,-2.3954509458864934,-9.516256049274087,-0.45105294031382903,0.3185515960306985,0.7037019113261964,-1.026066871975363,-5.773702155741311,20.117300923889132
1588960280.0000746,-0.518417839859217,-2.5261576110866693,-9.539321931368235,-0.4057754680549446,0.26814837219533655,0.6968675758908931,-1.122174714034316,-6.782834497360317,20.549786213154423
1588960280.0100746,-0.5672541608369704,-2.4457913421179023,-9.531522751477436,-0.4044444444444445,0.26666666666666666,0.6966666666666667,-1.1516786915029131,-7.070518877774761,22.207283552947565
1588960280.0200746,-0.6687101108498489,-2.495483148583585,-9.589676408017018,-0.4044444444444445,0.26666666666666666,0.6966666666666667,-1.153230321352592,-6.0584551002127425,24.610926827902812
1588960280.0300746,-0.6572970109415432,-2.4740155667393386,-9.53532814442022,-0.4044444444444445,0.26666666666666666,0.6966666666666667,-1.345800902626378,-5.145509026263779,27.905658479186616
1588960280.0400746,-0.6783047218222764,-2.524982833093366,-9.547491416546682,-0.40574010492938395,0.2517665710898627,0.6966666666666667,-1.3489404511389227,-4.120131428360468,30.2391899250563
1588960280.0500746,-0.860551149005554,-2.6541119622263363,-9.596439186779218,-0.4066666666666667,0.2411111111111111,0.6966666666666667,-1.4400699763914602,-4.145559811131681,32.113899527829204
1588960280.0600746,-0.9360782386475329,-2.7446078238647535,-9.651568704540987,-0.4066666666666667,0.2411111111111111,0.6966666666666667,-1.7022066050717515,-6.411158344800471,35.67157705917043
1588960280.0700746,-0.8445752995233392,-2.6296828702709667,-9.637553785373813,-0.4066666666666667,0.2411111111111111,0.6966666666666667,-1.875,-8.545866524240992,40.08040832868124
1588960280.0800745,-0.774900432730904,-2.4697787394020088,-9.569889369701004,-0.4066666666666667,0.2411111111111111,0.6966666666666667,-1.9063191439368723,-8.561808560631277,42.69040404534863
1588960280.0900745,-0.73351232,-2.38053696,-9.502438399999999,-0.39730048,0.23369621333333335,0.70486208,-1.915548,-8.35976,44.504896
1588960280.1000745,-0.7359337094499294,-2.3796685472496475,-9.494397743300423,-0.38,0.22,0.72,-1.9512429478138222,-8.689571579689703,45.58998589562764
1588960280.1100745,-0.9082837188000916,-2.493777192580719,-9.656523929471032,-0.38,0.22,0.72,-2.1343885962903597,-9.090665788871078,46.31572017403251
1588960280.1200745,-0.9781760507533703,-2.4956720856463126,-9.66112807295797,-0.38,0.22,0.72,-2.1633500198255353,-9.539799762093576,47.41199940523394
1588960280.1300745,-0.8720440616200099,-2.31408812324002,-9.515226436972005,-0.38,0.22,0.72,-2.144889845949975,-9.801101540500248,48.900627381149576
1588960280.1400745,-0.8421969362203564,-2.0775382972455443,-9.453409191338931,-0.37119110161863145,0.23761779676273712,0.72,-2.1356537229341583,-8.102037763293563,51.678501067903966
1588960280.1500745,-0.8142015348072356,-1.9943193860771058,-9.415680613922895,-0.3655555555555556,0.2488888888888889,0.72,-2.241492325963822,-7.463759592545222,53.69969052621963
1588960280.1600745,-0.8098880172217507,-2.004944008610875,-9.424832025832627,-0.3655555555555556,0.2488888888888889,0.72,-2.3125,-7.300839870836869,54.348880172217505
1588960280.1700745,-0.8967067541553684,-2.048353377077684,-9.555060131233054,-0.3655555555555556,0.2488888888888889,0.72,-2.3125,-6.649699343834738,55.21706754155368
1588960280.1800745,-1.0097944221903106,-1.8306167334290682,-9.472654183357267,-0.3655555555555556,0.2488888888888889,0.72,-2.2653037846723603,-7.80350597082609,56.2830627409115
1588960280.1900744,-1.035793637291596,-1.7290634569581491,-9.444952364749915,-0.3617230917545651,0.2499171108842766,0.7192522021851726,-2.3282738601565156,-9.287996554950663,58.58065562266077
1588960280.2000744,-1.1062885276259327,-1.6608762308363456,-9.404536065953241,-0.32,0.2611111111111111,0.7111111111111111,-2.54542520610388,-11.403189045779099,62.68105535870088
1588960280.2100744,-1.31,-1.757089472478815,-9.451268417436445,-0.32,0.2611111111111111,0.7111111111111111,-2.7136184059851898,-11.867072391022216,66.2269734330865
1588960280.2200744,-1.223968036081969,-1.741285616236886,-9.515698401804098,-0.32,0.2611111111111111,0.7111111111111111,-3.0806549661731544,-11.706349887243848,73.68849887243847
1588960280.2300744,-1.1321428922170391,-1.69,-9.48469383746624,-0.32,0.2611111111111111,0.7111111111111111,-3.306122636876995,-12.27997483427449,78.43622636876995
1588960280.2400744,-1.1534347452836113,-1.6722898301890743,-9.41819322012605,-0.31409661006302475,0.2630789077567695,0.7071755178197944,-3.507155719340857,-13.303442806591427,81.68257946146277
1588960280.2500744,-1.122727991305207,-1.6463639956526035,-9.376363336956164,-0.3,0.2677777777777778,0.6977777777777778,-3.426137486414386,-14.846595774462338,83.73864572011988
1588960280.2600744,-1.1638202194940477,-1.6530561755952382,-9.423123604910714,-0.3,0.2677777777777778,0.6977777777777778,-3.5336376371837797,-15.350912911551339,85.4522472563244
1588960280.2700744,-1.0185095045345085,-1.5233247937695342,-9.46221652917969,-0.3,0.2677777777777778,0.6977777777777778,-3.5601911154378234,-14.497611057027207,85.97452221140544
1588960280.2800744,-0.9497619980411361,-1.4640137120470127,-9.4,-0.3,0.2677777777777778,0.6977777777777778,-3.518707149853085,-12.837157198824682,84.74957149853086
1588960280.2900743,-0.9745238168360922,-1.4597024047172997,-9.37678572525414,-0.27592593730058795,0.2759457633365069,0.6951984139171266,-3.375,-11.663318463806394,81.83742629219005
1588960280.3000743,-1.0908569597595739,-1.4771427308686718,-9.383714228890902,-0.23777777777777775,0.2888888888888889,0.6911111111111111,-3.28392868981062,-11.776785516982299,77.01071752149029
1588960280.3100743,-1.2351725921137686,-1.5462081447963802,-9.53620297349709,-0.23777777777777775,0.2888888888888889,0.6911111111111111,-3.1573287007110538,-12.239212992889463,72.29318034906271
1588960280.3200743,-2.4029479710473884,-2.5833580489773276,-9.196312577236387,-0.23777777777777775,0.2888888888888889,0.6911111111111111,-3.0904201659478954,-11.698004148697384,67.43443261204006
1588960280.3300743,-8.994484592109515,-13.432836873182339,-15.371338386063865,-0.23777777777777775,0.2888888888888889,0.6911111111111111,-6.020871889779971,-36.89131488499163,94.00648299109898
1588960280.3400743,-18.76529009136042,-30.71348594342117,-26.694630004993982,-0.23777777777777775,0.2888888888888889,0.6911111111111111,-11.141919853999589,-81.71011060192122,143.67679783202607
1588960280.3500743,0.7480005290480443,0.06389313229507643,0.8081605660814072,-0.1988888888888889,0.31777777777777777,0.6977777777777778,18.822657309129383,-83.87544431769335,19.50438944549152
1588960280.3600743,-1.542588807458706,3.92586499025079,-12.30904031914655,-0.1988888888888889,0.31777777777777777,0.6977777777777778,3.8396002823909097,-3.6504249871131123,-9.831363880857932
1588960280.3700743,-2.810343224198265,6.158482335458511,-19.521539235894732,-0.1988888888888889,0.31777777777777777,0.6977777777777778,-17.493106155026126,99.97135204448493,22.17953357940655
1588960280.3800743,-2.259194559358155,2.9262404412686474,-11.039568133383478,-0.1988888888888889,0.31777777777777777,0.6977777777777778,-14.371654444026575,162.01743684969287,32.982441707408796
1588960280.3900743,-1.6278460547126705,1.0213549294124538,-7.126405600140589,-0.18291169559812287,0.3204406433262388,0.7004406433262388,9.964157049967781,127.26236380411224,19.913599818405483
1588960280.4000742,-1.8032086720867209,0.20962601626016258,-8.290881300813007,-0.14555555555555555,0.32666666666666666,0.7066666666666667,5.481056910569105,47.44060298102981,5.708387533875339
1588960280.4100742,-1.2281352795334708,-0.7271945385340643,-9.378405210042951,-0.14555555555555555,0.32666666666666666,0.7066666666666667,-2.2774317316758044,-39.4769157907602,-3.3539520550336976
1588960280.4200742,-0.6926984644357526,-0.9635828625235404,-10.09641713747646,-0.14555555555555555,0.32666666666666666,0.7066666666666667,-5.016865402723454,-80.85489098942489,-6.027920378820802
1588960280.4300742,-0.6663549077698246,-1.0114484354388773,-9.404484354388773,-0.14555555555555555,0.32666666666666666,0.7066666666666667,-5.270443634712281,-92.96990355297018,-7.888729104945614
1588960280.4400742,-3.862316078011279,-5.526490122562148,-9.570900469453985,-0.16082453763508617,0.32824621653696295,0.7077196999135309,-1.5710127918333914,-47.30117127193673,-3.7644026276820313
1588960280.4500742,-4.064699997705527,-5.4402186632402545,-10.613662666636074,-0.17777777777777778,0.33,0.7088888888888889,2.121592708166028,9.332205217630728,12.86680729871739
1588960280.4600742,-1.54,-1.67,-10.58,-0.17777777777777778,0.33,0.7088888888888889,1.9375,19.5625,20.625
1588960280.4700742,-1.294517734189666,0.23535555169820055,-8.428451657698316,-0.17777777777777778,0.33,0.7088888888888889,2.9446385176184693,8.66267430422959,2.9977000520742925
1588960280.4800742,-1.6157664711911683,-1.823320282963386,-9.50638616772806,-0.17777777777777778,0.33,0.7088888888888889,0.4498124359383664,9.04036197973552,1.159898887637995
1588960280.4900742,-1.6298618789172112,-1.5625552400315899,-9.302002755700435,-0.17777777777777778,0.33,0.7088888888888889,-1.0478246349537077,5.472461899080873,0.9396581419185723
1588960280.5000741,-1.68,-1.5315150283142152,-9.386446348192246,-0.1511111111111111,0.3244444444444444,0.7066666666666667,0.5571620444315377,1.6842275301292289,0.3273068825323072
1588960280.5100741,-1.712460159896979,-1.5389778397810805,-9.383482320115899,-0.1511111111111111,0.3244444444444444,0.7066666666666667,0.38857849975854486,1.2010784997585449,0.16214050008048506
1588960280.5200741,-1.7319921611462716,-1.6315976483438814,-9.358007838853728,-0.1511111111111111,0.3244444444444444,0.7066666666666667,0.3074461078806181,1.400024496417901,0.16000979856716036
1588960280.5300741,-1.649299565423803,-1.5885991308476062,-9.415732753898403,-0.1511111111111111,0.3244444444444444,0.7066666666666667,-0.14291485593251288,1.4020742796625643,0.25
1588960280.540074,-1.6313482672024107,-1.5446069311903567,-9.398089603214466,-0.15290880071432558,0.3244444444444444,0.7074157040013394,-0.0709266700150678,0.8735999497739829,0.22471998995479658
1588960280.550074,-1.6397747865394274,-1.5109008538422903,-9.448648719236564,-0.1641441598303477,0.3244444444444444,0.7120971036330153,-0.12359241587142139,0.08361376192867898,0.0667227523857358
1588960280.560074,-1.6881109087837203,-1.5908145450449607,-9.405147271396121,-0.16444444444444445,0.3244444444444444,0.7122222222222222,0.35810227336724926,-0.42731818693799395,0.045602273367249244
1588960280.570074,-1.7054063841702445,-1.6085159604256114,-9.487367556468172,-0.16444444444444445,0.3244444444444444,0.7122222222222222,0.27661237633003544,-0.0625,0.0
1588960280.580074,-1.67,-1.5407393084622385,-9.414195859872612,-0.16444444444444445,0.3244444444444444,0.7122222222222222,-0.04320689262966333,0.23994824840764328,0.06481033894449499
1588960280.590074,-1.672247820295471,-1.577752179704529,-9.453256539113587,-0.16019856166411023,0.3244444444444444,0.7122222222222222,-0.09690224630661178,0.6720112315330589,0.14535336945991767
1588960280.600074,-1.6878224435559173,-1.5778224435559174,-9.422177556444083,-0.14555555555555555,0.3244444444444444,0.7122222222222222,0.07333540833672517,0.21194513611224172,0.0
1588960280.610074,-1.6921673544898248,-1.5665020634694748,-9.417832645510176,-0.14555555555555555,0.3244444444444444,0.7122222222222222,0.211977017219297,0.05418386224562402,0.024477017219296997
1588960280.620074,-1.6860586791610888,-1.545146697902722,-9.408794622936188,-0.14555555555555555,0.3244444444444444,0.7122222222222222,0.17426651048639002,-0.1553331381079875,0.0625
1588960280.630074,-1.6972695492180312,-1.58,-9.36728120208525,-0.14555555555555555,0.3244444444444444,0.7122222222222222,-0.02275375651640601,0.0681884391291015,0.0625
1588960280.640074,-1.6715455381784727,-1.58,-9.435878564857406,-0.14555555555555555,0.3244444444444444,0.7122222222222222,-0.23712051517939284,0.1217801287948482,0.0625
1588960280.650074,-1.662969312169312,-1.526757671957672,-9.41378835978836,-0.16444444444444445,0.3244444444444444,0.6977777777777778,-0.0625,0.23485449735449734,0.021970899470899467
1588960280.660074,-1.6978428465530022,-1.5435285396590066,-9.391764269829505,-0.16444444444444445,0.3244444444444444,0.6977777777777778,0.1335711638250556,-0.1384822090437361,-0.03799110452186805
1588960280.670074,-1.6982638033904724,-1.5956482621460366,-9.417824131073019,-0.16444444444444445,0.3244444444444444,0.6977777777777778,0.36414877119045364,-0.13585122880954636,0.0
1588960280.680074,-1.682980387836051,-1.6080784486557955,-9.421058836491847,-0.16444444444444445,0.3244444444444444,0.6977777777777778,0.11960803217276333,-0.1754903040987219,0.0
1588960280.690074,-1.6883056024068923,-1.5783056024068924,-9.4,-0.1621852476536344,0.3256681760394665,0.6997545749697366,-0.1875,0.005294992478461048,0.005294992478461048
1588960280.700074,-1.6718695045359384,-1.559376831821354,-9.401246336357293,-0.13777777777777778,0.3388888888888889,0.7211111111111111,-0.17971039776692255,0.06639480111653873,0.0625
1588960280.710074,-1.7,-1.5549942828734775,-9.44247427293065,-0.13777777777777778,0.3388888888888889,0.7211111111111111,-7.146408153119177e-05,0.06257146408153119,0.0468928660203828
1588960280.720074,-1.7,-1.5688953517275666,-9.50502908277405,-0.13777777777777778,0.3388888888888889,0.7211111111111111,0.17369189659458117,-0.11119189659458117,0.0034520258513547064
1588960280.730074,-1.6879051777087932,-1.5641896445824135,-9.415810355417587,-0.13777777777777778,0.3388888888888889,0.7211111111111111,0.2732220820398745,-0.1482220820398745,-0.049407360679958164
1588960280.740074,-1.6809424127226547,-1.5781151745546906,-9.40188482544531,-0.13777777777777778,0.3388888888888889,0.7211111111111111,0.14267023854977673,-0.01767023854977673,-0.005890079516592234
1588960280.750074,-1.6750799901550577,-1.5550799901550578,-9.387380014767414,-0.15777777777777774,0.3388888888888889,0.7122222222222222,-0.07787503076544425,0.13937515382722127,0.0625
1588960280.760074,-1.6657264394591582,-1.5457264394591583,-9.430042538107054,-0.15777777777777774,0.3388888888888889,0.7122222222222222,-0.03552438345065073,0.24973413683091103,0.026709753380260298
1588960280.770074,-1.6830776286353466,-1.5692328859060403,-9.458456599552573,-0.15777777777777774,0.3388888888888889,0.7122222222222222,0.1875,-0.08173517897091723,-0.004794463087248325
1588960280.780074,-1.69203994584871,-1.5961198375461307,-9.40388016245387,-0.15777777777777774,0.3388888888888889,0.7122222222222222,0.1875,-0.125,0.08675101533668379
1588960280.7900739,-1.699818259369842,-1.6194547781095268,-9.380545221890474,-0.15777777777777774,0.3388888888888889,0.7122222222222222,0.1875,-0.125,-0.05909236318454092
1588960280.8000739,-1.687588590342679,-1.552411409657321,-9.396879867601246,-0.13111111111111112,0.3322222222222222,0.7066666666666667,-0.0926426207165109,0.2823573792834891,-0.14228606892523366
1588960280.8100739,-1.68,-1.5644105232963161,-9.452205261648158,-0.13111111111111112,0.3322222222222222,0.7066666666666667,-0.11858557349506209,0.13236845879604967,-0.013782885300987584
1588960280.8200738,-1.6811479366574438,-1.581147936657444,-9.458852063342556,-0.13111111111111112,0.3322222222222222,0.7066666666666667,0.125,-0.0768492082180491,-0.05532539589097545
1588960280.8300738,-1.6946278317152104,-1.587686084142395,-9.436116504854368,-0.13111111111111112,0.3322222222222222,0.7066666666666667,0.13946197411003236,-0.14411407766990292,0.014461974110032362
1588960280.8400738,-1.7086459089564678,-1.580677045521766,-9.389322954478235,-0.13208906575366203,0.3316956312608486,0.7066666666666667,0.17903693097792478,0.004231534511037617,0.05826846548896238
1588960280.8500738,-1.6915167953265178,-1.5869664093469644,-9.384550385979555,-0.14555555555555555,0.3244444444444444,0.7066666666666667,0.015100146046317549,0.09093991237220947,0.009479970790736491
1588960280.8600738,-1.699526742899299,-1.5697633714496497,-9.412129656953153,-0.14555555555555555,0.3244444444444444,0.7066666666666667,-0.24556321468092954,0.24556321468092954,0.0595421431206197
1588960280.8700738,-1.684055330136481,-1.5620276650682405,-9.481751014385836,-0.14555555555555555,0.3244444444444444,0.7066666666666667,-0.1005187200295094,0.1005187200295094,-0.03715418664699373
1588960280.8800738,-1.6895965077866917,-1.5795965077866918,-9.418789523360076,-0.14555555555555555,0.3244444444444444,0.7066666666666667,0.125,0.059978173666823974,-0.0625
1588960280.8900738,-1.6829985842378479,-1.572998584237848,-9.398995752713544,-0.14555555555555555,0.3244444444444444,0.7066666666666667,0.125,0.018741151486550263,-0.0625
1588960280.9000738,-1.6708545505415884,-1.57,-9.33512730324953,-0.1384424281990132,0.3315575718009868,0.6944727340554512,0.010681881769854906,-0.2286362364602902,-0.005340940884927453
1588960280.9100738,-1.6723861916404703,-1.568806904179765,-9.365510245663057,-0.13777777777777778,0.3322222222222222,0.6933333333333334,0.047586302247060196,0.125,0.007456848876469903
1588960280.9200737,-1.6874296146401548,-1.5651407707196903,-9.467148073200775,-0.13777777777777778,0.3322222222222222,0.6933333333333334,0.0017596339961288149,0.0286105490058068,0.04643509150096779
1588960280.9300737,-1.68,-1.58,-9.418838875978832,-0.13777777777777778,0.3322222222222222,0.6933333333333334,0.14763884278154232,-0.21013884278154232,0.0
1588960280.9400737,-1.68,-1.58,-9.361505008885157,-0.13777777777777778,0.3322222222222222,0.6933333333333334,-0.05712496826729674,-0.0053750317327032615,0.0
1588960280.9500737,-1.6773110472991277,-1.56,-9.36672238175218,-0.1511111111111111,0.3244444444444444,0.7066666666666667,-0.00840297719022593,0.03361190876090372,-0.0625
1588960280.9600737,-1.666132444098934,-1.56,-9.426353184263824,-0.1511111111111111,0.3244444444444444,0.7066666666666667,-0.0752759252061128,0.23722407479388719,-0.03694814958777439
1588960280.9700737,-1.6882258111366077,-1.56,-9.487338716704912,-0.1511111111111111,0.3244444444444444,0.7066666666666667,-0.11391131960379934,0.18195565980189968,0.05695565980189967
1588960280.9800737,-1.673824237052045,-1.5619121185260225,-9.440878814739776,-0.1511111111111111,0.3244444444444444,0.7066666666666667,0.035852222362922626,0.07719703684943649,0.0
1588960280.9900737,-1.6889992583078564,-1.5694996291539283,-9.365003708460717,-0.1511111111111111,0.3244444444444444,0.7066666666666667,0.17811804663615477,-0.11249072884820638,0.0
1588960281.0000737,-1.6959742849645763,-1.588658094988192,-9.36,-0.14555555555555555,0.3244444444444444,0.7,0.10822618735240094,0.14556546838100237,-0.04572618735240094
1588960281.0100737,-1.67,-1.5771470935238034,-9.378543892095276,-0.14555555555555555,0.3244444444444444,0.7,-0.026745998214342655,-0.125,0.05358466726188578
1588960281.0200737,-1.67,-1.5637728388763115,-9.465476547303977,-0.14555555555555555,0.3244444444444444,0.7,-0.15212963553458117,-0.125,0.011790121488472943
1588960281.0300736,-1.6791732867358775,-1.5524801397923673,-9.445866433679388,-0.14555555555555555,0.3244444444444444,0.7,-0.04699912629770488,-0.04183216839693984,0.10433216839693985
1588960281.0400736,-1.6730143463385265,-1.5709569609844203,-9.415071731692633,-0.14555555555555555,0.3244444444444444,0.7,0.06848100615262626,0.112141341536835,-0.049641341536835
1588960281.0500736,-1.6864559880124486,-1.604683982018673,-9.367088023975102,-0.15012666333679128,0.33632932467565735,0.6945146706625172,0.1764249625389019,-0.018199850155607628,0.029274887616705714
1588960281.0600736,-1.671952832596121,-1.56,-9.427811330384484,-0.1511111111111111,0.3388888888888889,0.6933333333333334,0.13867918509697175,-0.20117918509697175,0.17529479627424294
1588960281.0700736,-1.6792605944805954,-1.5592605944805955,-9.46,-0.1511111111111111,0.3388888888888889,0.6933333333333334,-0.0763638534888332,0.004621284496277737,0.12037871550372227
1588960281.0800736,-1.671700164031941,-1.5517001640319412,-9.46,-0.1511111111111111,0.3388888888888889,0.6933333333333334,-0.21812192440110317,0.05187397480036772,0.07312602519963228
1588960281.0900736,-1.67,-1.558906147271532,-9.415469263642342,-0.1511111111111111,0.3388888888888889,0.6933333333333334,0.028317102235371483,0.0625,0.006836579552925701
1588960281.1000736,-1.694043842791071,-1.5760292285273807,-9.377941542945239,-0.14665854763128316,0.3388888888888889,0.7084720491647484,0.21277401744419336,-0.08777401744419336,0.0
1588960281.1100736,-1.698412437889246,-1.571587562110754,-9.384288058996784,-0.14555555555555555,0.3388888888888889,0.7122222222222222,0.12796642084672977,-0.09523321042336488,-0.08531094723115318
1588960281.1200736,-1.687805410122164,-1.5778054101221641,-9.458902705061083,-0.14555555555555555,0.3388888888888889,0.7122222222222222,-0.18064190663176266,0.04878381326352531,0.125
1588960281.1300735,-1.670978640339352,-1.56,-9.44608543864259,-0.14555555555555555,0.3388888888888889,0.7122222222222222,-0.11888349787904952,-0.04415049363714854,0.11276699575809902
1588960281.1400735,-1.6788511205375576,-1.56,-9.414595517849769,-0.14555555555555555,0.3388888888888889,0.7122222222222222,-0.06968049664026428,0.10345851007920717,0.014360993280528561
1588960281.1500735,-1.7014954385671242,-1.5729908771342485,-9.342990877134248,-0.14555555555555555,0.32,0.7,0.24065350895547372,0.14076754477736858,-0.053153508955473716
1588960281.1600735,-1.7090035313987408,-1.5893356875991607,-9.363985874405035,-0.14555555555555555,0.32,0.7,0.18127207124213113,-0.11669609498950817,0.0020759762526229592
1588960281.1700735,-1.6784300933345904,-1.57,-9.476860186669182,-0.14555555555555555,0.32,0.7,-0.004905958329405109,0.10537616668237956,0.0625
1588960281.1800735,-1.6626129914207597,-1.57,-9.445225982841519,-0.14555555555555555,0.32,0.7,-0.05433440181012539,-0.09233760724050155,0.0625
1588960281.1900735,-1.6708168056842756,-1.57,-9.429183194315724,-0.14555555555555555,0.32,0.7,-0.028697482236638858,0.0440125888168057,0.0625
1588960281.2000735,-1.68,-1.57,-9.386028839278621,-0.1547223767025944,0.3221568990934209,0.6989215504532895,0.03033139350123143,0.09650581949630571,0.03216860649876857
1588960281.2100735,-1.6706671242278655,-1.5796664378860674,-9.41233493479753,-0.16444444444444445,0.3244444444444444,0.6977777777777778,0.24583047357584076,-0.060415236787920386,0.06458476321207962
1588960281.2200735,-1.6871169722521815,-1.5714415138739093,-9.469909402882635,-0.16444444444444445,0.3244444444444444,0.6977777777777778,0.14301892342386507,-0.009009461711932537,0.11599053828806746
1588960281.2300735,-1.69,-1.5620024044574943,-9.448009617829976,-0.16444444444444445,0.3244444444444444,0.6977777777777778,-0.07493988856264305,0.09996994428132153,-0.024954916421982276
1588960281.2400734,-1.69,-1.5684324406496237,-9.380972915452633,-0.16444444444444445,0.3244444444444444,0.6977777777777778,-0.07229724593985154,0.07229724593985154,0.09560826218044541
1588960281.2500734,-1.69,-1.57,-9.383374478669884,-0.1555281253311888,0.3162711519239601,0.7037219905199482,0.02109049168677178,-0.10468098337354356,0.04140950831322822
1588960281.2600734,-1.6810643162708363,-1.5789356837291637,-9.372128632541672,-0.1511111111111111,0.31222222222222223,0.7066666666666667,0.0625,-0.1875,0.0
1588960281.2700734,-1.6872872975595192,-1.5872872975595194,-9.428298380476154,-0.1511111111111111,0.31222222222222223,0.7066666666666667,-0.1196824389879842,0.04022804873498023,0.0
1588960281.2800734,-1.68,-1.5793977268436357,-9.449096590265453,-0.1511111111111111,0.31222222222222223,0.7066666666666667,-0.12123579277272212,0.0018821036136389383,0.12311789638636106
1588960281.2900734,-1.68,-1.5635600196352377,-9.425340029452856,-0.1511111111111111,0.31222222222222223,0.7066666666666667,-0.02225012272023562,0.05137493863988219,0.07362506136011782
1588960281.3000734,-1.6800996072831131,-1.5602988218493397,-9.390099607283114,-0.1511111111111111,0.3388888888888889,0.7066666666666667,0.0006225455194573367,0.061254908961085326,-0.0006225455194573367
1588960281.3100734,-1.6875867547304533,-1.5827602641913603,-9.397586754730455,-0.1511111111111111,0.3388888888888889,0.7066666666666667,0.04741721706533381,-0.032334434130667625,-0.04741721706533381
1588960281.3200734,-1.6712188467177065,-1.58,-9.46,-0.1511111111111111,0.3388888888888889,0.7066666666666667,0.0,0.24238220801433458,-0.11738220801433458
1588960281.3300734,-1.6882993972959766,-1.58,-9.46,-0.1511111111111111,0.3388888888888889,0.7066666666666667,0.0,0.1356287669001466,-0.010628766900146608
1588960281.3400733,-1.681991050979727,-1.571991050979727,-9.427964203918908,-0.1511111111111111,0.3388888888888889,0.7066666666666667,0.0,0.07494406862329289,-0.0500559313767071
1588960281.3500733,-1.68,-1.57,-9.376317037169565,-0.1511111111111111,0.32513684503486356,0.696959341593237,0.04550308628170148,-0.02850617256340296,-0.0625
1588960281.3600733,-1.69,-1.5795894995166209,-9.383284003867034,-0.1511111111111111,0.32,0.6933333333333334,0.05993437197888005,-0.11730311593664014,-0.0025656280211199525
1588960281.3700733,-1.69,-1.5689422764755536,-9.457884552951107,-0.1511111111111111,0.32,0.6933333333333334,0.0033053860138952014,0.0591946139861048,-0.0591946139861048
1588960281.3800733,-1.69,-1.5553253035517174,-9.430650607103434,-0.1511111111111111,0.32,0.6933333333333334,0.04585842640088306,0.016641573599116943,-0.016641573599116943
1588960281.3900733,-1.6749844200129342,-1.5575077899935328,-9.389968840025869,-0.1511111111111111,0.32,0.6933333333333334,0.015576312540419773,0.09384737491916045,-0.04692368745958023
1588960281.4000733,-1.6759626897583921,-1.5540373102416078,-9.385962689758394,-0.13918573159432684,0.32265008433706316,0.7045961917658518,-0.03726681098995083,0.050466378020098346,-0.0625
