time,acc_x,acc_y,acc_z,mag_x,mag_y,mag_z,gyr_x,gyr_y,gyr_z
1588960322.8488562,1.89,4.1,-8.81,-0.5277777777777778,-0.3322222222222222,0.5988888888888889,-11.25,-7.9375,-19.125
1588960322.8588562,1.5203936920305166,4.333193353944705,-8.326937876732133,-0.5344444444444445,-0.3388888888888889,0.5988888888888889,-7.961231344113526,-5.773075190729331,-21.250328076692096
1588960322.8688562,1.1207489744987236,4.402353059292619,-8.099465305068701,-0.5344444444444445,-0.3388888888888889,0.5988888888888889,-4.8729974039757895,-4.126670921660308,-20.46524231949743
1588960322.8788562,0.8213839695983707,4.2922205111646505,-8.078889744417674,-0.5344444444444445,-0.3388888888888889,0.5988888888888889,-1.2099798812746827,-4.16145432304215,-18.5520432304215
1588960322.8888562,0.7124901925282153,4.433189490413826,-8.10832679501881,-0.5344444444444445,-0.3388888888888889,0.5988888888888889,3.003635051401211,-5.077328142917496,-16.78186296698654
1588960322.8988562,0.7095087552491879,4.741228111877031,-8.13792983915696,-0.5364366487952179,-0.3408810932396623,0.6005964926181232,6.725000742809603,-7.124342613501307,-15.207236451152841
1588960322.9088562,0.675550312831279,4.907337712278368,-8.197300089380365,-0.5422222222222223,-0.3466666666666667,0.6055555555555555,9.426328753455694,-9.388052391444429,-13.550153037893118
1588960322.9188561,0.9196634725311272,5.072985927788979,-8.267046706437464,-0.5422222222222223,-0.3466666666666667,0.6055555555555555,9.916734654638425,-13.692726412937288,-11.043633987403604
1588960322.9288561,1.1675961334183131,5.579374867219036,-9.022355888393173,-0.5422222222222223,-0.3466666666666667,0.6055555555555555,6.951320285390553,-16.552282504780116,-6.330827092628001
1588960322.9388561,1.1230422774591036,5.289774803484172,-9.282253381488564,-0.5422222222222223,-0.3466666666666667,0.6055555555555555,2.9600373557113517,-14.04612810707457,-1.4577490970894411
1588960322.948856,1.3741314927319572,4.921317471929768,-8.844810267502147,-0.5288844358210433,-0.35613219249976147,0.6021135461617029,-1.9015732847736886,-11.560378828843156,3.639096742898947
1588960322.958856,1.08,5.05,-8.71,-0.5077777777777778,-0.3711111111111111,0.5966666666666667,-3.625,-11.0625,3.5625
1588960322.968856,1.3315393505142725,4.402095612311722,-8.801468854732462,-0.5077777777777778,-0.3711111111111111,0.5966666666666667,-7.912602565584191,-8.918698717207905,4.277100427597365
1588960322.978856,1.548736910148675,4.022725059254471,-8.74521633268692,-0.5077777777777778,-0.3711111111111111,0.5966666666666667,-10.213450764921353,-7.671929541047188,4.066447155785391
1588960322.988856,1.4559604056011588,3.6507754707870594,-8.530694350555287,-0.5077777777777778,-0.3711111111111111,0.5966666666666667,-8.621957991308546,-4.925778609367455,1.7635260743602124
1588960322.998856,1.2048289715113472,3.658876484789957,-8.433482182520521,-0.5077777777777778,-0.3711111111111111,0.5966666666666667,-4.672713664896185,-2.191686383389667,0.599005311443747
1588960323.008856,0.9792415598010992,4.615178749018582,-8.562231876472127,-0.5077777777777778,-0.3855555555555555,0.62,2.5256640931693273,-2.2318535723632555,0.8264492279507982
1588960323.018856,0.9811046638713908,4.621997098742126,-8.713767462194225,-0.5077777777777778,-0.3855555555555555,0.62,3.1569585477813327,-4.2207849790354315,1.4624637342765734
1588960323.028856,1.1140309387582115,4.631628734901462,-8.926046408137317,-0.5077777777777778,-0.3855555555555555,0.62,2.7364364801864802,-5.351256887052342,2.313466836194109
1588960323.038856,1.1333627760252365,4.442241850683492,-8.916372239747634,-0.5077777777777778,-0.3855555555555555,0.62,2.110436382754995,-5.922936382754995,2.7914826498422713
1588960323.048856,1.208754974794375,4.447359821349607,-8.646388520385603,-0.504366935919735,-0.3855555555555555,0.6173917091673791,1.6128587379499426,-5.222213009640046,2.658857621384983
1588960323.058856,1.4800293296582918,4.374473656312944,-8.65760238877699,-0.4888888888888889,-0.3855555555555555,0.6055555555555555,2.168128732464045,-4.769371267535956,2.6507672532598323
1588960323.068856,1.7024817380203778,4.330656958464339,-8.881970875393016,-0.4888888888888889,-0.3855555555555555,0.6055555555555555,2.5392337060589583,-3.9329374601073264,0.9169700479894092
1588960323.078856,1.68,4.37,-9.0,-0.4888888888888889,-0.3855555555555555,0.6055555555555555,2.75,-3.125,-0.3125
1588960323.088856,1.5249187275860463,4.410810861161567,-8.910216105444553,-0.4888888888888889,-0.3855555555555555,0.6055555555555555,2.8010135764519584,-1.4925655535373294,-2.5060837874342137
1588960323.098856,1.383093579363585,4.394604280424277,-8.751655055545095,-0.49323737595626127,-0.3837650020572257,0.6073461090538853,2.6870488922362394,1.229762913450072,-5.412767526517291
1588960323.108856,1.2573624532721153,4.434308892646078,-8.525176286277125,-0.5077777777777778,-0.37777777777777777,0.6133333333333333,3.802054088011292,3.1483164389086227,-6.611336456281314
1588960323.118856,1.0101375855062122,4.492862150801161,-8.369034264530239,-0.5077777777777778,-0.37777777777777777,0.6133333333333333,4.9812516480789215,4.408837968636089,-7.180604243900169
1588960323.128856,0.74,4.484776142382067,-8.267230570267273,-0.5077777777777778,-0.37777777777777777,0.6133333333333333,7.957607156053701,5.225435706367779,-6.718180348565094
1588960323.138856,0.7215417635485601,4.311400465033089,-8.015700232516545,-0.5077777777777778,-0.37777777777777777,0.6133333333333333,10.889319889107494,3.304898497585405,-4.818335270971204
1588960323.148856,0.6533428724736183,3.984045787873368,-7.8520228939366845,-0.5077777777777778,-0.37777777777777777,0.6133333333333333,13.020535235199429,1.4294289930245037,-3.4543574494723663
1588960323.158856,0.5893779739441473,3.75436369901224,-7.727492862534047,-0.5077777777777778,-0.3855555555555555,0.6133333333333333,20.14497362419191,-2.672068306369573,-0.1873810422341089
1588960323.168856,0.6237879434253273,3.623605814983756,-7.644908935779214,-0.5077777777777778,-0.3855555555555555,0.6133333333333333,25.263456584517442,-4.908716322646278,1.1890177370130934
1588960323.178856,0.7376666423836234,3.564666715232753,-7.891333139068988,-0.5077777777777778,-0.3855555555555555,0.6133333333333333,37.63335488453413,-8.872923799810593,3.691670612661179
1588960323.188856,0.7707229336183765,3.6229853188193974,-7.863935778015314,-0.5077777777777778,-0.3855555555555555,0.6133333333333333,46.28982788333588,-11.619896762723327,5.404116947710564
1588960323.1988559,0.8792360623217754,3.767324874984502,-7.970637062445758,-0.5068860694392785,-0.3827318124836412,0.6145222777846656,53.48605586436335,-13.638530861263794,7.175555079142042
1588960323.2088559,0.6799677076070604,3.750330997027632,-7.9107023595464385,-0.5011111111111111,-0.3644444444444445,0.6222222222222222,59.06714203148508,-15.75176599023889,8.314366903966826
1588960323.2188559,0.6816669813101756,4.069721540494619,-8.83208372663772,-0.5011111111111111,-0.3644444444444445,0.6222222222222222,65.98438384934869,-17.655379814045688,11.861988507645837
1588960323.2288558,0.76,3.9,-8.93,-0.5011111111111111,-0.3644444444444445,0.6222222222222222,68.1875,-17.125,14.1875
1588960323.2388558,1.16356558915537,3.842983315954119,-9.019064442127215,-0.5011111111111111,-0.3644444444444445,0.6222222222222222,68.3574582898853,-12.919242700729926,17.849403023983317
1588960323.2488558,1.4172354535974974,3.711774765380605,-9.001569968717414,-0.5011111111111111,-0.3644444444444445,0.6222222222222222,68.0294369134515,-10.240401459854015,19.708190823774764
1588960323.2588558,1.2626871950193506,2.944790720174996,-8.990517625778226,-0.5011111111111111,-0.3466666666666667,0.6433333333333333,67.9405287733468,-9.473705935554435,20.1413821933367
1588960323.2688558,1.0079491004008576,2.712305397594854,-9.017694602405145,-0.5011111111111111,-0.3466666666666667,0.6433333333333333,69.4774983686026,-9.503181224946397,20.48236342873124
1588960323.2788558,1.0080942904802317,2.771748558719382,-8.889895232799743,-0.5011111111111111,-0.3466666666666667,0.6433333333333333,72.96459534400515,-11.033378083755231,20.831020821749437
1588960323.2888558,1.1395335593996365,2.232565709461876,-8.706793006252594,-0.5011111111111111,-0.3466666666666667,0.6433333333333333,77.10368019487488,-15.018221230201313,20.186953613483855
1588960323.2988558,1.02551072384141,1.830485184072341,-8.694790602509622,-0.5011111111111111,-0.3466666666666667,0.6433333333333333,79.12908582650127,-16.255969116195217,19.249265821064228
1588960323.3088558,0.8614066459132701,0.9037044812857453,-8.498426120321437,-0.5011111111111111,-0.2909176540617937,0.6686737936082756,84.61281492072685,-18.004352783609644,19.4451603561862
1588960323.3188558,0.5642412957807585,0.8085680971835569,-8.487143967605482,-0.5011111111111111,-0.2855555555555556,0.6711111111111111,91.67067003506996,-18.571497975342563,21.821789471781337
1588960323.3288558,0.15594877004571517,1.1130222770481097,-8.916848559611058,-0.5011111111111111,-0.2855555555555556,0.6711111111111111,104.68729137943545,-21.832795152746534,26.42564037442856
1588960323.3388557,0.33188368502316007,1.6222233659289758,-9.348795676788471,-0.5011111111111111,-0.2855555555555556,0.6711111111111111,113.59276891405044,-25.597819094184253,30.431388317035513
1588960323.3488557,1.4386040182502202,1.8428600016008967,-9.957870007204034,-0.5011111111111111,-0.2823028896181862,0.6733324439463877,120.69196249899944,-26.20983750900504,33.74112503001681
1588960323.3588557,0.4817677899623787,1.758926999119507,-9.58017149603778,-0.5011111111111111,-0.24406674404333092,0.6994449336072645,120.7444206255503,-25.737714370047225,32.16738123349076
1588960323.3688557,0.6215284613556906,1.1381003699806524,-9.57978174535827,-0.5011111111111111,-0.24,0.7022222222222222,117.66634809578765,-25.1614348206103,32.93149630019347
1588960323.3788557,0.9916849394114253,0.8177726485862666,-9.99264858626659,-0.5011111111111111,-0.24,0.7022222222222222,116.91001875360647,-21.468768032313907,36.134773514137336
1588960323.3888557,1.316580958999305,-0.02270326615705348,-9.90328700486449,-0.5011111111111111,-0.24,0.7022222222222222,116.85623697011813,-14.452701528839471,38.376824183460734
1588960323.3988557,0.5204905547226386,-0.9669940029985007,-9.800122638680659,-0.5011111111111111,-0.23274032983508244,0.704471697484591,118.24156296851574,-12.59279047976012,34.562886056971514
1588960323.4088557,0.9598739803643823,-0.721012390302675,-9.920886370667057,-0.5011111111111111,-0.16111111111111112,0.7266666666666667,121.31330085152803,-13.899522134844267,29.312486771194582
1588960323.4188557,1.1032828603526594,-0.6527224474511145,-9.996005307803774,-0.5011111111111111,-0.16111111111111112,0.7266666666666667,123.7888112798971,-13.088579063481985,25.940670842898776
1588960323.4288557,0.8592042487842333,-0.38667494241105704,-10.25458971077553,-0.5011111111111111,-0.16111111111111112,0.7266666666666667,126.48843262093678,-11.790985730739697,18.542606219605837
1588960323.4388556,0.8988843092666288,0.307369243888573,-10.447768618533258,-0.5011111111111111,-0.16111111111111112,0.7266666666666667,127.03162308129619,-11.734561540648096,12.796572981807845
1588960323.4488556,0.6293484188041609,0.6041102408697011,-10.54016289529896,-0.5011111111111111,-0.16111111111111112,0.7266666666666667,125.50775402462533,-10.03579289894587,11.806077748641092
1588960323.4588556,0.20788238949739768,0.8510588052513012,-10.571808824671795,-0.4847287604546984,-0.0910310555253459,0.7284869278507126,120.32463295269169,-7.98740823817292,14.645495902276082
1588960323.4688556,0.27246163812300095,1.35160613790032,-10.48370460342524,-0.4811111111111111,-0.07555555555555556,0.7288888888888889,111.48930624721649,-9.601846228592251,20.360673762095633
1588960323.4788556,0.6970031175351229,1.2836795011943805,-10.432759625895786,-0.4811111111111111,-0.07555555555555556,0.7288888888888889,105.33345479574072,-9.920252338151343,23.279396433053968
1588960323.4888556,0.3904506579568411,1.1152253289784206,-10.662182490984954,-0.4811111111111111,-0.07555555555555556,0.7288888888888889,99.80398054448996,-12.324860290369475,21.471438584401607
1588960323.4988556,0.39477163461538467,0.8113281250000001,-10.873900240384616,-0.4811111111111111,-0.07555555555555556,0.7288888888888889,90.59038837139423,-19.222243088942307,17.584547776442307
1588960323.5088556,0.8251863179074448,-0.1157859154929578,-10.904529979879277,-0.4711174156047396,0.0007599374021909217,0.750693315448245,83.75977615694165,-21.544164989939638,17.84633299798793
1588960323.5188556,0.9238577938567503,-0.8411355967579226,-11.117893345392563,-0.4688888888888889,0.017777777777777778,0.7555555555555555,73.41620756078895,-23.204513731867674,18.050444394197655
1588960323.5288556,1.0405809301840192,-1.140238633596549,-11.205435697638015,-0.4688888888888889,0.017777777777777778,0.7555555555555555,67.8080256200647,-22.064639353671687,17.68568459317494
1588960323.5388556,1.104612631813338,-1.3894278943266585,-10.57343263404005,-0.4688888888888889,0.017777777777777778,0.7555555555555555,58.79037504175083,-13.416641483625721,15.013036199958647
1588960323.5488555,1.077928363526474,-1.4361253638286704,-10.293247817027979,-0.4688888888888889,0.017777777777777778,0.7555555555555555,54.03723975315318,-9.288918733001449,13.220186924434973
1588960323.5588555,0.8269306778619702,-1.4244695883678067,-10.107425762850706,-0.4744444444444445,0.06666666666666668,0.7566666666666667,47.49089474964161,-7.771658368318657,8.580622504095842
1588960323.5688555,1.076173964005763,-1.3750907181753802,-9.643609924055578,-0.4744444444444445,0.06666666666666668,0.7566666666666667,44.41538820785817,-10.297375216722424,3.611242704695856
1588960323.5788555,0.37332348960255934,-1.0509388458225668,-9.952011812476929,-0.4744444444444445,0.06666666666666668,0.7566666666666667,44.449732886263895,-17.881208728107953,-3.197061748902834
1588960323.5888555,-0.24669735462067358,-1.395458862603426,-10.710940012819018,-0.4744444444444445,0.06666666666666668,0.7566666666666667,45.1108089456357,-23.819961979955718,-10.627580191702599
1588960323.5988555,-0.1489395175387484,-1.261041836615779,-11.034762848152896,-0.4744444444444445,0.06666666666666668,0.7566666666666667,44.69075573942431,-16.640870819251838,-10.703953501922852
1588960323.6088555,0.7096319116587984,-1.3599171801232295,-10.010561334720332,-0.46630004534421593,0.10220586274039103,0.7507434673210459,40.522635432503805,-2.5669860766583987,-8.084560294470673
1588960323.6188555,0.9794776788268273,-1.9327176338221552,-8.507055245141975,-0.4622222222222222,0.12,0.7477777777777778,33.76589704227769,0.08634556341654112,-7.075747535231412
1588960323.6288555,0.4035902667861706,-2.172670722172429,-9.394881672037988,-0.4622222222222222,0.12,0.7477777777777778,34.065838402715535,0.5362576040733043,-7.325698668929613
1588960323.6388555,0.11171947781931588,-2.5457849703124684,-10.380978988824694,-0.4622222222222222,0.12,0.7477777777777778,36.063768217348716,-1.3448514124067892,-5.590334559485016
1588960323.6488554,0.38842706063453347,-2.1600713700245895,-9.953339997201175,-0.4622222222222222,0.12,0.7477777777777778,34.4391593030927,-3.8079681533755823,-0.9261347733951739
1588960323.6588554,0.3358541355113309,-2.0855124813067984,-9.252687219601977,-0.4622222222222222,0.1257669005713409,0.7494254636553037,30.04911279190153,-1.868306395950765,3.8862518693201427
1588960323.6688554,-0.14049618184413362,-2.1669126463031687,-8.823693798172995,-0.4622222222222222,0.12777777777777774,0.75,27.825593687553525,-0.6167303025977733,4.546649746645732
1588960323.6788554,-0.2078468455609478,-1.7478418498429917,-9.325082072509279,-0.4622222222222222,0.12777777777777774,0.75,29.602902868969455,0.5057807593491295,2.3951702112475024
1588960323.6888554,0.06799569910432804,-1.6789310395223083,-9.550780215879909,-0.4622222222222222,0.12777777777777774,0.75,32.24749462388041,-0.09423476418147275,-1.344100361191724
1588960323.6988554,-0.06335803912562374,-1.608875712466334,-8.94655302002213,-0.4622222222222222,0.12777777777777774,0.75,32.08330245109297,-2.174002286155709,0.6809364365200326
1588960323.7088554,0.49,-1.15,-9.35,-0.4688888888888889,0.16666666666666666,0.7688888888888888,32.0625,-2.4375,6.0
1588960323.7188554,0.48655584015119485,-1.1572327356824907,-9.34752020490886,-0.4688888888888889,0.16666666666666666,0.7688888888888888,31.908804366747074,-2.39703112177654,5.954364882003333
1588960323.7288554,-0.018616322500321983,-2.2004308161250163,-9.046006096252093,-0.4688888888888889,0.16666666666666666,0.7688888888888888,9.324569076546602,3.806386307045035,-0.7865560468810372
1588960323.7388554,-0.19868329541063837,-2.209434164770532,-10.216441420169149,-0.4688888888888889,0.16666666666666666,0.7688888888888888,0.4337622890997288,11.515503584767956,-4.16281178894947
1588960323.7488554,0.2754831444347573,-2.167163251961639,-9.711703901482128,-0.4688888888888889,0.16666666666666666,0.7688888888888888,1.1244051511188609,12.446216125399593,-4.196513549840163
1588960323.7588553,0.10210674157303368,-2.1146256482281762,-9.48,-0.46024182512244305,0.18081640737539614,0.7437337942955919,1.625,13.155615276577356,-3.8154744219965426
1588960323.7688553,-0.001683147485798439,-2.033052808752367,-9.467326741005682,-0.4566666666666666,0.18666666666666668,0.7333333333333333,2.204207868714496,11.142223332632021,-1.4990716389648644
1588960323.7788553,0.263052808752367,-2.0771754681253944,-9.573221123500947,-0.4566666666666666,0.18666666666666668,0.7333333333333333,1.5423679781190827,7.777870555438671,0.3209880601725228
1588960323.7888553,0.3392067162678464,-2.1885456464910518,-9.47145435350895,-0.4566666666666666,0.18666666666666668,0.7333333333333333,0.9449370349889403,3.060322617132516,0.2524790116629801
1588960323.7988553,0.3838627891214098,-2.181227442175718,-9.478772557824282,-0.4566666666666666,0.18666666666666668,0.7333333333333333,0.44404362238413964,3.1644854592052867,0.35965697280352454
1588960323.8088553,0.39921320249776987,-2.18,-9.489213202497771,-0.44950084250173455,0.18666666666666668,0.7333333333333333,0.31741748438893846,2.957169937555754,0.1446699375557538
1588960323.8188553,0.34977682033606206,-2.154888410168031,-9.49,-0.4488888888888889,0.18666666666666668,0.7333333333333333,0.20786837570012925,2.6236051271003875,0.020368375700129254
1588960323.8288553,0.3337638992181973,-2.15,-9.589777612508843,-0.4488888888888889,0.18666666666666668,0.7333333333333333,0.30442688965880027,2.9522562988626677,0.0779512597725335
1588960323.8388553,0.36940537726376854,-2.228810754527537,-9.602713547283479,-0.4488888888888889,0.18666666666666668,0.7333333333333333,0.42425672157971067,3.5815537726376854,-0.07202688631884271
1588960323.8488553,0.3238558173397153,-2.2331567452019145,-9.561927908669857,-0.4488888888888889,0.18666666666666668,0.7333333333333333,0.5427703424880338,4.284031940765525,-0.23027034248803385
1588960323.8588552,0.3070789463228575,-2.230831578529143,-9.458763161031428,-0.46272923923168274,0.1824543861275555,0.7297228071569524,0.388059219674997,4.817697365807144,-0.041710536771425166
1588960323.8688552,0.11919417606011809,-2.450805823939882,-9.403600375738057,-0.4744444444444445,0.17888888888888888,0.7266666666666667,-0.11000821926999466,4.194981213097155,0.1875
1588960323.8788552,-0.5098481828737804,-2.8327110448692396,-9.5755739068647,-0.4744444444444445,0.17888888888888888,0.7266666666666667,-0.4294607112528379,3.0133988145786037,0.18568569002270324
1588960323.8888552,-0.16820401726139927,-2.7091376232647613,-9.670071229268123,-0.4744444444444445,0.17888888888888888,0.7266666666666667,-0.29316649624789864,3.2405558395868357,-0.9046680300168108
1588960323.8988552,0.2440309977230387,-2.8776309252742704,-9.677753829434899,-0.4744444444444445,0.17888888888888888,0.7266666666666667,0.3988466414820948,4.980962792382529,-5.884618867729249
1588960323.9088552,0.8466621332815233,-2.846528722233016,-9.59412106297088,-0.47904316790075485,0.17888888888888888,0.7366305674886726,1.35792155084947,7.37324736092222,-14.61365034648015
1588960323.9188552,1.0304928719822337,-2.3160376817823627,-9.550123217995559,-0.4811111111111111,0.17888888888888888,0.7411111111111112,2.3047988752775987,7.014632136972562,-28.491770542302458
1588960323.9288552,0.7983749561774349,-2.2671064733661916,-9.412740714771815,-0.4811111111111111,0.17888888888888888,0.7411111111111112,1.8835647336619166,6.302980192200614,-28.46414927512322
1588960323.9388552,0.5593919655510738,-2.1549196010029434,-9.399552763545188,-0.4811111111111111,0.17888888888888888,0.7411111111111112,1.5139761392129074,5.888976139212907,-21.9893846069988
1588960323.9488552,0.3999406219992553,-2.339548688000941,-9.423693586000118,-0.4811111111111111,0.17888888888888888,0.7411111111111112,1.253191812498775,9.626484450018618,-17.195590987477708
1588960323.9588552,0.522475631683543,-2.20536860035961,-9.41522948802877,-0.47208468712869206,0.18463297687770103,0.7288023511350852,1.3259735497302925,11.640472698022144,-13.369002555124444
1588960323.9688551,0.033150406942855204,-1.373076790224736,-9.416668897476306,-0.4688888888888889,0.18666666666666668,0.7244444444444444,0.8331520800500852,5.997992271324021,-7.6442299389046005
1588960323.9788551,-0.3597065241929415,-1.1645720144480398,-9.474865490255098,-0.4688888888888889,0.18666666666666668,0.7244444444444444,-0.02979790616299194,-0.08618382684927406,-0.7921789167732713
1588960323.9888551,-0.12353290031064673,-1.458822366563118,-9.632619316577237,-0.4688888888888889,0.18666666666666668,0.7244444444444444,-0.6587563541372494,-2.883692812764756,7.839531558881672
1588960323.998855,0.2964167086059386,-1.6570139238382822,-9.618135379969804,-0.4688888888888889,0.18666666666666668,0.7244444444444444,-0.5662325952021473,-1.8064450176144944,13.133377369568864
1588960324.008855,0.8000302090786231,-1.9835471818109547,-9.496587169091343,-0.4778307761613271,0.18318926606071848,0.729412159595799,-0.46544339772636933,-1.496367954527387,15.02794339772637
1588960324.018855,1.2072793377335271,-2.275680165566618,-9.3937590893836,-0.4888888888888889,0.17888888888888888,0.7355555555555555,-0.3529984478129545,-1.844496378230227,12.71047516500727
1588960324.028855,1.1672140098548407,-2.2724046699516136,-9.362404669951612,-0.4888888888888889,0.17888888888888888,0.7355555555555555,-0.4549124384072446,-1.7974708128024148,9.8313717982865
1588960324.038855,1.2369760934942327,-2.2581575240778102,-9.377763713883285,-0.4888888888888889,0.17888888888888888,0.7355555555555555,-0.6480309490273707,-4.366033870722144,6.941543501846283
1588960324.048855,1.1592770246784845,-2.2321741397288846,-9.467245394508168,-0.4888888888888889,0.17888888888888888,0.7355555555555555,-1.0099604622871046,-10.581465067778936,2.800758168230796
1588960324.058855,0.7498772102161101,-2.208567043222004,-9.428536345776031,-0.480631753438114,0.17571306756166777,0.7266632558393363,-1.0088600503438114,-12.874712211444008,-0.9650394462180745
1588960324.068855,0.6572459705676243,-2.238748939623059,-9.476246818869177,-0.4744444444444445,0.17333333333333334,0.72,-0.5843829528270572,-9.454765702799396,-3.745276712278243
1588960324.078855,0.1984917887915163,-2.2324032206593514,-9.747556521098755,-0.4744444444444445,0.17333333333333334,0.72,-0.005090581044259468,-5.8205132925841365,-6.654537030218229
1588960324.088855,0.18784747161562312,-1.907706943855814,-9.57340188708706,-0.4744444444444445,0.17333333333333334,0.72,-0.6605933951952889,-12.203588197898775,-6.535154245945885
1588960324.098855,0.18526665372754522,-1.9505000970434108,-9.478433288046409,-0.4744444444444445,0.17333333333333334,0.72,-0.9045834142028423,-15.65083511246253,-4.641873423044576
1588960324.108855,0.28051548792795594,-2.1400644359909946,-9.350161089977487,-0.4744444444444445,0.18666666666666668,0.72,-0.49818773775328,-7.486810758093315,-1.3729863752814222
1588960324.118855,0.5410107910876485,-2.1726263488859563,-9.43156587221489,-0.4744444444444445,0.18666666666666668,0.72,0.41761606241751426,-0.8217942124058695,-0.35542659731387305
1588960324.128855,0.5694419590299035,-2.1850930068283496,-9.52639510242524,-0.4744444444444445,0.18666666666666668,0.72,0.7523251707087356,-1.8590034141747114,-0.5069755121262067
1588960324.138855,0.54,-2.19,-9.549044578976334,-0.4744444444444445,0.18666666666666668,0.72,0.875,-6.56629746835443,-1.2669647771051182
1588960324.148855,1.35563268057452,-2.273317316832881,-9.45245951224571,-0.4744444444444445,0.18666666666666668,0.72,0.7379649394196035,-10.638047254437666,-3.519420726964758
1588960324.158855,2.1043818034716093,-2.484335834068844,-9.468256472491909,-0.47676301853486325,0.18396166356117813,0.7254100062109771,0.7363930567814063,-8.005822024860253,-10.124482844218889
1588960324.168855,1.3002381350733367,-2.68,-9.553500641347387,-0.4811111111111111,0.17888888888888888,0.7355555555555555,1.0625,1.0126282694774411,-25.94566323685238
1588960324.178855,0.3718165289256199,-2.1650512396694213,-9.58860826446281,-0.4811111111111111,0.17888888888888888,0.7355555555555555,1.241301652892562,3.4300103305785123,-32.31612603305785
1588960324.188855,-0.32233020903072235,-1.893313992412408,-9.527756825113443,-0.4811111111111111,0.17888888888888888,0.7355555555555555,1.243035408762925,2.798298835825337,-31.770349810310197
1588960324.198855,-0.9387765655546446,-2.022158037459797,-9.43015292930567,-0.4811111111111111,0.17888888888888888,0.7355555555555555,1.009611291543167,0.7634345241849025,-25.74123809673961
1588960324.208855,-0.9532043426409508,-1.944834889172184,-9.3651083604063,-0.4668959986840482,0.17178133267535742,0.7303864237638963,0.6569272525393758,0.49287278447176874,-16.62664493975408
1588960324.218855,-0.10372808366656405,-2.107308520455245,-9.443309750845893,-0.4566666666666666,0.16666666666666666,0.7266666666666667,0.5,-0.8611965549061826,-6.721585665948939
1588960324.228855,0.34720701269539683,-2.2051994990931862,-9.591003756801106,-0.4566666666666666,0.16666666666666666,0.7266666666666667,0.3612453039986182,-1.0374843466620607,-1.8499060799723637
1588960324.238855,0.37951201018225145,-2.175707206109351,-9.621902402036449,-0.4566666666666666,0.16666666666666666,0.7266666666666667,0.5655499363609283,-1.2798798981774853,-0.5207300890947003
1588960324.2488549,0.6406187480849991,-2.1574130814844183,-9.588532703711046,-0.4566666666666666,0.16666666666666666,0.7266666666666667,0.5463317592776166,-1.3356658796388083,-0.7915070832507254
1588960324.2588549,1.0723745819397994,-2.2010702341137125,-9.518929765886288,-0.47747305834262355,0.17234113712374582,0.7342326272761055,0.6595944816053512,-0.19533862876254182,-4.564276755852843
1588960324.2688549,1.12,-2.21,-9.51,-0.4811111111111111,0.17333333333333334,0.7355555555555555,0.6875,0.0,-5.1875
1588960324.2788548,1.3687496043767238,-2.4135224035809557,-9.52507573359859,-0.4811111111111111,0.17333333333333334,0.7355555555555555,1.0172816724691414,1.7431316973368902,-16.588523533933174
1588960324.2888548,0.6676001791746767,-2.2771556020082495,-9.425680023889957,-0.4811111111111111,0.17333333333333334,0.7355555555555555,1.233666641781295,3.000722064614868,-25.745832089064745
1588960324.2988548,0.0864943917920181,-2.0624719589600904,-9.336494391792018,-0.4811111111111111,0.17333333333333334,0.7355555555555555,1.3758075384749153,1.5163637944526562,-29.64529497435006
1588960324.3088548,0.06293425710914005,-1.9476055426548402,-9.314401385663711,-0.4822522110979989,0.1741484047525389,0.7384898126646956,1.444982679203624,-2.6317474970497545,-28.22374519395485
1588960324.3188548,0.11127282044712061,-2.1313093331625135,-9.440073025430786,-0.4888888888888889,0.17888888888888888,0.7555555555555555,0.773180769969893,-4.320455127794504,-16.95839872525783
1588960324.3288548,0.21679978000430428,-2.274033095004663,-9.651899615007533,-0.4888888888888889,0.17888888888888888,0.7555555555555555,0.7433328750089672,-4.030626031229824,-13.021463031158087
1588960324.3388548,0.2297032978048047,-2.284629122256006,-9.689703297804805,-0.4888888888888889,0.17888888888888888,0.7555555555555555,0.6222184169200441,-2.0356113635604265,-11.456232876140199
1588960324.3488548,0.26752611832611833,-2.2492138528138526,-9.64123694083694,-0.4888888888888889,0.17888888888888888,0.7555555555555555,0.45997113997114,0.536489898989899,-10.1755772005772
1588960324.3588548,0.3900382144064931,-2.250038214406493,-9.42301487994589,-0.4792408597302071,0.1573663623041371,0.7518447751099087,0.5834925600270544,2.0627388400405815,-8.790552079810618
1588960324.3688548,0.28801983074152254,-2.1853465538276815,-9.31511551794256,-0.4744444444444445,0.14666666666666667,0.75,0.5472359935705018,1.8528259774967561,-7.839005945349265
1588960324.3788548,0.19022171084657255,-2.144963048192238,-9.32481524096119,-0.4744444444444445,0.14666666666666667,0.75,0.37592379519405233,2.1527857680223037,-6.568966566358366
1588960324.3888547,0.15383272236156667,-2.15,-9.319163611807834,-0.4744444444444445,0.14666666666666667,0.75,0.32709097048041674,3.126091308122709,-4.49258995755354
1588960324.3988547,0.3794886493923412,-2.2188465948177023,-9.391795459756937,-0.4744444444444445,0.14666666666666667,0.75,0.5542880073377665,3.76021841320798,-2.6742719559734005
1588960324.4088547,0.6122959777205909,-2.2423128987908485,-9.501530651813727,-0.47905896131263637,0.14666666666666667,0.7538454307234932,0.8605443825571968,5.60066053865407,-1.2693446610498116
1588960324.4188547,0.8116413908942617,-2.1924534457418803,-9.60582069544713,-0.4811111111111111,0.14666666666666667,0.7555555555555555,1.1051185457951775,7.9886854579517745,-1.2681896732722837
1588960324.4288547,1.149220930669977,-2.2197539781063087,-9.704897490877629,-0.4811111111111111,0.14666666666666667,0.7555555555555555,1.03214695482075,7.103360230222322,-3.0560931798517847
1588960324.4388547,1.0744032166723299,-2.2735220296749348,-9.632830445124023,-0.4811111111111111,0.14666666666666667,0.7555555555555555,0.7315253709366859,3.2114820477970323,-7.540086646279307
1588960324.4488547,0.7194575910662058,-2.1998191970220686,-9.509819197022068,-0.4811111111111111,0.14666666666666667,0.7555555555555555,0.6875,2.5099630826498682,-10.542112367823615
1588960324.4588547,0.3509280466724287,-2.097984010371651,-9.382774416594641,-0.4811111111111111,0.14666666666666667,0.7494865792759051,0.6612400064822818,2.4937000324114087,-11.776259993517717
1588960324.4688547,-0.002756668258407813,-2.0915314823657822,-9.279693703526842,-0.4811111111111111,0.14666666666666667,0.7411111111111112,0.6894143529572276,2.537950235350297,-10.620834470291289
1588960324.4788547,-0.41182809840631285,-2.14,-9.413034710402806,-0.4811111111111111,0.14666666666666667,0.7411111111111112,1.4651735520140288,6.281169413069266,-6.8627975269482695
1588960324.4888546,-0.4714347762534194,-2.1532706884670803,-9.473317672116771,-0.4811111111111111,0.14666666666666667,0.7411111111111112,1.874412704378876,8.288828071164568,-5.211171928835432
1588960324.4988546,0.07158470629998537,-2.2583712334774164,-9.499592808369353,-0.4811111111111111,0.14666666666666667,0.7411111111111112,2.85973031385078,13.051196516945437,-0.4488034830545633
1588960324.5088546,0.6875302927161334,-2.2334567733151807,-9.65037031994554,-0.47880659556765753,0.14436215112321307,0.7391906814915664,3.094137168141593,17.016210006807352,3.01466133424098
1588960324.5188546,0.8964312860120143,-2.2332156430060075,-9.63268603653304,-0.4744444444444445,0.14,0.7355555555555555,1.9052654162069387,10.788701422091455,1.9454609537820278
1588960324.5288546,0.8109040732430352,-2.22,-9.530452036621519,-0.4744444444444445,0.14,0.7355555555555555,0.0973577968128142,-0.09770276135414457,-0.15955275398398217
1588960324.5388546,0.6990902057867863,-2.230303264737738,-9.44363530868018,-0.4744444444444445,0.14,0.7355555555555555,-0.7698896603744392,-5.11458736267987,-1.1912908092217236
1588960324.5488546,0.6983838383838383,-2.2444028520499106,-9.351592394533572,-0.4744444444444445,0.14,0.7355555555555555,-1.0575237670825905,-4.032791146761735,-1.3025475341651813
1588960324.5588546,0.8183274486726821,-2.2464260494311494,-9.499506996207664,-0.48235328305944236,0.1436502332069221,0.727038344739404,-1.553476853668105,-4.341988688374526,-1.5073721720936315
1588960324.5688546,0.7904134762633996,-2.2302067381316997,-9.609862174578867,-0.4888888888888889,0.14666666666666667,0.72,-2.99353943338438,-10.995286179173048,-2.712935490045942
1588960324.5788546,0.5543048320718336,-2.165837050680634,-9.60559789334331,-0.4888888888888889,0.14666666666666667,0.72,-3.8459921000374133,-17.89714219932656,-3.5930026333208622
1588960324.5888546,0.3484276687431621,-2.167751579699466,-9.563820751557373,-0.4888888888888889,0.14666666666666667,0.72,-2.3680225288588206,-15.276826981043605,-2.71491727510215
1588960324.5988545,0.4602310452233569,-2.1789949927059102,-9.57100500729409,-0.4888888888888889,0.14666666666666667,0.72,-0.5310935220596933,-7.492779836770098,-1.2023247447068564
1588960324.6088545,0.616339597695722,-2.1677453017282082,-9.499443290206818,-0.484616871806172,0.14666666666666667,0.7288726508641042,0.3380306213995656,-1.690153106997828,-0.1690153106997828
1588960324.6188545,0.5524582101167316,-2.228854474708171,-9.275083579766537,-0.4744444444444445,0.14666666666666667,0.75,0.25,-1.3207042801556421,-0.125
1588960324.6288545,0.54,-2.2544766797622646,-9.338663241664149,-0.4744444444444445,0.14666666666666667,0.75,0.21547924851415332,-0.9542094791981465,-0.125
1588960324.6388545,0.5204951473941204,-2.2451237868485303,-9.384628639454409,-0.4744444444444445,0.14666666666666667,0.75,0.03511833901656544,-0.5625,-0.1554763321966869
1588960324.6488545,0.5115329399739825,-2.220778433376696,-9.453820386545251,-0.4744444444444445,0.14666666666666667,0.75,-0.24513479139565136,-0.1780686675339156,-0.06736520860434864
1588960324.6588545,0.5155334561463765,-2.1948221812845414,-9.568933087707247,-0.4744444444444445,0.15309624171272157,0.75,-0.4073613669716177,1.0704112935960284,0.1852772660567646
1588960324.6688545,0.47891498648929537,-2.2,-9.621085013510704,-0.4744444444444445,0.16,0.75,-0.440890667220952,2.6065786738723755,0.34883600083142796
1588960324.6788545,0.5510289549194907,-2.181794209016102,-9.64,-0.4744444444444445,0.16,0.75,-0.5284465484123408,4.626648130142996,0.7219654841234082
1588960324.6888545,0.6436839501924773,-2.176316049807523,-9.58289382567367,-0.4744444444444445,0.16,0.75,-0.38404320523022,5.819074066108948,1.0115123443514915
1588960324.6988544,0.62,-2.2,-9.46605742280425,-0.4744444444444445,0.16,0.75,-0.061357667757966874,4.738576677579669,0.8102153355159337
1588960324.7088544,0.6158921075968076,-2.2082157848063853,-9.36713686077446,-0.4803780668046113,0.15452281012907676,0.7376763227904227,0.0881743275199527,3.243256724800473,0.5368256724800473
1588960324.7188544,0.5378880807286548,-2.2103850774304874,-9.37288207413232,-0.4888888888888889,0.14666666666666667,0.72,0.06490673394054562,2.9651398990891815,0.5901398990891815
1588960324.7288544,0.4507397497642892,-2.1861096246464338,-9.453150625589277,-0.4888888888888889,0.14666666666666667,0.72,0.260444537879367,4.6830437912493945,0.8900679739061743
1588960324.7388544,0.4538941131434848,-2.183894113143485,-9.493894113143485,-0.4888888888888889,0.14666666666666667,0.72,0.7795955178669507,9.276193973336884,1.5374814839472064
1588960324.7488544,0.484441431670282,-2.21,-9.520740238611713,-0.4888888888888889,0.14666666666666667,0.72,1.2383914045553146,14.907046502169198,2.414282809110629
1588960324.7588544,0.6030407663650879,-2.2116589675359233,-9.53,-0.4864926024481107,0.1475883152977352,0.7211059783572822,1.9475798296966471,21.697291112293772,3.8222911122937733
1588960324.7688544,0.9410863003236717,-2.216987671382333,-9.516946575990108,-0.4744444444444445,0.15222222222222226,0.7266666666666667,2.2685702076590175,21.753707222606103,4.3870376768374735
1588960324.7788544,1.0537675909517357,-2.2213898154904617,-9.471748149692484,-0.4744444444444445,0.15222222222222226,0.7266666666666667,1.2303877176065883,10.666255668195559,2.197881919107683
1588960324.7888544,0.8615707715689951,-2.2435951285948326,-9.502582950081914,-0.4744444444444445,0.15222222222222226,0.7266666666666667,-0.04951961984090958,-0.4825439669976115,-0.01897834711722568
1588960324.7988544,0.6827043328092378,-2.21067608320231,-9.42932391679769,-0.4744444444444445,0.15222222222222226,0.7266666666666667,-0.9830979199422636,-7.876639946387607,-1.2803986132948424
1588960324.8088543,0.5798762449952021,-2.1849690612488004,-9.485216571258396,-0.4878602811143098,0.1460732970818673,0.7233127074992003,-1.468556632805003,-9.651802554515072,-1.4363397968300189
1588960324.8188543,0.5828850689501307,-2.168557465524935,-9.577212672375326,-0.5011111111111111,0.14,0.72,-1.0799207976542082,-5.969592620529928,-0.8209049571850499
1588960324.8288543,0.6510619365413886,-2.1702123873082777,-9.691486711157944,-0.5011111111111111,0.14,0.72,-0.557190317293057,-2.3457967451118136,-0.2766040276314249
1588960324.8388543,0.7046523555811023,-2.18,-9.708824088607875,-0.5011111111111111,0.14,0.72,-0.1961911104724427,-1.6396988924015652,-0.20788611190944664
1588960324.8488543,0.7045106284300842,-2.182744685784958,-9.614319084795548,-0.5011111111111111,0.14,0.72,-0.0453457138440133,-2.7523942954317073,-0.3578457138440133
1588960324.8588543,0.6915422431784802,-2.1892288784107596,-9.530024580660122,-0.5011111111111111,0.14,0.72,-0.004819509932751029,-3.6439707814794775,-0.31731950993275104
1588960324.8688543,0.2793665582446662,-2.4110377271808443,-9.285417792234044,-0.4888888888888889,0.15222222222222226,0.7355555555555555,-0.2669306007313891,-4.739555194148887,0.1563344175533381
1588960324.8788543,0.15493511062465798,-2.3715202095223202,-9.308861699632555,-0.4888888888888889,0.15222222222222226,0.7355555555555555,-0.3069614377296537,-4.1479189469158,1.5047738644359314
1588960324.8888543,0.5435834251994035,-2.2182082874002984,-9.37282082874003,-0.4888888888888889,0.15222222222222226,0.7355555555555555,-0.21225115102781922,-1.1518951429868363,5.332963167109785
1588960324.8988543,1.7675215615070359,-1.6062392192464823,-9.31162392192465,-0.4888888888888889,0.15222222222222226,0.7355555555555555,-0.12725544711756698,0.3355296754425785,8.052825692237857
1588960324.9088542,0.6874836614824619,-2.2373529533421572,-9.655032677035077,-0.4888888888888889,0.15417937440252963,0.7369535213986322,0.04595595838848446,2.4164628660655194,2.635417097534745
1588960324.9188542,0.6236263951439202,-2.1970593303309185,-9.656470334834541,-0.4888888888888889,0.16,0.7411111111111112,-0.4172802036420599,-0.8658238691991385,0.17953299392990013
1588960324.9288542,0.30515629400168964,-2.4014675946413484,-9.596623888643038,-0.4888888888888889,0.16,0.7411111111111112,-0.4788993040189886,-4.01513658124472,0.578438669187754
1588960324.9388542,0.3748574627059956,-2.3338806591861707,-9.505047512431336,-0.4888888888888889,0.16,0.7411111111111112,-0.32815469526958424,-4.476577347634792,3.272234841581839
1588960324.9488542,0.7064455782312925,-1.9682227891156463,-9.340075113378685,-0.4888888888888889,0.16,0.7411111111111112,-0.4087921626984127,-5.049984056122449,7.367568381519274
1588960324.9588542,0.5037843806464566,-2.000119788529746,-9.262988021147025,-0.4931739870768178,0.16,0.7391633392075071,-0.6875,-5.81822592518236,8.452189152111357
1588960324.9688542,0.3639989023051592,-2.14978924259056,-9.304420417124039,-0.5011111111111111,0.16,0.7355555555555555,-0.4401344676180022,-3.7039654226125136,7.684865532381997
1588960324.9788542,0.4843076988934312,-2.1821538494467156,-9.432923096680293,-0.5011111111111111,0.16,0.7355555555555555,-0.06089740159671239,0.17916729093983408,8.519871952655123
1588960324.9888542,0.5269191462311436,-2.1930808537688566,-9.56075743869343,-0.5011111111111111,0.16,0.7355555555555555,0.21148932788929367,4.621994266643847,9.612845651695558
1588960324.9988542,0.5599639558459113,-2.171444018923181,-9.588592025230907,-0.5011111111111111,0.16,0.7355555555555555,0.3215251182698806,6.357625591349403,10.187274724036945
1588960325.0088542,0.613849101677201,-2.152886826257901,-9.553264072064898,-0.49918656027251057,0.15925156356276648,0.7349140386093553,0.1875,5.63337200766436,10.51804266411188
1588960325.0188541,0.6645382030355627,-2.178961556926031,-9.484807784630156,-0.4811111111111111,0.15222222222222226,0.7288888888888889,0.1875,5.014665423390819,10.661538923150781
1588960325.0288541,0.7729620739318291,-2.171216994719155,-9.446084973595775,-0.4811111111111111,0.15222222222222226,0.7288888888888889,0.1875,4.191805688910225,10.467924867978876
1588960325.0388541,0.8164736106256554,-2.177929045788186,-9.462070954211814,-0.4811111111111111,0.15222222222222226,0.7288888888888889,0.21035477105907024,3.2957095421181406,9.331507777001049
1588960325.048854,0.9850665851101014,-2.2145796924152394,-9.42542030758476,-0.4811111111111111,0.15222222222222226,0.7288888888888889,0.02710153792380285,2.9292030758476058,8.552681536176163
1588960325.058854,1.0873194221508828,-2.22,-9.422680577849118,-0.4811111111111111,0.15419475655430714,0.7288888888888889,0.26675361155698235,4.692917335473515,6.195224719101123
1588960325.068854,0.9716426491994178,-2.213186317321689,-9.477034206695778,-0.4811111111111111,0.16,0.7288888888888889,0.5212927583697234,5.791207241630277,3.7959606986899566
1588960325.078854,0.7743934426229507,-2.2105245901639345,-9.548590163934426,-0.4811111111111111,0.16,0.7288888888888889,0.5844262295081967,5.223770491803279,1.8959016393442623
1588960325.088854,0.663395814376706,-2.2185982061614453,-9.578193422591966,-0.4811111111111111,0.16,0.7288888888888889,0.625,3.5373878850903417,0.8874626283634472
1588960325.098854,0.62,-2.205658583868799,-9.481707080656005,-0.4811111111111111,0.16,0.7288888888888889,0.5012184778700186,2.0390215827900504,0.4115846270500133
1588960325.108854,0.62,-2.2187733533449028,-9.416133233275488,-0.4811111111111111,0.16,0.7288888888888889,0.21433289558025737,1.260332145146413,0.2066663539858981
1588960325.118854,0.68471608555523,-2.2274526809258717,-9.430189276296513,-0.4888888888888889,0.15222222222222226,0.7266666666666667,0.13973776736009375,1.2317133020802813,0.2965792557866979
1588960325.128854,0.6367721141558995,-2.218924038051967,-9.471835581428369,-0.4888888888888889,0.15222222222222226,0.7266666666666667,-0.04034857305125657,0.5098857021155758,0.2231009512991623
1588960325.138854,0.6259019202661156,-2.2020490398669423,-9.577950960133059,-0.4888888888888889,0.15222222222222226,0.7266666666666667,-0.40812900055440754,-2.795096013305781,0.01656450027720377
1588960325.148854,0.6974013568309421,-2.184982064878353,-9.580071740486588,-0.4888888888888889,0.15222222222222226,0.7266666666666667,-0.5622758109794136,-5.233534291172801,0.0625
1588960325.158854,0.7706085214089855,-2.2,-9.517110314279687,-0.4893705031756076,0.1527841055567274,0.7268272047622396,-0.75,-5.969105937565915,0.003803258806159039
1588960325.168854,0.6555992406665261,-2.2,-9.481722843282009,-0.49526841500855423,0.15966500269516512,0.7287931753732219,-0.75,-6.356156401603037,-0.7150047458342121
1588960325.178854,0.5900950134048257,-2.208557855227882,-9.462884289544236,-0.4955555555555556,0.16,0.7288888888888889,-0.6965134048257373,-7.444731903485255,-1.177892761394102
1588960325.188854,0.490170860882472,-2.23,-9.388375893941438,-0.4955555555555556,0.16,0.7288888888888889,-0.32478642389691,-7.21314072830927,-1.1875
1588960325.198854,0.4547986101740656,-2.23,-9.310556942382945,-0.4955555555555556,0.16,0.7288888888888889,-0.36900173728241803,-7.080494788152746,-1.1875
1588960325.208854,0.4803317208016586,-2.229958534899793,-9.300248790601245,-0.49552791215541736,0.16,0.7289165322890271,-0.31146337249481687,-4.295136489288183,-0.6226675881133379
1588960325.218854,0.5447454503570606,-2.2219068187053677,-9.348559087767795,-0.49016010135913385,0.16,0.7342843430853105,-0.11017046763418564,-0.9234803328726104,-0.16975855217691777
1588960325.228854,0.7718571587661012,-2.20864285979435,-9.6408571216452,-0.4888888888888889,0.16,0.7355555555555555,-0.025446378855933777,1.3272323582909535,0.278571494858755
1588960325.238854,0.7251482980066075,-2.200858049667768,-9.703135602657857,-0.4888888888888889,0.16,0.7355555555555555,-0.1714115687293515,0.6947165355061435,0.08395124169419801
1588960325.248854,0.5921043127051011,-2.1825359715722636,-9.624352511699255,-0.4888888888888889,0.16,0.7355555555555555,-0.5625,-5.585544136779355,-0.9225494669799413
1588960325.258854,0.511038807032107,-2.19,-9.485844771871573,-0.48738838984251215,0.16069253802140465,0.7361326705733927,-0.5300372802466574,-6.988656577035961,-1.0430223681479944
1588960325.268854,0.52,-2.19,-9.44171179456343,-0.4744444444444445,0.16666666666666666,0.7411111111111112,-0.21114903701607626,-5.372189086182198,-0.8102483950267938
1588960325.278854,0.52,-2.19,-9.412040217179845,-0.4744444444444445,0.16666666666666666,0.7411111111111112,-0.07206351803052544,-3.795886537679288,-0.5784391967175424
1588960325.288854,0.5228595941658852,-2.217619864721962,-9.45809932360981,-0.4744444444444445,0.16666666666666666,0.7411111111111112,0.0,-2.7351241545122607,-0.5476241545122609
1588960325.2988539,0.5007862649794687,-2.2107862649794687,-9.42,-0.4744444444444445,0.16666666666666666,0.7411111111111112,-0.004914156121679377,-2.6580150632699238,-0.5
1588960325.3088539,0.5095734517723959,-2.219573451772396,-9.42,-0.4744444444444445,0.16666666666666666,0.7411111111111112,-0.05983407357747424,-2.3284955585351543,-0.5
1588960325.3188539,0.5350247695491315,-2.22,-9.44502476954913,-0.48000550434425143,0.16666666666666666,0.7420379544277457,0.04176987312138124,-1.3740711419075688,-0.4478650634393094
1588960325.3288538,0.5688480787174485,-2.1815358950434023,-9.430767947521701,-0.4811111111111111,0.16666666666666666,0.7422222222222222,-0.17790065597873725,-0.045596884100997936,-0.13699918002657846
1588960325.3388538,0.5423233769776323,-2.18,-9.568383115111839,-0.4811111111111111,0.16666666666666666,0.7422222222222222,-0.07218073740680124,0.17297889388979812,-0.00968073740680124
1588960325.3488538,0.5234460170780209,-2.2011486723593405,-9.52,-0.4811111111111111,0.16666666666666666,0.7422222222222222,-0.04814159550824658,-0.13006638203298632,0.04814159550824658
1588960325.3588538,0.547976956369166,-2.2093256521230553,-9.52,-0.4811111111111111,0.16666666666666666,0.7422222222222222,0.0540706515381916,0.2787826061527664,-0.0540706515381916
1588960325.3688538,0.6,-2.18,-9.514067107065173,-0.4811111111111111,0.16,0.7411111111111112,0.16208058084266494,0.571015518005317,-0.06354854789333764
1588960325.3788538,0.6005758518411343,-2.18,-9.535758518411344,-0.4811111111111111,0.16,0.7411111111111112,0.0517027779787311,-0.5045666642552268,-0.3340944440425378
1588960325.3888538,0.6127345037620924,-2.180683625940523,-9.627949122178432,-0.4811111111111111,0.16,0.7411111111111112,-0.12927266212826943,-2.7360892153350056,-0.7174086348978861
1588960325.3988538,0.6323086340339884,-2.1893899528977236,-9.57864835142033,-0.4811111111111111,0.16,0.7411111111111112,-0.2027511775569066,-4.394886186790613,-1.14787676633536
1588960325.4088538,0.37991783039030563,-2.1806868217375968,-9.274038760815886,-0.4811111111111111,0.16,0.7411111111111112,-0.42032945656008136,-6.461879837320772,-1.474244184840122
1588960325.4188538,0.3574702802271836,-2.2995178318636897,-9.383011887909127,-0.4955555555555556,0.16666666666666666,0.7355555555555555,-0.3610675240060719,-5.981526410943016,-1.6893782725861746
1588960325.4288538,0.42900752161825656,-2.256595487029046,-9.354396991352697,-0.4955555555555556,0.16666666666666666,0.7355555555555555,-0.048092092920127616,-1.5551595998703753,-0.9292950828060241
1588960325.4388537,0.4740112452002194,-2.221977509599561,-9.519971886999452,-0.4955555555555556,0.16666666666666666,0.7355555555555555,0.07485943499725728,-0.12464858749314317,-0.19985943499725728
1588960325.4488537,0.49274624982752163,-2.1872537501724785,-9.484119374741283,-0.4955555555555556,0.16666666666666666,0.7355555555555555,-0.125,0.3835820307110051,-0.008582030711005106
1588960325.4588537,0.5092817015237232,-2.170718298476277,-9.508922552285584,-0.4955555555555556,0.16666666666666666,0.7355555555555555,-0.125,0.4352553172616349,-0.060255317261634904
1588960325.4688537,0.5212029275457746,-2.1887970724542254,-9.516014637728873,-0.4811111111111111,0.15222222222222226,0.7355555555555555,-0.125,0.8125,0.0
1588960325.4788537,0.5316529418511298,-2.18,-9.568264709255649,-0.4811111111111111,0.15222222222222226,0.7355555555555555,-0.06301468058263562,0.7505146805826356,0.01033088656956073
1588960325.4888537,0.537348166539343,-2.18,-9.599392666157371,-0.4811111111111111,0.15222222222222226,0.7355555555555555,0.2417130204354469,0.3877781226126814,0.04592604087089382
1588960325.4988537,0.5210498830135705,-2.1831496490407116,-9.519501169864295,-0.4811111111111111,0.15222222222222226,0.7355555555555555,0.18093823116518484,0.010005849321478709,-0.06906176883481516
1588960325.5088537,0.5289007019185775,-2.206702105755732,-9.440992980814226,-0.4811111111111111,0.15222222222222226,0.7355555555555555,0.13187061300889097,-0.38253509592887225,-0.11812938699110903
1588960325.5188537,0.4929573693965813,-2.1985213153017096,-9.37147868469829,-0.4888888888888889,0.16,0.75,0.04401644127136679,-0.8890986476282008,-0.1875
1588960325.5288537,0.5089571232208575,-2.1868713696625726,-9.394600274907996,-0.4888888888888889,0.16,0.75,-0.0559820201303596,-0.25,-0.20053595973928082
1588960325.5388536,0.5004139579863536,-2.16,-9.519586042013646,-0.4888888888888889,0.16,0.75,0.0025872374147101486,-0.24223828775586956,-0.3228489496588406
1588960325.5488536,0.51,-2.1578172686210566,-9.506725902931585,-0.4888888888888889,0.16,0.75,0.04885792888160304,-0.05567896444080152,-0.5625
1588960325.5588536,0.51,-2.143187945797946,-9.48478191869692,-0.4888888888888889,0.16,0.75,-0.04257533876283985,-0.009962330618580074,-0.5625
1588960325.5688536,0.6073485483314438,-2.1438566569724453,-9.430723123182334,-0.4955555555555556,0.16666666666666666,0.75,0.24698698674027703,-0.5609934933701385,-0.809486986740277
1588960325.5788536,0.5315408882535614,-2.254122344358456,-9.451397939567212,-0.4955555555555556,0.16666666666666666,0.75,0.16084191846995613,-0.517920959234978,-0.7233419184699561
1588960325.5888536,0.50896847193233,-2.2013468087443697,-9.5496847193233,-0.4955555555555556,0.16666666666666666,0.75,0.125,-0.5,-0.5193411512688124
1588960325.5988536,0.5259022923101935,-2.1502442692245163,-9.520244269224516,-0.4955555555555556,0.16666666666666666,0.75,0.125,-0.40061067306129083,-0.5
1588960325.6088536,0.5213357626519457,-2.1226715253038915,-9.492671525303892,-0.4955555555555556,0.16666666666666666,0.75,0.125,-0.5916059337013571,-0.8249089005520355
1588960325.6188536,0.5121472952053778,-2.127852704794622,-9.435031066437645,-0.48421275974110123,0.17190180319641482,0.7430198179603359,0.22315880993277776,-0.37960297516805563,-1.3657940496638887
1588960325.6288536,0.5168113374667848,-2.217440212577502,-9.474251550044288,-0.4811111111111111,0.17333333333333334,0.7411111111111112,0.1875,0.25,-1.7367139061116033
1588960325.6388535,0.47310477778356697,-2.3194221851716774,-9.532526962955245,-0.4811111111111111,0.17333333333333334,0.7411111111111112,0.1875,0.25,-1.5546032407648622
1588960325.6488535,0.49065436550277786,-2.333456344972221,-9.512801979469442,-0.4811111111111111,0.17333333333333334,0.7411111111111112,0.06658978439236175,0.6045510780381913,-0.7254612936458295
1588960325.6588535,0.4983704330549321,-2.256295669450679,-9.427925236395748,-0.4811111111111111,0.17333333333333334,0.7411111111111112,0.11481520659332572,0.3634239670333714,-0.43610876044004565
1588960325.6688535,0.5,-2.2498658118383776,-9.44946324735351,-0.4624756887497308,0.1601789175488296,0.7498807216341136,0.06333867601013866,0.37416132398986135,-0.06669338005069331
1588960325.6788535,0.5,-2.209023306340115,-9.45,-0.4622222222222222,0.16,0.75,-0.0911626012245704,0.2725582658502864,-0.0625
1588960325.6888535,0.4819280559687104,-2.163856111937421,-9.612647496281607,-0.4622222222222222,0.16,0.75,-0.06852517490222002,0.5323741254888998,0.1633993003911199
1588960325.6988535,0.4548508439094596,-2.1767661040603605,-9.5880847398491,-0.4622222222222222,0.16,0.75,0.14707630075450304,0.9816526015090061,0.13510592481137423
1588960325.7088535,0.45,-2.174295249896737,-9.522952498967369,-0.4622222222222222,0.16,0.75,0.4014281288723668,2.631306278397356,0.4102375051631557
1588960325.7188535,0.5040909090909091,-2.1429545454545456,-9.466477272727273,-0.47499368686868687,0.16,0.75,0.8160511363636364,5.291548295454545,0.8785511363636364
1588960325.7288535,0.6343624435406405,-2.0235234727870997,-9.457885916327742,-0.4811111111111111,0.16,0.75,0.6795305442580065,5.264891475403135,0.38024356720963026
1588960325.7388535,0.5657847084551084,-2.066384557215557,-9.432169265670666,-0.4811111111111111,0.16,0.75,-0.17769114431114474,3.9254825870138363,-0.3162490547528052
1588960325.7488534,0.5456844655670487,-2.205997577113037,-9.44431553443295,-0.4811111111111111,0.16,0.75,0.15262440592675425,4.215124405926754,-0.4197360451029727
1588960325.7588534,0.5871482822573523,-2.3307224233860286,-9.512864376343135,-0.4811111111111111,0.16,0.75,0.2142744119638494,3.8347592658011718,-0.3883872059819247
1588960325.7688534,0.6,-2.302755962231091,-9.523250851747298,-0.4863604486409899,0.1644994321684675,0.7342519874103638,0.1031356468412343,2.1267594665628344,-0.45936435315876567
1588960325.7788534,0.629331913245546,-2.1528950426026334,-9.529777304415182,-0.4888888888888889,0.16666666666666666,0.7266666666666667,-0.05971630518977536,-1.3137587141750582,-0.5611081525948877
1588960325.7888534,0.6157011510144828,-2.092804604057931,-9.58004597144931,-0.4888888888888889,0.16666666666666666,0.7266666666666667,-0.0625,-2.7155170923922434,-0.8752873215581902
1588960325.7988534,0.6005471361711611,-2.211792957432583,-9.51492422554045,-0.4888888888888889,0.16666666666666666,0.7266666666666667,-0.18066079786048586,-2.6591960106975705,-1.2363215957209717
1588960325.8088534,0.6239354151880766,-2.235956943458718,-9.462129169623847,-0.4888888888888889,0.16666666666666666,0.7266666666666667,-0.13763455169150698,-2.774596344925479,-1.3995963449254791
1588960325.8188534,0.5838061224489796,-2.230761224489796,-9.385328571428571,-0.4888888888888889,0.153321768707483,0.7482238095238095,-0.35596938775510206,-4.082831632653061,-1.5529846938775511
1588960325.8288534,0.5605643128922272,-2.220282156446114,-9.389717843553887,-0.4888888888888889,0.15222222222222226,0.75,-0.2535269555764194,-3.944553911152839,-1.5017634777882096
1588960325.8388534,0.5696737558384901,-2.0942411740996274,-9.515758825900372,-0.4888888888888889,0.15222222222222226,0.75,-0.43138292197169076,-3.6956561040377456,-1.3790780520188728
1588960325.8488533,0.5470215055793668,-2.0746810037195775,-9.474043011158734,-0.4888888888888889,0.15222222222222226,0.75,-0.4375,-3.2087813662368068,-1.375
1588960325.8588533,0.5258755198623262,-2.1123734404130214,-9.469416320091783,-0.4888888888888889,0.15222222222222226,0.75,-0.31979599885271764,-1.5617739853721497,-1.1101659974186147
1588960325.8688533,0.5067386189640363,-2.192613810359637,-9.489784143107892,-0.48635225919425046,0.15693310594083648,0.7471009946346989,-0.12634910557568063,0.2065345258990925,-0.5882800537774956
1588960325.8788533,0.4823870587368266,-2.2952258825263465,-9.51,-0.4811111111111111,0.16666666666666666,0.7411111111111112,-0.11008088289483381,0.375,-0.0699595585525831
1588960325.8888533,0.40515341641598623,-2.366530296519123,-9.601479157713793,-0.4811111111111111,0.16666666666666666,0.7411111111111112,-0.125,0.2710464116888698,0.041453588311130204
1588960325.8988533,0.44201484380957223,-2.3366542968253565,-9.576654296825357,-0.4811111111111111,0.16666666666666666,0.7411111111111112,-0.016635742063391204,-0.020910644841521997,0.1708642579366088
1588960325.9088533,0.4933419265964774,-2.2433161468070453,-9.519434418970777,-0.4811111111111111,0.16666666666666666,0.7411111111111112,-0.04514784020466398,-0.15279568040932795,0.05205647938600805
1588960325.9188533,0.5157801727718249,-2.204219827228175,-9.48843965445635,-0.4740464555011029,0.1705201151812166,0.7462490424638444,0.009752159647811287,-0.36813039911952816,0.036126079823905644
1588960325.9288533,0.52,-2.2,-9.471781207237344,-0.4688888888888889,0.17333333333333334,0.75,0.16523490953322184,-0.34589763570016724,0.0625
1588960325.9388533,0.5071563017098731,-2.212843698290127,-9.50853109487038,-0.4688888888888889,0.17333333333333334,0.75,0.1875,-0.1920903285300607,-0.05790967146993932
1588960325.9488533,0.5080787125314621,-2.2119212874685377,-9.449212874685378,-0.4688888888888889,0.17333333333333334,0.75,0.2884839066432766,0.6323792998245747,0.12745976660819158
1588960325.9588532,0.541852411263351,-2.202036897184162,-9.414073794368324,-0.4688888888888889,0.17333333333333334,0.75,0.3622693925989859,1.8576572445787032,0.23726939259898586
1588960325.9688532,0.5509521375167743,-2.2196826208277423,-9.364443308411612,-0.4688888888888889,0.15222222222222226,0.7355555555555555,0.12301638017338701,1.9523931241612882,0.36706552069354803
1588960325.9788532,0.577754489104735,-2.210748503631755,-9.48952094915543,-0.4688888888888889,0.15222222222222226,0.7355555555555555,0.0671781476984685,0.6122755447632435,0.14371259079387397
1588960325.9888532,0.58,-2.1902609343298147,-9.559217197010556,-0.4688888888888889,0.15222222222222226,0.7355555555555555,-0.24592290109664328,-1.0421145054832164,-0.18342290109664328
1588960325.9988532,0.553717650541272,-2.2075215663058185,-9.577521566305819,-0.4688888888888889,0.15222222222222226,0.7355555555555555,-0.3595097894113667,-1.829068525879567,-0.2970097894113667
1588960326.0088532,0.4971204254250063,-2.202445775060715,-9.504457750607152,-0.4688888888888889,0.15222222222222226,0.7355555555555555,-0.23335828238840967,-2.4568529645758312,-0.2180721882589398
1588960326.0188532,0.5562092509164172,-2.1915323054537312,-9.496935389092537,-0.4735931636368159,0.1644533365668324,0.7355555555555555,-0.028730727257464256,-1.5665381817164283,-0.29334618182835714
1588960326.0288532,0.5458176392572944,-2.19,-9.508060786914236,-0.4744444444444445,0.16666666666666666,0.7355555555555555,0.1511397546419098,-1.0727204907161805,-0.2117401635720601
1588960326.0388532,0.5193970889666453,-2.196867637011118,-9.544338185055592,-0.4744444444444445,0.16666666666666666,0.7355555555555555,0.144577268680511,-1.1716909252779562,-0.144577268680511
1588960326.0488532,0.5018072657276421,-2.208192734272358,-9.469879923004063,-0.4744444444444445,0.16666666666666666,0.7355555555555555,0.2274091784044731,-0.9427724647865807,-0.07379541079776344
1588960326.0588531,0.47967581797668296,-2.223549454682211,-9.436450545317788,-0.4744444444444445,0.16666666666666666,0.7355555555555555,0.12297386235426852,-0.5362636329447161,-0.10484204588191048
1588960326.0688531,0.4846350246465362,-2.2007299507069273,-9.408047463030195,-0.47932278599328987,0.15609692664416833,0.7241727586082496,0.10823445202042564,-0.2835310959591487,-0.03353109595914873
1588960326.0788531,0.5233900759673772,-2.215042556975533,-9.500170227902132,-0.4811111111111111,0.15222222222222226,0.72,-0.0315159810970807,0.16737594959221525,0.10434398739805381
1588960326.0888531,0.5360562922961242,-2.213943707703876,-9.568450338368992,-0.4811111111111111,0.15222222222222226,0.72,-0.0625,0.36355548055232756,0.08714817314922414
1588960326.098853,0.5546372876095896,-2.1953627123904105,-9.563406780976026,-0.4811111111111111,0.15222222222222226,0.72,-0.0625,0.4375,0.0625
1588960326.108853,0.550059730715208,-2.19,-9.52514932678802,-0.4811111111111111,0.15222222222222226,0.72,-0.0625,0.40643665848502475,0.0625
1588960326.118853,0.5328408088235295,-2.194772794117647,-9.5,-0.4811111111111111,0.15407830882352944,0.7250379493464052,-0.04758501838235294,0.28551011029411766,0.07741498161764705
1588960326.128853,0.51,-2.21,-9.495515901507792,-0.4811111111111111,0.16,0.7411111111111112,-0.08407684672889303,-0.16815369345778605,-0.015128077881488372
1588960326.138853,0.5158314292032137,-2.192505712390359,-9.542482862828923,-0.4811111111111111,0.16,0.7411111111111112,-0.1875,-0.4114464325200855,-0.1510535674799145
1588960326.148853,0.5130710941211065,-2.193857811757787,-9.545355470605532,-0.4811111111111111,0.16,0.7411111111111112,-0.10088867651383203,-0.6107226469723359,-0.08169433825691602
1588960326.158853,0.5154446342540164,-2.2,-9.486442925967868,-0.4811111111111111,0.16,0.7411111111111112,0.005557928175204896,-0.5854131077371927,-0.0625
1588960326.168853,0.52,-2.1937070186957874,-9.431121056087362,-0.47691579024163605,0.16419532086947505,0.7411111111111112,0.0625,-0.38200660054601376,-0.0625
1588960326.178853,0.5358892395398555,-2.197944619769928,-9.38027690115036,-0.4744444444444445,0.16666666666666666,0.7411111111111112,-0.08646162068614477,-0.11388450575180697,-0.012846126437951744
1588960326.188853,0.5333248580889309,-2.2066751419110693,-9.463451986754967,-0.4744444444444445,0.16666666666666666,0.7411111111111112,-0.125,0.18781782166508987,0.0
1588960326.198853,0.515825489697278,-2.21,-9.488738234545917,-0.4744444444444445,0.16666666666666666,0.7411111111111112,-0.125,0.3567953446960061,0.08859068939201221
1588960326.208853,0.5163289923783232,-2.2163289923783234,-9.467342015243354,-0.4744444444444445,0.16666666666666666,0.7411111111111112,-0.08544379763547981,0.4145562023645202,0.08544379763547981
1588960326.218853,0.5311435454158991,-2.197712909168202,-9.46,-0.4893025049989766,0.16295215152803363,0.7293484798387732,-0.13214715884936942,0.3330292617259459,0.09732357942468471
1588960326.228853,0.584265674205554,-2.069335814486115,-9.493199255654165,-0.5011111111111111,0.16,0.72,-0.014587210134554829,0.07708721013455483,-0.08249534783853418
1588960326.238853,0.6387001691229766,-1.8537738584199082,-9.538700169122977,-0.5011111111111111,0.16,0.72,0.03734295723604736,-0.12093802850930177,-0.3960950712732544
1588960326.248853,0.5984852750108273,-1.8889519272412298,-9.532038761368558,-0.5011111111111111,0.16,0.72,0.007403096578605453,0.09211238631442181,-1.1217247726288435
1588960326.258853,0.5725819192732465,-2.0435491515639477,-9.482901696872103,-0.5011111111111111,0.16,0.72,0.006045201816883644,0.22781780272532548,-1.6471821972746745
1588960326.268853,0.5891515736342042,-2.079527167458432,-9.441321258907363,-0.4967717405647928,0.15710708630245449,0.7214464568487727,0.03242373070071258,0.07075786817102137,-1.831363197743468
1588960326.278853,0.5630815412936157,-2.1063948623546147,-9.396918458706384,-0.4811111111111111,0.14666666666666667,0.7266666666666667,0.23873394485817087,-0.125,-2.097746788971634
1588960326.288853,0.5928249240381734,-1.9281632216373519,-9.405649848076347,-0.4811111111111111,0.14666666666666667,0.7266666666666667,0.14265577523858433,0.23570098857362948,-2.1426557752385844
1588960326.298853,0.5481823328586869,-1.7333345914323457,-9.385454888572458,-0.4811111111111111,0.14666666666666667,0.7266666666666667,0.11553101785928734,1.2291588035478394,-2.3674224553517815
1588960326.308853,0.5463602896801448,-1.6088340374170187,-9.36,-0.4811111111111111,0.14666666666666667,0.7266666666666667,0.12742908871454434,3.111081774290887,-2.4350709112854556
1588960326.318853,0.5544696092477381,-1.636166859654976,-9.385530390752262,-0.4850825052281296,0.16311958515145766,0.7312054028004021,0.2513259768806547,5.3018026416501485,-2.4069129884403275
1588960326.328853,0.4634546308252142,-1.8497088860194857,-9.489854443009742,-0.4888888888888889,0.17888888888888888,0.7355555555555555,0.22931828853151778,6.416363422936964,-2.395909144265759
1588960326.338853,0.43,-1.9993520249221182,-9.550805607476637,-0.4888888888888889,0.17888888888888888,0.7355555555555555,0.057464953271028046,6.196584890965732,-2.028239875389408
1588960326.3488529,0.39276298487836947,-2.1268162393162395,-9.537657790927021,-0.4888888888888889,0.17888888888888888,0.7355555555555555,0.0,6.0625,-1.0837134286653516
1588960326.3588529,0.42589529742765275,-2.16,-9.503774115755627,-0.4888888888888889,0.17888888888888888,0.7355555555555555,0.0409779441318328,5.898588223472669,0.04803682676848875
1588960326.3688529,0.5861829826166514,-2.006794144556267,-9.433257090576395,-0.4806926908610349,0.16375744637592762,0.7267288807563281,0.13342863677950595,5.245070905763953,0.8901075022872826
1588960326.3788528,0.5917061720288904,-1.5648742613263296,-9.359755745239658,-0.4744444444444445,0.15222222222222226,0.72,0.04573005581089956,3.1112606697307945,1.1402433519369666
1588960326.3888528,0.5667157622739019,-1.4443298880275623,-9.358954349698536,-0.4744444444444445,0.15222222222222226,0.72,-0.013991171403962102,2.114782515073213,1.125
1588960326.3988528,0.5946763645011692,-1.3783090887470768,-9.387661817749416,-0.4744444444444445,0.15222222222222226,0.72,-0.0625,0.6063409171984621,1.2711363906615403
1588960326.4088528,0.6738212637380881,-1.294949696184879,-9.353720656107846,-0.4744444444444445,0.15222222222222226,0.72,-0.15635479961483545,0.9377095992296709,1.7969273998074178
1588960326.4188528,0.7893327575037788,-1.221555459583963,-9.302222702080185,-0.4766912193990579,0.15757991634476198,0.7213826307413006,-0.32222162239976965,1.2305567552004606,1.7194540416036852
1588960326.4288528,0.84,-1.2839352874953092,-9.263852520535378,-0.4888888888888889,0.18666666666666668,0.7288888888888889,-0.2064522265771588,0.8842174665387983,0.20080890630863524
1588960326.4388528,0.6652072538860103,-1.4506735751295337,-9.337227979274612,-0.4888888888888889,0.18666666666666668,0.7288888888888889,0.11852331606217617,0.7521049222797928,-1.46324481865285
1588960326.4488528,0.3827317381489842,-1.6797316478555304,-9.439219503386004,-0.4888888888888889,0.18666666666666668,0.7288888888888889,0.27759142212189614,2.1736275395033857,-1.7070124153498871
1588960326.4588528,0.3500967800839978,-1.876135492117597,-9.488067746058798,-0.4888888888888889,0.18666666666666668,0.7288888888888889,0.24969756223750683,4.402479989652444,0.26600827804492067
1588960326.4688528,0.5308937853984017,-2.011811622313601,-9.5343176351928,-0.48265230472151105,0.16939612589546643,0.7404025827363557,-0.018455659865001167,5.262869501124991,3.84073143766002
1588960326.4788527,0.6250205517350407,-2.010022132637736,-9.579987352778435,-0.4744444444444445,0.14666666666666667,0.7555555555555555,-0.4998814322978421,-0.21729754564856574,5.468819164492926
1588960326.4888527,0.4951696381856965,-1.7101468990220148,-9.431402583812936,-0.4744444444444445,0.14666666666666667,0.7555555555555555,-1.5748732241316858,-10.743004688694812,4.0344307159818085
1588960326.4988527,0.6037259100642398,-1.4603265524625266,-9.248758029978587,-0.4744444444444445,0.14666666666666667,0.7555555555555555,-1.6221393201284795,-14.074344218415417,3.7079262580299783
1588960326.5088527,0.5825012001920307,-1.4398607777244359,-9.22,-0.4744444444444445,0.14666666666666667,0.7555555555555555,-0.703132501200192,-7.242258761401825,3.8506961113778204
1588960326.5188527,0.44244214504786394,-1.4194652870287183,-9.267290498466496,-0.48870665826767323,0.14666666666666667,0.7420439845651283,0.17223659345085035,3.7760618358685214,3.5811053626196596
1588960326.5288527,0.416970629928236,-1.3163524408611678,-9.29,-0.4955555555555556,0.14666666666666667,0.7355555555555555,0.33143356294852483,9.309021163728183,3.4128671258970495
1588960326.5388527,0.4075993682548039,-1.2882670878301308,-9.339602526980784,-0.4955555555555556,0.14666666666666667,0.7355555555555555,0.2608307010616829,9.330783320171975,3.2974960515925242
1588960326.5488527,0.3996444327136986,-1.3020666641529355,-9.412066664152935,-0.4955555555555556,0.14666666666666667,0.7355555555555555,0.16597224840692282,7.580139323554919,3.1875
1588960326.5588527,0.5407944553959761,-1.3677805938859164,-9.431904158453017,-0.4955555555555556,0.14666666666666667,0.7355555555555555,-0.14186633655621264,1.35009406583435,3.1706336634437875
1588960326.5688527,0.5670424606527112,-1.4596486122844894,-9.412218154510466,-0.4955555555555556,0.14666666666666667,0.7355555555555555,-0.18287884476986138,-2.053944115898495,3.1296211552301387
1588960326.5788527,0.5618914079984432,-1.527022671985988,-9.421891407998443,-0.4888888888888889,0.16,0.7566666666666667,-0.42567870000973046,-5.148642599980539,3.6688916999124257
1588960326.5888526,0.5697905244451166,-1.6006284266646502,-9.430209475554882,-0.4888888888888889,0.16,0.7566666666666667,-0.37369077778197907,-5.228397833402655,4.133509944417137
1588960326.5988526,0.5681891216605804,-1.6296847972323658,-9.42271631750913,-0.4888888888888889,0.16,0.7566666666666667,-0.17421199308091484,-2.372778925619835,5.126970017297713
1588960326.6088526,0.5840579999429696,-1.568106875017822,-9.353514499985742,-0.4888888888888889,0.16,0.7566666666666667,-0.030400781316832527,-0.11492343665345461,5.633435156405943
1588960326.6188526,0.4596906102924157,-1.5712375588303373,-9.315154694853792,-0.4888888888888889,0.16,0.7534364632358614,-0.1875,1.8144336856724017,6.211982100146594
1588960326.6288526,0.4644828584665277,-1.618274264535557,-9.365171415334723,-0.4888888888888889,0.16,0.75,-0.1875,0.7845002316423442,6.851285615010424
1588960326.6388526,0.4756065027094623,-1.7212130054189245,-9.44511463109629,-0.4888888888888889,0.16,0.75,-0.30942580241767403,-0.6096290120883702,7.455736765318883
1588960326.6488526,0.5,-1.7824197023110067,-9.483440396918658,-0.4888888888888889,0.16,0.75,-0.5,-1.9506156972189581,8.185492557775166
1588960326.6588526,0.47608270856595947,-1.7665157919923433,-9.426515791992344,-0.4888888888888889,0.16,0.75,-0.5,-2.5597932285851015,8.983759371510608
1588960326.6688526,0.45,-1.7447463011991902,-9.37525369880081,-0.4817888179411307,0.16,0.7428999290522418,-0.5,-2.2256210091886,9.835821912474692
1588960326.6788526,0.4456445827170568,-1.7643554172829432,-9.37306625184883,-0.4744444444444445,0.16,0.7355555555555555,-0.4727786419816052,-1.5402864198160522,10.666377654239133
1588960326.6888525,0.4464914039582637,-1.7602628940626044,-9.428948423749583,-0.4744444444444445,0.16,0.7355555555555555,-0.4577856373695741,-1.0860718131521294,11.57128402213063
1588960326.6988525,0.4363980524642289,-1.787203895071542,-9.48639805246423,-0.4744444444444445,0.16,0.7355555555555555,-0.4409951311605723,-1.0225121720985693,12.942536516295707
1588960326.7088525,0.41716685051970853,-1.8423889501732362,-9.462388950173237,-0.4744444444444445,0.16,0.7355555555555555,-0.375,-1.4861187716545219,13.661464078740892
1588960326.7188525,0.43671674719947795,-1.8489055823998262,-9.468905582399827,-0.4744444444444445,0.16,0.7355555555555555,-0.375,-2.3006977999782485,14.272398349983686
1588960326.7288525,0.4271619010186368,-1.7528380989813632,-9.410371425763978,-0.4622222222222222,0.17333333333333334,0.75,-0.66511905931676,-3.82791670760866,15.50845247453408
1588960326.7388525,0.39563550690343424,-1.8280094240622236,-9.433644930965658,-0.4622222222222222,0.17333333333333334,0.75,-0.7227219181464639,-4.043165754439392,16.787617800777795
1588960326.7488525,0.39,-1.9237703016241299,-9.474990977055942,-0.4622222222222222,0.17333333333333334,0.75,-0.7109515983500903,-3.6795324181490074,17.961177171951533
1588960326.7588525,0.3788053945843431,-2.0135838162469706,-9.438805394584342,-0.4622222222222222,0.17333333333333334,0.75,-0.7266779053840481,-3.1567116215361923,19.02147560847118
1588960326.7688525,0.36,-2.0556554211671534,-9.422390763138807,-0.4638160643147607,0.17333333333333334,0.7534533245338334,-0.7173845392350969,-3.0,19.926576313880776
1588960326.7788525,0.36,-2.0138307258690413,-9.432553817246028,-0.4688888888888889,0.17333333333333334,0.7644444444444445,-0.828461357787672,-3.007980678893836,20.799229504513704
1588960326.7888525,0.35671993244857964,-1.9875189191772746,-9.476240540411363,-0.4688888888888889,0.17333333333333334,0.7644444444444445,-0.958000422196377,-3.1035008443927543,21.747003799767395
1588960326.7988524,0.35003759937546797,-1.880601590007488,-9.529699204996255,-0.4688888888888889,0.17333333333333334,0.7644444444444445,-0.999765003903325,-3.18703000780665,22.122885035129926
1588960326.8088524,0.3471123123123123,-1.7967058258258257,-9.494844924924925,-0.4688888888888889,0.17333333333333334,0.7644444444444445,-1.0463903903903904,-3.643048048048048,22.848596096096095
1588960326.8188524,0.32012371700879766,-1.9869965786901271,-9.466501710654937,-0.45764031443466924,0.17333333333333334,0.7666941593352884,-0.9578178457966764,-3.8117267686950145,23.43904646260997
1588960326.8288524,0.3108085515253423,-2.1421700696613017,-9.469191448474657,-0.4355555555555555,0.17333333333333334,0.7711111111111111,-0.875,-3.809131035311074,23.778723276483305
1588960326.8388524,0.2852748070067451,-2.181427508912313,-9.5,-0.4355555555555555,0.17333333333333334,0.7711111111111111,-0.9409350875843143,-4.1023377189607855,24.00687017516863
1588960326.8488524,0.29,-2.1156950927095344,-9.478475463547673,-0.4355555555555555,0.17333333333333334,0.7711111111111111,-1.0269056705654092,-4.330717011696228,24.286434023392456
1588960326.8588524,0.28227640150254385,-2.1383198611573393,-9.45,-0.4355555555555555,0.17333333333333334,0.7711111111111111,-1.0464091697969664,-4.357045848984832,24.5
1588960326.8688524,0.2650045559683185,-2.1124020466811526,-9.429981776126725,-0.4408381424110028,0.17833788930165184,0.7727792964338839,-1.0312784748019905,-4.093721525198009,24.5
1588960326.8788524,0.2712366946363448,-1.827974323242506,-9.402132119666735,-0.4566666666666666,0.19333333333333333,0.7777777777777778,-1.125,-3.8722017967800277,24.554770658522845
1588960326.8888524,0.25,-1.904963694996359,-9.506313533756373,-0.4566666666666666,0.19333333333333333,0.7777777777777778,-1.0780115468636222,-3.4685230937272444,24.66400577343181
1588960326.8988523,0.23332844881724932,-1.9994794501430464,-9.558335775591376,-0.4566666666666666,0.19333333333333333,0.7777777777777778,-1.0,-3.451429593189589,24.590267601702603
1588960326.9088523,0.19,-2.3324463099345936,-9.557553690065406,-0.4566666666666666,0.19333333333333333,0.7777777777777778,-0.9824638203635989,-4.0404703352732145,24.464927640727197
1588960326.9188523,0.19,-2.3719494119542452,-9.495487352988562,-0.4411231047383778,0.1903249019923742,0.7842960456831892,-0.9939080876429838,-4.681408087642984,24.572428306750442
1588960326.9288523,0.19490152871505304,-2.2715755405591516,-9.470393885139787,-0.4222222222222222,0.18666666666666668,0.7922222222222223,-1.0318654455309186,-4.443654455309186,24.84313455446908
1588960326.9388523,0.19505590598541048,-2.2073043290510634,-9.484608658102125,-0.4222222222222222,0.18666666666666668,0.7922222222222223,-1.0,-3.985947355839669,24.81319882481763
1588960326.9488523,0.18211872117950062,-2.2525844758717475,-9.575168951743496,-0.4222222222222222,0.18666666666666668,0.7922222222222223,-1.0,-3.622089033173455,24.651484014743758
1588960326.9588523,0.16750345429423316,-2.2624827285288345,-9.53625518144135,-0.4222222222222222,0.18666666666666668,0.7922222222222223,-1.0703017053305215,-3.6796119373136498,24.00788806268635
1588960326.9688523,0.1522525634499309,-2.3387371827503456,-9.513378845174897,-0.4222222222222222,0.18666666666666668,0.7922222222222223,-1.1179607392189659,-4.013225174532761,23.67427482546724
1588960326.9788523,0.13235578297410097,-2.405288434051798,-9.517644217025898,-0.43,0.20555555555555555,0.8066666666666666,-1.014723643588131,-4.606670930764393,23.22055271282374
1588960326.9888523,0.14771969023740003,-2.3398220134569,-9.5331590707122,-0.43,0.20555555555555555,0.8066666666666666,-1.0625,-4.388139520121873,22.98025580804875
1588960326.9988523,0.14853651189810232,-2.248536511898102,-9.547073023796205,-0.43,0.20555555555555555,0.8066666666666666,-0.9908531993631395,-3.478148263694651,22.582824131847325
1588960327.0088522,0.12722082124994746,-2.2577917875005253,-9.507220821249946,-0.43,0.20555555555555555,0.8066666666666666,-0.8923698671878284,-2.7464314609338882,22.173541062497375
1588960327.0188522,0.11095100749905515,-2.352622481252362,-9.498491834583175,-0.42480520800871685,0.20773401671319042,0.80750453634268,-0.9375,-2.259426033855151,21.727665695303642
1588960327.0288522,0.060892725717582,-2.477768185706045,-9.490148787619598,-0.3960680462452786,0.219785084549471,0.8121395624335572,-0.9375,-2.3115700773775187,21.258369303602333
1588960327.0388522,0.05,-2.4772291675290807,-9.551083329883676,-0.3955555555555556,0.22,0.8122222222222222,-0.9201822970567537,-3.7319009500351865,20.042187564681043
1588960327.0488522,0.05952527492419786,-2.452536995972304,-9.573649816717202,-0.3955555555555556,0.22,0.8122222222222222,-0.8650778386206273,-4.5,19.46031135448251
1588960327.0588522,0.10470261256253474,-2.366356864924958,-9.53364313507504,-0.3955555555555556,0.22,0.8122222222222222,-0.7926347971095052,-4.420539188438021,19.177160922734853
1588960327.0688522,0.06127778801843318,-2.4155277419354837,-9.47808331797235,-0.3947036968766002,0.22014197644649258,0.8122222222222222,-0.6329861751152074,-3.6701382488479264,18.502603686635943
1588960327.0788522,0.08369227680364075,-2.324154062374515,-9.479538214429125,-0.38222222222222224,0.2222222222222222,0.8122222222222222,-0.6576930799089814,-2.3153861598179626,17.117311939499398
1588960327.0888522,0.09,-2.301223602484472,-9.539095829636201,-0.38222222222222224,0.2222222222222222,0.8122222222222222,-0.5189496450754215,-2.037899290150843,15.889956743566993
1588960327.0988522,0.08171113734750099,-2.3375667060212515,-9.56,-0.38222222222222224,0.2222222222222222,0.8122222222222222,-0.5754513478945297,-2.0084378689492324,14.725764954742228
1588960327.1088521,0.051267821554499465,-2.2912678215544995,-9.558309571260668,-0.38222222222222224,0.2222222222222222,0.8122222222222222,-0.6170761152843783,-1.5519348203791712,13.37939151208544
1588960327.1188521,0.07712229751532752,-2.32,-9.517122297515327,-0.38222222222222224,0.22110311570040514,0.8131814563837797,-0.4375,-1.384442562116812,11.864657954178767
1588960327.1288521,0.06,-2.3172316424773673,-9.508305072567898,-0.38222222222222224,0.21444444444444444,0.8188888888888889,-0.40289553096709296,-1.881708938065814,10.289548606121569
1588960327.1388521,0.06,-2.3077619680851065,-9.534476063829787,-0.38222222222222224,0.21444444444444444,0.8188888888888889,-0.31949384973404255,-2.0590030751329786,9.16607380319149
1588960327.148852,0.051102353153685734,-2.2922441171157857,-9.59220470630737,-0.38222222222222224,0.21444444444444444,0.8188888888888889,-0.35408456081580375,-1.8887794144210717,7.374630523671117
1588960327.158852,0.023552227531733916,-2.3611194311706654,-9.537104455063467,-0.38222222222222224,0.21444444444444444,0.8188888888888889,-0.0958021331100054,-1.544402844146674,6.212359598995024
1588960327.168852,-0.03560825688073394,-2.6230859327217124,-9.518130581039754,-0.38222222222222224,0.2121595990485899,0.8203428814135236,-0.0625,-1.265764525993884,4.133719418960244
1588960327.178852,-0.04816971938136785,-2.682957570154658,-9.512957570154658,-0.38222222222222224,0.20222222222222225,0.8266666666666667,-0.0625,-1.1179544403998383,2.461288544134358
1588960327.188852,-0.017622563105079352,-2.665036912603333,-9.533075902922063,-0.38222222222222224,0.20222222222222225,0.8266666666666667,-0.055070509703372975,-1.1831345873303567,1.4615512134742055
1588960327.198852,-0.001314782608695652,-2.4839443478260868,-9.62408347826087,-0.38222222222222224,0.20222222222222225,0.8266666666666667,0.004108695652173913,-0.6340869565217391,0.13906521739130434
1588960327.208852,-0.017580837154844375,-2.5545149770709337,-9.54,-0.38222222222222224,0.20222222222222225,0.8266666666666667,0.09273953556444531,0.2308383744755586,-1.7701348912088983
1588960327.218852,-0.005957683014432182,-2.5898942075360805,-9.536968262260823,-0.38222222222222224,0.20278365513688443,0.828014105661856,0.21276448115979887,0.6509256840592961,-3.115673773917586
1588960327.228852,0.020246785472591924,-2.5422639296187683,-9.536008572073088,-0.38222222222222224,0.20777777777777776,0.84,0.4375,1.4375,-5.8125
1588960327.238852,0.025328824190226546,-2.5568278412282344,-9.584371372402172,-0.38222222222222224,0.20777777777777776,0.84,0.4375,1.4550894612432128,-6.8150992908631345
1588960327.248852,0.09963772775991425,-2.326630225080386,-9.565181136120044,-0.38222222222222224,0.20777777777777776,0.84,0.4977357984994641,1.9818863879957127,-9.97735798499464
1588960327.258852,0.20977352317758732,-2.1358142106718274,-9.531938070223942,-0.38222222222222224,0.20777777777777776,0.84,0.7063145101833932,3.9515482444014376,-12.57113687678555
1588960327.268852,0.6526354000290402,-1.811062457217532,-9.42263540002904,-0.38035184762642293,0.20649189524316575,0.84,0.8914064282602834,6.8024746416644195,-17.486330353253543
1588960327.278852,0.5917337011761289,-1.654458088738617,-9.361733701176128,-0.3648847495050487,0.19585826528472097,0.84,1.5439246302557614,9.30379441598042,-25.64280787819702
1588960327.288852,0.5734907323002126,-1.65,-9.393018535399575,-0.3644444444444445,0.1955555555555556,0.84,1.7688658462473412,10.303646308113036,-33.04621315709511
1588960327.298852,0.5385794072606072,-1.5786352580848573,-9.42573822178182,-0.3644444444444445,0.1955555555555556,0.84,2.3210296369696426,12.302225024772543,-42.92338528060535
1588960327.308852,0.531022790739573,-1.518182325916584,-9.40306837221872,-0.3644444444444445,0.1955555555555556,0.84,2.6988604630213495,13.577404062697054,-47.83518601927754
1588960327.318852,0.5797626300832123,-1.3392611069084666,-9.318047473983357,-0.3648783391148095,0.1955555555555556,0.8393491579944525,2.974109862812046,15.890337807446178,-54.79304629837869
1588960327.328852,0.6655163460162337,-1.2449320193821432,-9.300896730796754,-0.36868961537849926,0.1955555555555556,0.8336322435989177,3.295686297560876,17.12304747398336,-59.56309674715299
1588960327.338852,0.44205725903685666,-1.3808049835693517,-9.397942740963144,-0.3688888888888889,0.1955555555555556,0.8333333333333334,3.5783765573654223,14.922406558074659,-67.56775426133005
1588960327.348852,0.3577466163456533,-1.559293987506507,-9.48,-0.3688888888888889,0.1955555555555556,0.8333333333333334,3.625,11.308148425299324,-72.09943144846434
1588960327.358852,0.3513332191634199,-1.6480010275292203,-9.469334246692641,-0.3688888888888889,0.1955555555555556,0.8333333333333334,3.6083347604572507,8.091701631202637,-74.508321916342
1588960327.368852,0.35538664508865747,-1.5797393048128343,-9.4,-0.3692875738812271,0.19378995058948623,0.8329916033399006,3.4903888439347033,5.347795876723895,-75.34937025049254
1588960327.378852,0.28629301903898463,-1.787155031731641,-9.402715503173164,-0.37666666666666665,0.16111111111111112,0.8266666666666667,3.227640525838622,3.3141183136899364,-74.28098368087035
1588960327.388852,0.33331791184745235,-1.872165676773992,-9.415529853079088,-0.37666666666666665,0.16111111111111112,0.8266666666666667,3.0034561581744295,2.4230970615817444,-72.57344678024383
1588960327.3988519,0.40139191914283634,-2.0629121212857457,-9.481520202142908,-0.37666666666666665,0.16111111111111112,0.8266666666666667,3.115899620982045,5.967888250443402,-69.89520517991205
1588960327.4088519,0.47098904912470113,-1.9958887946325288,-9.407588879463253,-0.37666666666666665,0.16111111111111112,0.8266666666666667,3.2952085100640085,11.647019838821624,-67.53506738258656
1588960327.4188519,0.6140506279892678,-1.90695298829568,-9.397992767430106,-0.3762763714447425,0.15949417376313982,0.8262763714447425,3.4531815044523078,16.707221876579695,-65.8906815044523
1588960327.4288518,0.8423828595870436,-1.694930201812031,-9.36537387720185,-0.3699338094559154,0.13321784552371324,0.8199338094559154,3.7080165843605397,21.090385251001283,-66.14551658436054
1588960327.4388518,1.0819316833361587,-1.4070170791659602,-9.30596584166808,-0.3688888888888889,0.1288888888888889,0.8188888888888889,4.464133221732497,25.476206242583487,-71.63351839294796
1588960327.4488518,1.3307882691981692,-1.3448029327004578,-9.430394134599084,-0.3688888888888889,0.1288888888888889,0.8188888888888889,5.019616672317342,27.5870433548059,-79.63248008136972
1588960327.4588518,1.4362154737154738,-1.4046616052866052,-9.425630754380753,-0.3688888888888889,0.1288888888888889,0.8188888888888889,5.5115389256014256,29.635963487525988,-88.55722012362638
1588960327.4688518,1.5160803435378862,-1.3202008588447154,-9.313140601191302,-0.3697599236582475,0.12627578458081298,0.8180178541195302,6.785491411552846,30.24653864801219,-107.45024241584707
1588960327.4788518,1.5030019811686852,-1.2779207941014277,-9.259584158820285,-0.37777777777777777,0.10222222222222224,0.81,7.795321786728212,24.654034588754314,-124.33410903576316
1588960327.4888518,1.6012906567790834,-1.4812906567790833,-9.307098612284959,-0.37777777777777777,0.10222222222222224,0.81,8.278233117042449,17.691403800539817,-137.77645928187792
1588960327.4988518,1.6362131728045326,-1.5180146364494806,-9.411801463644949,-0.37777777777777777,0.10222222222222224,0.81,8.6875,9.68934135977337,-154.3621222851747
1588960327.5088518,1.7016201191483713,-1.633519523406515,-9.414014370820265,-0.37777777777777777,0.10222222222222224,0.81,8.64260778115199,6.097266474170691,-167.66410489371236
1588960327.5188518,1.6528985579396291,-1.8284057682414827,-9.379213255671162,-0.37777777777777777,0.10222222222222224,0.81,8.381599417533728,6.662784595343589,-175.88586834768756
1588960327.5288517,1.5584716484445555,-2.1952835155544457,-9.396943296889111,-0.3977777777777778,0.07555555555555556,0.8122222222222222,8.485260986107642,14.689096035970255,-185.33596977499374
1588960327.5388517,1.550412351324866,-2.27587648675134,-9.380824702649733,-0.3977777777777778,0.07555555555555556,0.8122222222222222,8.737114021097938,24.914329256576295,-185.7893052379763
1588960327.5488517,1.5087477933661617,-1.9819165195577442,-9.494250441326768,-0.3977777777777778,0.07555555555555556,0.8122222222222222,9.432282472359008,39.81760719594909,-183.6208480442256
1588960327.5588517,1.6241110263651541,-1.9634996186431943,-9.45822205273031,-0.3977777777777778,0.07555555555555556,0.8122222222222222,10.038716734348911,45.61423955391561,-182.72968630825997
1588960327.5688517,1.5896738173035942,-1.8057596249467254,-9.38885836056258,-0.3983214156051207,0.07446827990086975,0.8122222222222222,10.629077283705072,46.946995311834065,-182.2316522233272
1588960327.5788517,1.6485269616401457,-1.5591310420511797,-9.334609667281887,-0.4311111111111111,0.008888888888888889,0.8122222222222222,10.920655210255898,43.22496508205717,-180.8054135282087
1588960327.5888517,2.0375569914001,-1.5749620057332667,-9.4,-0.4311111111111111,0.008888888888888889,0.8122222222222222,11.242365598125312,40.96628435409747,-179.23155315784683
1588960327.5988517,2.2065357175947375,-1.4551227647549339,-9.386732141202632,-0.4311111111111111,0.008888888888888889,0.8122222222222222,11.801520661539888,41.62346544056333,-179.02956198461965
1588960327.6088517,2.3318336316607327,-1.2728354216251303,-9.301334015224533,-0.4311111111111111,0.008888888888888889,0.8122222222222222,12.440622602726254,43.1875,-181.42810022817127
1588960327.6188517,2.2740824957217884,-0.8685774700525186,-9.169331418792659,-0.4311111111111111,0.008888888888888889,0.8122222222222222,12.904694230807058,43.1875,-186.22350705167293
1588960327.6288517,2.4450687285223367,-1.0585853379152348,-9.165068728522337,-0.4988888888888889,-0.06333333333333334,0.8122222222222222,14.428658361970218,41.37954610538373,-197.59539662084765
1588960327.6388516,2.469919421732433,-1.1497045463522533,-9.189919421732432,-0.4988888888888889,-0.06333333333333334,0.8122222222222222,14.998153414701584,39.25688272702137,-205.72364419164987
1588960327.6488516,2.381345548858097,-1.2657897264715066,-9.336023630556422,-0.4988888888888889,-0.06333333333333334,0.8122222222222222,15.64839040849163,40.161547513268175,-211.00474742441344
1588960327.6588516,2.0281216981732544,-1.0863452358220356,-9.168984787728343,-0.4988888888888889,-0.06333333333333334,0.8122222222222222,16.62753803067914,41.59739991089046,-213.82011409203741
1588960327.6688516,2.2950875182992805,-0.9662106167653237,-9.135614060212589,-0.4988888888888889,-0.06333333333333334,0.8122222222222222,16.710964849468525,38.63574784386736,-214.07039454840557
1588960327.6788516,3.2841921620356582,-1.2613748351133993,-9.300435726139314,-0.5801377246358311,-0.15618914561555303,0.8048359644270456,16.156461427173312,35.88486128249862,-214.24685385728267
1588960327.6888516,3.483759100682787,-1.3645675053755328,-9.263872269795163,-0.5844444444444444,-0.16111111111111112,0.8044444444444444,17.134044098230788,43.59655447206609,-219.1991210532272
1588960327.6988516,3.048911809937954,-1.080120910006894,-9.119758179986212,-0.5844444444444444,-0.16111111111111112,0.8044444444444444,19.1935455003447,50.105885745346555,-231.87242138198016
1588960327.7088516,2.9906482307463573,-1.1030022797105759,-9.113931013975616,-0.5844444444444444,-0.16111111111111112,0.8044444444444444,19.693304589156508,42.83962731687977,-242.1245973337298
1588960327.7188516,3.265030032708891,-1.2194066805431658,-9.238650014867678,-0.5844444444444444,-0.16111111111111112,0.8044444444444444,19.7452708395282,37.4871035285955,-244.35914609971255
1588960327.7288516,3.199421826742403,-0.9088592039048833,-9.068843653484805,-0.5798697892294143,-0.36514073370145594,0.8575104449387942,19.64707025766182,38.59541100624177,-241.680467214531
1588960327.7388515,3.1645946702105334,-0.7233934858128744,-9.074804737590638,-0.5788888888888889,-0.4088888888888889,0.8688888888888889,19.683746298757313,40.156157468932875,-237.92248519502925
1588960327.7488515,3.091619165437503,-0.6203873055145834,-9.151161916543751,-0.5788888888888889,-0.4088888888888889,0.8688888888888889,19.612896702669268,38.656031426940096,-237.62456285388018
1588960327.7588515,3.3892602315273055,-0.6250391616818006,-9.176362051899988,-0.5788888888888889,-0.4088888888888889,0.8688888888888889,19.30216492017042,37.81505653698842,-236.18238692602316
1588960327.7688515,3.6419615268752423,-0.48966346774540603,-9.077086543013298,-0.5788888888888889,-0.4088888888888889,0.8688888888888889,19.020132224469595,36.179266901923654,-239.4539661961527
1588960327.7788515,3.38,-0.47,-9.05,-0.38333333333333336,-0.5911111111111111,0.75,19.1875,37.6875,-242.3125
1588960327.7888515,3.2603771925968257,-0.3991124104277487,-9.025632391084539,-0.38333333333333336,-0.5911111111111111,0.75,19.242880929353323,37.77057139402998,-241.75869070646678
1588960327.7988515,2.860432509906416,-0.05805370542112806,-8.996189402242644,-0.38333333333333336,-0.5911111111111111,0.75,18.9266872523396,35.891545822443305,-236.07718178273333
1588960327.8088515,3.159757596805001,0.10156589685709325,-9.036988018753256,-0.38333333333333336,-0.5911111111111111,0.75,18.15286291022747,34.259786855356836,-226.76659576315333
1588960327.8188515,3.097877578176979,0.23746165327003652,-8.95547050044056,-0.38333333333333336,-0.5911111111111111,0.75,17.964168509827193,35.71827066587546,-219.78186757116399
1588960327.8288515,2.986920840540242,0.36362381776027675,-8.893297022779965,-0.31406923539297593,-0.5829185833977355,0.6792463515663015,17.434776708497406,34.153277150112245,-211.4288310087219
1588960327.8388515,3.1041307411040755,0.5253129403371087,-8.937065370552038,-0.28,-0.5788888888888889,0.6444444444444445,16.635952688843307,29.959144519753856,-204.08023276554
1588960327.8488514,3.0733289966489257,0.6943623102700571,-8.977436231027006,-0.28,-0.5788888888888889,0.6444444444444445,15.645806229055786,27.828523556081215,-194.07341563177607
1588960327.8588514,3.0189902183578696,0.7900326054737674,-8.91697065507361,-0.28,-0.5788888888888889,0.6444444444444445,14.956025837367848,28.075122270526627,-184.48411718209664
1588960327.8688514,2.920985464325647,0.9332912272219032,-8.857631077936599,-0.28,-0.5788888888888889,0.6444444444444445,13.738471185518721,26.417324574657762,-172.06893490677223
1588960327.8788514,2.9565723925771557,1.0872878832986008,-8.800499156494988,-0.2768570893012691,-0.5623886077205518,0.6122296097824529,12.792845092785551,24.85087327577652,-160.85877493301578
1588960327.8888514,3.018314543404735,1.2357863585118376,-8.703370913190529,-0.27555555555555555,-0.5555555555555556,0.5988888888888889,11.781602311161217,21.02247745208568,-145.87010287485907
1588960327.8988514,3.1508766795738836,1.3345220463589158,-8.859960386145858,-0.27555555555555555,-0.5555555555555556,0.5988888888888889,10.75024758658839,17.421309844578076,-138.83116602130582
1588960327.9088514,3.1045407699864684,1.5307377337856123,-8.758376985671653,-0.27555555555555555,-0.5555555555555556,0.5988888888888889,9.745389163839922,20.232686194368757,-123.42581187788467
1588960327.9188514,2.8168818699141784,1.5696105581197057,-8.672856772136647,-0.27555555555555555,-0.5555555555555556,0.5988888888888889,9.50243401175184,22.61364668483197,-112.93014930767947
1588960327.9288514,2.974680558518835,1.6726328141668443,-8.710877604722283,-0.23777777777777775,-0.5577777777777778,0.5777777777777777,8.215261479743024,16.409255505772467,-96.9965329635161
1588960327.9388514,3.13,1.76,-8.74,-0.23777777777777775,-0.5577777777777778,0.5777777777777777,7.0625,9.25,-84.4375
1588960327.9488513,3.2417557396749097,1.8055301161638522,-8.777251913224971,-0.23777777777777775,-0.5577777777777778,0.5777777777777777,6.5451123163198615,8.473918474479792,-79.5740557734067
1588960327.9588513,3.313214337279815,1.8751050389835402,-8.784054649148137,-0.23777777777777775,-0.5577777777777778,0.5777777777777777,5.525341557175859,8.55554026494369,-67.23148958634133
1588960327.9688513,3.1185748956065527,1.9002591098897177,-8.694417002748136,-0.23777777777777775,-0.5577777777777778,0.5777777777777777,4.870141689567793,10.25728746564831,-56.33378020271958
1588960327.9788513,3.1284019745613088,1.971479119374482,-8.644852088062553,-0.2412097190694099,-0.5686455918679463,0.5812097190694099,3.9530343566461283,8.656811876193565,-45.021099070370774
1588960327.9888513,3.395815423898836,2.0373128248776484,-8.709251299510594,-0.24444444444444444,-0.5788888888888889,0.5844444444444444,2.4636536006322767,3.9198711128674346,-28.52557414049913
1588960327.9988513,3.4968142643656983,2.0630442793097092,-8.743044279309709,-0.24444444444444444,-0.5788888888888889,0.5844444444444444,1.7363930172572621,2.827875186800139,-18.362930919773177
1588960328.0088513,3.320959359560162,2.07,-8.732939373676585,-0.24444444444444444,-0.5788888888888889,0.5844444444444444,1.1004413704075189,1.7008827408150378,-9.805737815297745
1588960328.0188513,3.1490581655480985,2.0490581655480984,-8.725235458612977,-0.24444444444444444,-0.5788888888888889,0.5844444444444444,0.16101090604026835,-1.552286073825503,0.9016638702460851
1588960328.0288513,3.3923849881769015,2.0591538875752113,-8.741661555030085,-0.2476837652861346,-0.5782410247205508,0.5637127910576275,-0.8851930325661976,-5.259809659822537,12.6952011097324
1588960328.0388513,3.4761901138168345,2.024102368978295,-8.662160865537322,-0.25,-0.5777777777777777,0.5488888888888889,-1.5494515947591319,-3.2055754532821603,26.657542433165695
1588960328.0488513,3.3662611147256563,2.0040186510518323,-8.68785079158534,-0.25,-0.5777777777777777,0.5488888888888889,-2.0362177401865105,-2.5122668618520927,34.67001463890696
1588960328.0588512,3.424241228537912,1.9809597952436813,-8.72,-0.25,-0.5777777777777777,0.5488888888888889,-2.986840585119619,-5.61686617965945,43.99089305392627
1588960328.0688512,3.449003107198343,1.9221702917313999,-8.699501553599172,-0.25,-0.5777777777777777,0.5488888888888889,-3.8874611600207145,-9.552959930088036,53.93490527360608
1588960328.0788512,3.4465931290509086,1.8917034354745457,-8.673406870949092,-0.29148282262727077,-0.5704030537551519,0.5682475394482819,-4.7990958676931506,-12.325519961659008,64.94423629918145
1588960328.0888512,3.4583377302654217,1.8149604276112041,-8.745039572388796,-0.3,-0.5688888888888889,0.5722222222222222,-5.667051398224404,-14.459267681402125,74.69178700878622
1588960328.0988512,3.749845577354528,1.7668747911594826,-8.89250083536207,-0.3,-0.5688888888888889,0.5722222222222222,-6.537113943386319,-16.417002303212563,85.00786732063582
1588960328.1088512,3.650803421414388,1.6870349014815946,-8.807235756835192,-0.3,-0.5688888888888889,0.5722222222222222,-7.143531865740034,-14.428383228959829,93.69443542844051
1588960328.1188512,3.4922591771935036,1.6222354204262512,-8.700023756767253,-0.3,-0.5688888888888889,0.5722222222222222,-7.756762969139046,-13.94411448934372,101.9074785275373
1588960328.1288512,3.541168032786885,1.4967725409836066,-8.723524590163935,-0.3238217213114754,-0.5671243169398907,0.5836919398907103,-8.707671618852459,-18.073258196721312,112.98290215163934
1588960328.1388512,3.6889525691699605,1.3784980237154152,-8.813201581027668,-0.33,-0.5666666666666667,0.5866666666666667,-9.504076086956522,-21.230360671936758,123.79644268774703
1588960328.1488512,3.640108254922883,1.287648850518964,-8.849945872538559,-0.33,-0.5666666666666667,0.5866666666666667,-10.123985110097973,-20.969595741585024,132.29862983800564
1588960328.1588511,3.6280389927339285,1.1313761162571414,-8.86,-0.33,-0.5666666666666667,0.5866666666666667,-10.814937045870542,-21.515911864218758,142.91399273392867
1588960328.1688511,3.4841408733478336,1.0197774803413084,-8.830828174669566,-0.33,-0.5666666666666667,0.5866666666666667,-11.530052702024427,-23.64748201438849,150.75494604316546
1588960328.1788511,3.6973070845404266,0.9263554560618031,-8.80090663681854,-0.35757930237321867,-0.5496947882831476,0.5696947882831476,-12.267111919497848,-25.886557918532176,159.06328735405145
1588960328.188851,3.8893250069730683,0.7484299748969535,-8.868650013946137,-0.37333333333333335,-0.54,0.56,-13.00490632844702,-26.75,169.00196989183996
1588960328.198851,3.5415746421267893,0.5964986366734832,-8.907921267893661,-0.37333333333333335,-0.54,0.56,-13.386351823449216,-25.667256731424676,175.79035659509202
1588960328.208851,3.3281194350629413,0.4075222597482345,-8.955149293828677,-0.37333333333333335,-0.54,0.56,-14.441232345716918,-28.408492765581823,185.5143728891618
1588960328.218851,3.5193925884647532,0.2815157425466704,-8.992424073558094,-0.37333333333333335,-0.54,0.56,-15.267988994148787,-32.43274589022012,194.0387816940652
1588960328.228851,3.7287883034733533,0.030832165448278465,-8.992802924131661,-0.41791834484384005,-0.523439852867526,0.5759232183966095,-15.8757906897466,-33.72095517215257,204.46484034695655
1588960328.238851,3.6482365293752683,-0.12464038562497018,-8.943399035937574,-0.4511111111111111,-0.5111111111111111,0.5877777777777777,-16.428509640624256,-30.57968131055219,215.12616630076838
1588960328.248851,3.6747699423841595,-0.2712321133923017,-9.054616570640267,-0.4511111111111111,-0.5111111111111111,0.5877777777777777,-17.08173571100111,-31.80578998620466,222.47408639671076
1588960328.258851,3.899826283718775,-0.4144507002102412,-9.130866977871218,-0.4511111111111111,-0.5111111111111111,0.5877777777777777,-17.545158438157003,-35.54840559633681,226.00360906709903
1588960328.268851,3.875802855466458,-0.6362135732446704,-9.105926070799923,-0.4511111111111111,-0.5111111111111111,0.5877777777777777,-17.787551339722278,-36.68647320555447,229.27751564639155
1588960328.278851,3.901475841874085,-0.8695742313323572,-9.078098389458273,-0.5086996583699366,-0.467919700666992,0.6048743777452416,-18.01495973645681,-34.71966691068814,232.9801317715959
1588960328.288851,3.6328168226910718,-0.9742957943272321,-9.071744911741419,-0.5222222222222223,-0.4577777777777778,0.6088888888888889,-18.114094301616134,-34.47818860323227,235.52308346141308
1588960328.298851,3.70417033924362,-1.0041231936045916,-9.15473916162755,-0.5222222222222223,-0.4577777777777778,0.6088888888888889,-18.345674900071742,-37.41290868094701,237.3056843804448
1588960328.308851,3.83874500855676,-1.310662759943992,-9.333172742830472,-0.5222222222222223,-0.4577777777777778,0.6088888888888889,-18.661207410672613,-39.83302001763211,237.20387776798216
1588960328.318851,3.6240081536315847,-1.4034062868790902,-9.25703143439545,-0.5222222222222223,-0.4577777777777778,0.6088888888888889,-18.251367878982943,-36.863627829632016,236.9375
1588960328.328851,3.522507267856125,-1.4275121130935415,-9.122478196431624,-0.5972464484093054,-0.4244336772501852,0.5988856587306111,-18.18756056546771,-33.34317462805677,237.4532915550362
1588960328.338851,3.6751364207993875,-1.6395625785991579,-9.21489966646618,-0.6222222222222222,-0.4133333333333333,0.5955555555555555,-18.287795942916507,-34.8287768604079,236.68010142708732
1588960328.348851,3.7352026025897054,-1.8047973974102944,-9.333496746762867,-0.6222222222222222,-0.4133333333333333,0.5955555555555555,-18.258129066546417,-37.16617680216453,235.274121464923
1588960328.358851,3.654253859348199,-1.8619153802172672,-9.336380789022298,-0.6222222222222222,-0.4133333333333333,0.5955555555555555,-17.926851057747285,-37.394904230989134,232.16480846197828
1588960328.368851,3.6255607496493987,-1.9188317538566146,-9.3,-0.6222222222222222,-0.4133333333333333,0.5955555555555555,-17.500292167778674,-36.326810909013645,228.50262951000806
1588960328.378851,3.5781842840047866,-1.9832165935380932,-9.296783406461907,-0.6429513805788237,-0.42560404201568935,0.5879310375393343,-17.147292580773833,-35.875,224.9838701635421
1588960328.388851,3.278694533762058,-2.030289389067524,-9.28623151125402,-0.8155555555555556,-0.5277777777777778,0.5244444444444445,-16.634967845659165,-36.30614951768489,216.96925241157555
1588960328.398851,3.184495448727066,-1.9701546721661216,-9.338372208789647,-0.8155555555555556,-0.5277777777777778,0.5244444444444445,-16.020347390129427,-36.789728079220595,211.1821598101266
1588960328.408851,2.9082921880284074,-1.8376325369512025,-9.37,-0.8155555555555556,-0.5277777777777778,0.5244444444444445,-15.422703355945016,-37.231889932164954,204.6760926216953
1588960328.418851,2.8256759244345244,-1.8056759244345246,-9.318111093214293,-0.8155555555555556,-0.5277777777777778,0.5244444444444445,-14.952719804873558,-37.85810188913689,198.65219804873558
1588960328.428851,2.7881724392041267,-1.9000294767870303,-9.309108327192336,-1.1550495373782035,-0.655593220338983,0.3850094161958569,-14.136238025055269,-38.05683492999263,191.2262343404569
1588960328.4388509,2.611225739337197,-1.799222767127359,-9.323228711547035,-1.5622222222222222,-0.8088888888888889,0.21777777777777774,-13.073056917818398,-36.942264823896565,182.26905929558626
1588960328.4488509,2.4156635454400472,-1.7372567379764428,-9.464867518738751,-1.5622222222222222,-0.8088888888888889,0.21777777777777774,-12.245574465176679,-35.66150354270613,174.49778011300208
1588960328.4588509,2.313552295670429,-1.8057290033304392,-9.496406495004342,-1.5622222222222222,-0.8088888888888889,0.21777777777777774,-11.732032475021706,-34.07982362927158,169.53913913978772
1588960328.4688509,2.2428926872886077,-1.8600825482395325,-9.414876177640702,-1.5622222222222222,-0.8088888888888889,0.21777777777777774,-11.324380888203507,-32.10950762631695,165.70042003058302
1588960328.4788508,2.25803454437165,-2.3125908278737346,-9.38960690887433,-1.441400304414003,-0.6212772152736417,0.3603626497253656,-10.269468433591424,-28.417845443716498,157.2912075640262
1588960328.4888508,1.9651239908369103,-2.363967706781131,-9.396611880879835,-1.2044444444444444,-0.2533333333333333,0.64,-9.838325400885171,-23.54802837888931,151.98087872250517
1588960328.4988508,1.9196096657617001,-2.52359930958845,-9.50679102464985,-1.2044444444444444,-0.2533333333333333,0.64,-9.602504315072187,-22.177418013628436,148.7402416440425
1588960328.5088508,1.8089697045049526,-2.556287869368809,-9.566340917568072,-1.2044444444444444,-0.2533333333333333,0.64,-9.513210244933482,-23.18394877533259,145.74422375564674
1588960328.5188508,1.6815169937316912,-2.591953885406495,-9.484781554162598,-1.2044444444444444,-0.2533333333333333,0.64,-9.279884713516237,-24.421912897281633,142.6738471351624
1588960328.5288508,1.5600747870646077,-2.5137587424693577,-9.460902292085036,-1.1653451207595658,-0.23137755926413217,0.6478198647369757,-9.125,-25.481679765944186,140.8768696766152
1588960328.5388508,1.412106586053463,-2.3393570191229918,-9.459357019122992,-0.7711111111111111,-0.01,0.7266666666666667,-8.991962739037398,-27.719649043850414,137.0113680751333
1588960328.5488508,1.3438376520850748,-2.3169188260425373,-9.476162347914926,-0.7711111111111111,-0.01,0.7266666666666667,-8.670606656914646,-28.064863994148787,134.09559591808303
1588960328.5588508,1.2735102438684747,-2.182898048704068,-9.466462601611864,-0.7711111111111111,-0.01,0.7266666666666667,-8.385969512088984,-27.470408536266948,132.09889532454872
1588960328.5688508,1.1991648406686282,-2.0977875164339825,-9.432776560445753,-0.7711111111111111,-0.01,0.7266666666666667,-8.097207005571903,-26.130082795968196,129.85920381268392
1588960328.5788507,1.1719468232302457,-2.2161063535395087,-9.424026588384876,-0.7044487034059226,0.0338450735242179,0.734719843436421,-7.761336758161624,-24.183345564862943,126.75385877491493
1588960328.5888507,1.0894097121256179,-2.2233905205001454,-9.450761849374818,-0.6055555555555555,0.09888888888888887,0.7466666666666667,-7.396190753125909,-22.393573713288745,123.4370274789183
1588960328.5988507,0.9498934945308003,-2.1799467472654,-9.5267909230474,-0.6055555555555555,0.09888888888888887,0.7466666666666667,-7.082889560545001,-20.435503022452504,119.07689862790251
1588960328.6088507,0.8290655882845589,-2.143084156875882,-9.489439352970736,-0.6055555555555555,0.09888888888888887,0.7466666666666667,-6.66355196094853,-19.894275980474266,115.60397573640257
1588960328.6188507,0.7968586023215138,-2.1412390682143423,-9.521814875178885,-0.6055555555555555,0.09888888888888887,0.7466666666666667,-6.359511647320719,-19.77737791183018,113.05999438503737
1588960328.6288507,0.7891390017031312,-2.301242237652299,-9.53349325298048,-0.5655719754865569,0.13249827503384426,0.753620332765623,-6.3803812393554304,-20.336715577099437,110.14475795886283
1588960328.6388507,0.7243325459191052,-2.445708431760112,-9.460040977679217,-0.5288888888888889,0.16333333333333333,0.76,-6.214578411994408,-20.232801426987418,105.75281721544617
1588960328.6488507,0.6550709931810371,-2.4150709931810375,-9.495491887785555,-0.5288888888888889,0.16333333333333333,0.76,-5.781693707381482,-19.44982884764954,101.58630193354676
1588960328.6588507,0.572874011234667,-2.332874011234667,-9.456246704115557,-0.5288888888888889,0.16333333333333333,0.76,-5.5773458099277775,-19.47501098628148,96.99291862509075
1588960328.6688507,0.5161804197814837,-2.3754895054629097,-9.379309085681426,-0.5288888888888889,0.16333333333333333,0.76,-5.377159107245544,-20.13411712909718,92.5698165253019
1588960328.6788507,0.5101506612995975,-2.526233467510063,-9.536082806210464,-0.5288888888888889,0.16333333333333333,0.76,-4.887241230592294,-20.247175100632546,89.81873921794134
1588960328.6888506,0.5254998376220223,-2.273500487133933,-9.4852507307009,-0.5011111111111111,0.18777777777777774,0.7888888888888889,-4.703130074311804,-21.690613836514032,82.81567472825567
1588960328.6988506,0.5356476062379585,-2.2140412228725146,-9.440311170889528,-0.5011111111111111,0.18777777777777774,0.7888888888888889,-4.240932512995747,-22.460812824893672,77.43198135155767
1588960328.7088506,0.49353366995844317,-2.0911839224272755,-9.50648442736494,-0.5011111111111111,0.18777777777777774,0.7888888888888889,-3.98167087448054,-19.349723792394656,69.19922136824702
1588960328.7188506,0.44692762477213377,-2.269187564664729,-9.495371729812287,-0.5011111111111111,0.18777777777777774,0.7888888888888889,-3.4711964822387547,-15.130139306301423,62.779357786865056
1588960328.7288506,0.41,-2.370072719366061,-9.505765123695399,-0.4974691835244599,0.20097976527938838,0.7802393108705923,-2.9201415732508695,-10.568166855914185,55.75698202551217
1588960328.7388506,0.4141643874711632,-2.0974521368944274,-9.440794587009774,-0.4922222222222222,0.22,0.7677777777777778,-2.3647257830522985,-6.313354698313792,48.631846505101436
1588960328.7488506,0.4165714623384809,-2.18228608572329,-9.546857075323038,-0.4922222222222222,0.22,0.7677777777777778,-1.9785716396155058,-3.4607208280806807,41.630384789631265
1588960328.7588506,0.4191507891369259,-2.100849210863074,-9.54474868477179,-0.4922222222222222,0.22,0.7677777777777778,-1.6896661275415896,-1.5393191028010806,33.56195569102801
1588960328.7688506,0.41678238148562896,-1.9546248600223965,-9.472851810377007,-0.4922222222222222,0.22,0.7677777777777778,-0.9508678611422172,0.9822928331466965,23.345394736842106
1588960328.7788506,0.4007052453243863,-1.8367631133109659,-9.413942132013421,-0.46426963720854697,0.23070524532438627,0.7612356834128751,-0.5492766501677574,2.6224005913031925,13.908001278942297
1588960328.7888505,0.37635884063784975,-1.8936411593621503,-9.411213719787384,-0.44,0.24,0.7555555555555555,-0.05961413097984153,3.0,4.731283221341891
1588960328.7988505,0.3450771309260624,-1.831388356669123,-9.434768607221812,-0.44,0.24,0.7555555555555555,0.3105717268484402,2.84616034143945,-3.588278371407516
1588960328.8088505,0.31497863331634457,-1.756680911122437,-9.45417022778061,-0.44,0.24,0.7555555555555555,0.48962784725761554,2.661436076371192,-11.294426529972164
1588960328.8188505,0.2914855368011546,-1.7761714877329484,-9.452342975465898,-0.44,0.24,0.7555555555555555,0.6103564033381439,2.732676907510824,-17.056766486791744
1588960328.8288505,0.33096254000125497,-1.7630124866662484,-9.426024973332497,-0.44,0.24,0.7555555555555555,0.7748439166718956,3.102773812511765,-21.333441833469287
1588960328.8388505,0.2686445615982242,-2.0823269284128747,-9.435549736403996,-0.44222222222222224,0.2577777777777778,0.7411111111111112,1.2762143625138735,4.560100322558268,-30.158558632769147
1588960328.8488505,0.28442868170154173,-2.210028372937225,-9.55331441804185,-0.44222222222222224,0.2577777777777778,0.7411111111111112,1.6110717042538543,6.277501929776981,-37.02688127177519
1588960328.8588505,2.052677494529735,-6.069035098642662,-11.817346165477737,-0.44222222222222224,0.2577777777777778,0.7411111111111112,1.8861428850977533,7.556321491469944,-41.77016103926138
1588960328.8688505,6.29948727687049,-16.354541656596346,-17.75724717743328,-0.44222222222222224,0.2577777777777778,0.7411111111111112,2.8804422884369716,9.944398888236716,-50.265545696233126
1588960328.8788505,-8.233488095694513,-10.53407238431162,-15.652634666257716,-0.4478943713870678,0.2619572561097692,0.7509627386079482,49.34591975616301,91.2926714718399,-263.90621285895025
1588960328.8888505,-20.435209385322146,-14.487828695090931,-4.483095409848514,-0.4633333333333333,0.2733333333333333,0.7777777777777778,123.27119480618094,186.20394899198908,-531.4294510991306
1588960328.8988504,0.0410837465871734,-0.4395000092866028,-10.076718485912224,-0.4633333333333333,0.2733333333333333,0.7777777777777778,77.94918138593266,67.75510879255586,-459.7792980721012
1588960328.9088504,2.463127330666486,3.5468513119533522,-19.14430571564174,-0.4633333333333333,0.2733333333333333,0.7777777777777778,38.707158112414405,-32.68154832531019,-324.21628584988815
1588960328.9188504,0.749599549606814,2.292275756860324,-6.915330621288342,-0.4633333333333333,0.2733333333333333,0.7777777777777778,-68.24396373245192,-50.22839293173274,-255.9532978134137
1588960328.9288504,2.9890051800791286,4.4691312150752545,-13.932847004119589,-0.4985894141480061,0.2420976827870004,0.7660257508395535,-84.11603428233471,4.404984296610515,-190.48591793449444
1588960328.9388504,0.8778927468753611,0.563390955470801,-4.974252810936648,-0.59,0.16111111111111112,0.7355555555555555,25.9375,92.3125,-78.3125
1588960328.9488504,1.3518466686948585,-0.3621866443565561,-6.390536203224825,-0.59,0.16111111111111112,0.7355555555555555,20.789354844843324,89.3840745740797,-75.61139526924246
1588960328.9588504,3.078781875376481,-0.7251080918278563,-8.901293755438056,-0.59,0.16111111111111112,0.7355555555555555,3.3284627869620507,38.58061709390268,-59.369386252593536
1588960328.9688504,2.887783321172921,-1.1130541697067697,-8.244523673364753,-0.59,0.16111111111111112,0.7355555555555555,3.3280082230679735,-9.036990248663997,-42.6500426436079
1588960328.9788504,3.798212686331812,-0.877858209112125,-9.400842041082354,-0.6003430070526342,0.1424487288204884,0.7355555555555555,0.6517723860984379,-13.105060656392574,-21.831428841746735
1588960328.9888504,3.5708904634239755,-1.0156013021830717,-8.9885254691689,-0.6411111111111111,0.06888888888888889,0.7355555555555555,1.2595868441210265,-5.723094599770203,-6.080033990808119
1588960328.9988503,1.8524584239059267,-2.04,-9.332400020951733,-0.6411111111111111,0.06888888888888889,0.7355555555555555,0.3058707409056387,-3.391404551763874,0.04469102742057984
1588960329.0088503,1.79,-2.04,-9.76,-0.6411111111111111,0.06888888888888889,0.7355555555555555,-0.625,-4.5625,0.375
1588960329.0188503,1.8340892388451444,-1.9989219160104987,-9.674609580052493,-0.6411111111111111,0.06888888888888889,0.7355555555555555,-0.07527887139107611,-1.766728182414698,0.5806225393700788
1588960329.0288503,1.8742075310632647,-1.9721094565114294,-9.423683012425306,-0.6456733799150568,0.06257190131419478,0.7422234868843993,-0.15129706914540453,-0.4407782414872427,0.1875
1588960329.0388503,1.861999263224045,-2.011200294710382,-9.366001473551911,-0.6555555555555556,0.048888888888888885,0.7566666666666667,0.007501841939887746,-0.36749815806011227,0.13250184193988773
1588960329.0488503,1.8950022525671497,-1.9849932422985506,-9.312501126283575,-0.6555555555555556,0.048888888888888885,0.7566666666666667,-0.015603882182970596,-0.3906038821829706,0.09376407854468627
1588960329.0588503,1.908033897251868,-1.9458983082443957,-9.319016948625935,-0.6555555555555556,0.048888888888888885,0.7566666666666667,0.10656778673626321,-0.2684322132637368,0.17521185782417548
1588960329.0688503,1.8577722457145456,-2.0,-9.506533897149094,-0.6555555555555556,0.048888888888888885,0.7566666666666667,-0.4789592142954576,-1.625622357113627,0.9517346428409039
1588960329.0788503,1.854910103823753,-1.995089896176247,-9.344550519118764,-0.6520093694606229,0.05079837370923721,0.7550299653920824,-0.17215592555077236,-2.5,1.3607796277538617
1588960329.0888503,1.8741098097961777,-1.9553411412229333,-9.378901902038223,-0.6411111111111111,0.05666666666666665,0.75,0.00343155613055518,-2.191764265286668,0.9451958214172227
1588960329.0988503,1.8606087061961925,-1.9742956226506607,-9.436347762822844,-0.6411111111111111,0.05666666666666665,0.75,0.1632608827452407,-1.5076088274524069,0.5663044137262034
1588960329.1088502,1.844174464744202,-2.042281919069748,-9.499517049674283,-0.6411111111111111,0.05666666666666665,0.75,0.10285239883718462,-0.8370811848834001,0.3085571965115539
1588960329.1188502,1.8682978094421616,-2.006595618884323,-9.305532858367576,-0.6411111111111111,0.05666666666666665,0.75,-0.022609527891920653,-0.3550547639459603,0.15558392704052976
1588960329.1288502,1.862098176013244,-1.9941963520264876,-9.398527359801342,-0.6411111111111111,0.05666666666666665,0.75,-0.33259119933780706,-0.5100455996689035,0.039340800248322344
1588960329.1388502,1.8897523142356767,-1.9304953715286464,-9.320908181135852,-0.6488246740611013,0.06327829205237262,0.7268593111500292,0.058371903927945945,-0.00464410808106086,0.12396797598198649
1588960329.1488502,1.849617630029914,-2.033184888545788,-9.44598740712149,-0.6488888888888888,0.06333333333333334,0.7266666666666667,0.21496851780372478,-0.009952776705587182,0.035031482196275214
1588960329.1588502,1.88716693163752,-1.9797335453100158,-9.402300158982513,-0.6488888888888888,0.06333333333333334,0.7266666666666667,0.10895866454689984,0.10895866454689984,0.125
1588960329.1688502,1.8530832006815685,-1.9469167993184315,-9.373833598636864,-0.6488888888888888,0.06333333333333334,0.7266666666666667,-0.004945014909311041,0.033594993610295276,0.11536499787009842
1588960329.1788502,1.8649107735640278,-1.9376338396539583,-9.35441947490192,-0.6488888888888888,0.06333333333333334,0.7284573204126569,-0.35909616738758676,-0.13560255507494215,0.05719872246252892
1588960329.1888502,1.8142804546826277,-2.013579317976059,-9.497872045065888,-0.6488888888888888,0.06333333333333334,0.7462716918709273,-0.20087642088321095,-0.24108238607785937,0.004458806961070316
1588960329.1988502,1.87,-1.9452448591956395,-9.324476009579652,-0.6488888888888888,0.06333333333333334,0.7477777777777778,0.125,0.125,0.010926789990915849
1588960329.2088501,1.87,-1.9660275827896605,-9.421462053018416,-0.6488888888888888,0.06333333333333334,0.7477777777777778,0.125,0.125,0.054224130811792885
1588960329.2188501,1.8669230528130387,-1.9876923679674032,-9.426923052813038,-0.6488888888888888,0.06333333333333334,0.7477777777777778,-0.009615459959254037,-0.08173091991850807,0.07211545995925403
1588960329.2288501,1.8537768374862875,-2.020557906284281,-9.413776837486287,-0.6488888888888888,0.06333333333333334,0.7477777777777778,-0.05069738285535183,-0.16389476571070366,0.11319738285535183
1588960329.23885,1.8350728169093897,-1.9783090610302034,-9.477317957726527,-0.6622222222222223,0.06888888888888889,0.7477777777777778,-0.21829489431631438,-0.22357907859692866,0.0625
1588960329.24885,1.882608375361251,-1.9624638748795828,-9.358479061596872,-0.6622222222222223,0.06888888888888889,0.7477777777777778,0.07880234600781999,0.024001955006516695,0.0625
1588960329.25885,1.8432991390043314,-2.0016495695021654,-9.475051291493504,-0.6622222222222223,0.06888888888888889,0.7477777777777778,0.16688038122292947,0.052190190611464744,0.15657057183439424
1588960329.26885,1.858009013274414,-2.009004506637207,-9.452986480088379,-0.6622222222222223,0.06888888888888889,0.7477777777777778,0.07494366703491329,0.006221833517456643,0.01866550055236993
1588960329.27885,1.8321801491681011,-2.008255880665519,-9.454767641996558,-0.6616408491107286,0.06782303818448397,0.7477777777777778,-0.06795037292025244,-0.18204962707974756,0.06522518646012622
1588960329.28885,1.8767425256581882,-1.9726059794734494,-9.347817938420349,-0.649757548713372,0.04603698745599684,0.7477777777777778,-0.17935631414547076,-0.07064368585452922,0.12092815707273538
1588960329.29885,1.867065828419338,-1.9988025147419866,-9.415868343161325,-0.6488888888888888,0.04444444444444445,0.7477777777777778,0.04753143427483193,-0.05912999334602942,0.10666142762086134
1588960329.30885,1.86,-2.022544798776451,-9.435089597552903,-0.6488888888888888,0.04444444444444445,0.7477777777777778,0.2488800305887187,0.1863800305887187,0.07840499235282034
1588960329.31885,1.86,-2.020611411119875,-9.429345104463724,-0.6488888888888888,0.04444444444444445,0.7477777777777778,0.03902852779968853,0.011735736100155736,0.125
1588960329.32885,1.8588283969265122,-1.9811716030734878,-9.344100610757208,-0.6484332654714213,0.0458764037564852,0.746020373167546,-0.06982251920929927,0.05151622118605109,0.11401622118605109
1588960329.33885,1.8460204567618443,-1.9969897716190779,-9.416020456761844,-0.6411111111111111,0.06888888888888889,0.7177777777777777,-0.13105821785770982,-0.04974429047694645,-0.04368607261923661
1588960329.34885,1.8573887832476466,-1.99,-9.453500950771181,-0.6411111111111111,0.06888888888888889,0.7177777777777777,0.048960314106627226,0.05971958119116369,0.0
1588960329.35885,1.8568157552083333,-1.9877280815972223,-9.492736979166667,-0.6411111111111111,0.06888888888888889,0.7177777777777777,0.20169949001736112,-0.11080050998263889,0.0
1588960329.36885,1.8781202315570729,-1.981879768442927,-9.394360694671219,-0.6411111111111111,0.06888888888888889,0.7177777777777777,0.22650289446341101,-0.04487717084755826,0.0
1588960329.37885,1.8656686952649548,-1.9943313047350453,-9.357006085794865,-0.6411111111111111,0.06888888888888889,0.7177777777777777,0.0708586908119341,0.07185598189104944,0.0
1588960329.38885,1.8427672813666705,-1.9913836406833352,-9.408930874533318,-0.6535569634574047,0.06888888888888889,0.7436268557277721,-0.16155673718746463,-0.03655673718746463,0.0
1588960329.39885,1.8555746810718428,-1.9822126594640785,-9.381063297320393,-0.6555555555555556,0.06888888888888889,0.7477777777777778,-0.09015824330098274,-0.0625,-0.04867087834950863
1588960329.40885,1.8512398089808073,-1.9893800955095964,-9.472561146115156,-0.6555555555555556,0.06888888888888889,0.7477777777777778,-0.039253581609863274,-0.12112559693497721,0.003874403065022788
1588960329.41885,1.8664715922502861,-1.981764203874857,-9.381170446498285,-0.6555555555555556,0.06888888888888889,0.7477777777777778,0.2463423546928622,-0.07352627421785629,0.0514737257821437
1588960329.42885,1.862043501876358,-2.0038694943709263,-9.383869494370927,-0.6555555555555556,0.06888888888888889,0.7477777777777778,0.16331566018171045,-0.11222811327276319,0.0625
