time,acc_x,acc_y,acc_z,mag_x,mag_y,mag_z,gyr_x,gyr_y,gyr_z
1588960345.5449858,0.24,-3.85,-8.95,-0.4811111111111111,0.32,0.6222222222222222,5.0,5.25,7.0625
1588960345.5549858,0.28838479087452473,-3.8648653992395436,-9.00107680608365,-0.4622222222222222,0.3655555555555556,0.6433333333333333,6.8057699619771865,10.537262357414448,6.8513212927756655
1588960345.5649858,0.35,-3.830839690451929,-9.061816804824984,-0.4622222222222222,0.3655555555555556,0.6433333333333333,5.740839552752609,9.590934909531548,4.457633361791193
1588960345.5749857,0.3137916742576061,-3.7579285844416104,-9.09,-0.4622222222222222,0.3655555555555556,0.6433333333333333,4.049516646930224,6.508519880670432,2.775818682820186
1588960345.5849857,0.2768603787597475,-3.681162272558485,-9.046045302636465,-0.4622222222222222,0.3655555555555556,0.6433333333333333,1.968726791682139,2.6533025436316375,1.985471593018938
1588960345.5949857,0.3617442358483832,-3.5341412663287888,-9.027629738025555,-0.46300636099015713,0.3608507229479462,0.6519588597806172,-1.24234197658648,-2.9443215076022557,4.220204422157185
1588960345.6049857,0.37270201304224554,-3.476351006521123,-9.094122483697193,-0.4633333333333333,0.3588888888888889,0.6555555555555556,-2.324337255457896,-5.643624184859654,5.57729656932237
1588960345.6149857,0.3068857597896706,-3.47,-9.05688575978967,-0.4633333333333333,0.3588888888888889,0.6555555555555556,-2.8114730009859192,-7.308905503450717,6.3729460019718385
1588960345.6249857,0.2723989811891433,-3.4852020376217134,-9.09840916929771,-0.4633333333333333,0.3588888888888889,0.6555555555555556,-2.0348790162107666,-6.847379016210766,8.145203762171342
1588960345.6349857,0.2522367994816974,-3.5018421336788683,-9.037105064247921,-0.4633333333333333,0.3588888888888889,0.6555555555555556,-0.6768066353525537,-4.823186615916208,9.846220035633301
1588960345.6449857,0.21030224604861816,-3.4921813476291708,-8.956241796838894,-0.4705927842992267,0.3588888888888889,0.6555555555555556,0.9163104261022276,-2.028745725113227,11.170088501709955
1588960345.6549857,0.19513459478757586,-3.4337886469118173,-8.94,-0.4755555555555556,0.3588888888888889,0.6555555555555556,1.467908782577651,-0.10312834701892182,11.339543912888255
1588960345.6649857,0.17937219101123597,-3.39,-8.996726474719102,-0.4755555555555556,0.3588888888888889,0.6555555555555556,0.6961881144662921,0.9131166608146067,10.317264308286516
1588960345.6749856,0.17647740575977522,-3.417462342932959,-9.039015062826817,-0.4755555555555556,0.3588888888888889,0.6555555555555556,-0.9268540739873566,0.7817207133380161,8.195538710684461
1588960345.6849856,0.19467634648796228,-3.4820871183916604,-9.048705385951848,-0.4755555555555556,0.3588888888888889,0.6555555555555556,-1.7459543310995285,-0.28913346984363364,4.9621897493174485
1588960345.6949856,0.1873002561348426,-3.5173002561348423,-9.023434272494423,-0.4736741120199767,0.3640628586117308,0.6616702470461869,-1.3891752044947534,-1.5843669957861688,0.6744118193836239
1588960345.7049856,0.16609462018266877,-3.5429591779906437,-8.952189240365337,-0.4711111111111111,0.3711111111111111,0.67,-0.4219620182668746,-0.831342935509022,-1.666048256850078
1588960345.7149856,0.18716878894608507,-3.599132484421566,-9.010638851259822,-0.4711111111111111,0.3711111111111111,0.67,0.6969147927390951,3.9383398807911134,0.4643152262259551
1588960345.7249856,0.22707373507094492,-3.5985368675354725,-9.04865783116132,-0.4711111111111111,0.3711111111111111,0.67,1.1783554220967027,7.130364464595597,2.3559548215318658
1588960345.7349856,0.25257752240577086,-3.61,-9.02,-0.4711111111111111,0.3711111111111111,0.67,1.169452424819661,8.086966789495051,2.37948115417044
1588960345.7449856,0.2713573303337083,-3.61,-9.002964004499438,-0.45596800399950005,0.3711111111111111,0.649809190517852,0.6890583989501312,6.372750281214849,1.135041713535808
1588960345.7549856,0.2964708524558149,-3.604509715848062,-9.006470852455815,-0.4444444444444444,0.3711111111111111,0.6344444444444445,0.3627428962015428,4.292871789864271,0.7598000683527
1588960345.7649856,0.31,-3.6109573355033713,-9.0583506742618,-0.4444444444444444,0.3711111111111111,0.6344444444444445,0.04454995931178796,1.4009496338060916,0.1515999186235759
1588960345.7749856,0.29910682216947054,-3.614553411084735,-9.084553411084736,-0.4444444444444444,0.3711111111111111,0.6344444444444445,-0.2611647228816183,-1.7589766745794198,-0.6981177108060687
1588960345.7849855,0.27289342372414743,-3.6065786847448296,-9.056050793213807,-0.4444444444444444,0.3711111111111111,0.6344444444444445,-0.375,-3.5526644068963145,-1.0180838982759215
1588960345.7949855,0.2350928335170893,-3.6016357221609705,-9.00509283351709,-0.44753414185961043,0.3700206296704643,0.6402603454612276,-0.4158930540242558,-4.446562844542448,-0.7409371554575523
1588960345.8049855,0.2060202650038971,-3.621939204988309,-8.976020265003898,-0.4633333333333333,0.3644444444444445,0.67,-0.649873343725643,-4.389653156664068,-0.2755066250974279
1588960345.8149855,0.2,-3.637992287702238,-8.978030849191047,-0.4633333333333333,0.3644444444444445,0.67,-0.8882712297761757,-3.3735539441696707,-0.03716258697292313
1588960345.8249855,0.2,-3.606968777744895,-9.000129476176383,-0.4633333333333333,0.3644444444444445,0.67,-1.9548266868896123,-1.1141471219295649,0.33306359129920093
1588960345.8349855,0.20349326758960745,-3.5565067324103925,-9.007946140716859,-0.4633333333333333,0.3644444444444445,0.67,-2.2816707756495354,1.005155983311208,0.30950123269486063
1588960345.8449855,0.21301828252540395,-3.5620731301016155,-9.035853739796769,-0.4656808864086475,0.3664566327947138,0.672682917800359,-1.2147506975678826,2.4586495814592704,0.2818213289188739
1588960345.8549855,0.2257455017241968,-3.59,-9.000109256034689,-0.4711111111111111,0.3711111111111111,0.6788888888888889,0.5818203933217249,3.8777314008672197,0.9309126293147598
1588960345.8649855,0.25442848989841343,-3.6044284898984134,-9.170237415820113,-0.4711111111111111,0.3711111111111111,0.6788888888888889,1.4002967697751398,5.305356123730168,2.3306528935053077
1588960345.8749855,0.2848454086365042,-3.615051530454499,-9.126803565907451,-0.4711111111111111,0.3711111111111111,0.6788888888888889,1.5934279346593836,4.6649457641966405,2.594716196021849
1588960345.8849854,0.3043972203630064,-3.61,-8.993972203630063,-0.4711111111111111,0.3711111111111111,0.6788888888888889,1.377656354580889,2.6857122819796055,2.3900694909248394
1588960345.8949854,0.3009759036144578,-3.6054879518072287,-8.973295180722893,-0.4686044176706827,0.36459370816599734,0.6713688085676037,0.6958960843373494,-0.10361445783132539,1.629593373493976
1588960345.9049854,0.2803452576676682,-3.6144821134984975,-8.957237938658654,-0.4655555555555556,0.3566666666666667,0.6622222222222223,-0.021539628096830854,-3.047356000907081,0.15089432507511769
1588960345.9149854,0.2529124278049782,-3.621456213902489,-9.074175144390043,-0.4655555555555556,0.3566666666666667,0.6622222222222223,-0.3125,-5.158381951977484,-1.052189304875546
1588960345.9249854,0.22538982283586081,-3.6007796456717216,-9.05545751970205,-0.4655555555555556,0.3566666666666667,0.6622222222222223,-0.25487278544826025,-6.09618639272413,-1.7402544291034796
1588960345.9349854,0.21443871605635792,-3.598341925915463,-8.985561283943643,-0.4655555555555556,0.3566666666666667,0.6622222222222223,-0.11798395070447402,-5.506371605635792,-1.7881049383805925
1588960345.9449854,0.20040225936951378,-3.6187932218914587,-8.998390962521945,-0.4658237284685648,0.3572477079781866,0.662535090620733,0.07758472635676666,-3.966963399740478,-1.5373587894053888
1588960345.9549854,0.20114327901703316,-3.595904480655311,-8.96,-0.4722222222222222,0.3711111111111111,0.67,0.47440300409569514,-0.9863429221817926,-0.6976304733779817
1588960345.9649854,0.18224075944253684,-3.61,-8.968216117955969,-0.4722222222222222,0.3711111111111111,0.67,0.5905094930317107,0.8508887093516462,-0.05497626742072308
1588960345.9749854,0.21361514650866897,-3.6172302930173377,-9.055539413965324,-0.4722222222222222,0.3711111111111111,0.67,1.0278786627167247,3.46246130765871,0.9480679940750869
1588960345.9849854,0.22684067740874714,-3.6254395483941684,-9.018598870985421,-0.4722222222222222,0.3711111111111111,0.67,1.2302542338046696,4.671016935218678,1.2445056450728926
1588960345.9949853,0.2531312809785822,-3.606868719021418,-8.970606157064253,-0.4663075803737893,0.369023590458723,0.6675645592388806,1.375,5.0738654449547544,1.4570705061161384
1588960346.0049853,0.2719525280994261,-3.61992088016571,-8.981873408265136,-0.4533333333333333,0.3644444444444445,0.6622222222222223,1.2255933987571734,4.064972494821556,1.3754944989643112
1588960346.0149853,0.28506035150674874,-3.6450603515067486,-9.07445683643926,-0.4533333333333333,0.3644444444444445,0.6622222222222223,0.8147631815030787,1.797469467438731,0.6935351506748767
1588960346.0249853,0.27538299765429103,-3.635382997654291,-9.11538299765429,-0.4533333333333333,0.3644444444444445,0.6622222222222223,0.4518624120359136,-0.6013255277845184,-0.0722063819461296
1588960346.0349853,0.253085063398303,-3.6257712658495755,-9.059255190194909,-0.4533333333333333,0.3644444444444445,0.6622222222222223,0.19714082311969677,-2.5525284763242455,-0.40142958844015164
1588960346.0449853,0.23,-3.62816287490606,-8.981837125093941,-0.4583217568870367,0.3694328679981478,0.6595012639202023,0.20152695224431236,-3.843098824895812,-0.4885179681628749
1588960346.0549853,0.21879185922098027,-3.6231877888314705,-8.953187788831471,-0.4655555555555556,0.37666666666666665,0.6555555555555556,0.2774745600655633,-3.9697964805245065,-0.42239824026225326
1588960346.0649853,0.21,-3.61,-8.975088368178596,-0.4655555555555556,0.37666666666666665,0.6555555555555556,-0.0006312012756909957,-3.499368798724309,-0.5944601014351524
1588960346.0749853,0.20641180056527442,-3.6135881994347256,-8.999235401695824,-0.4655555555555556,0.37666666666666665,0.6555555555555556,-0.3397049858681396,-2.823901317126337,-0.9647049858681396
1588960346.0849853,0.2,-3.618365197740113,-8.98,-0.4655555555555556,0.37666666666666665,0.6555555555555556,-0.47956497175141244,-1.827497175141243,-1.0841299435028249
1588960346.0949852,0.2016027455190137,-3.6116027455190136,-8.981602745519014,-0.4655555555555556,0.3757762524894368,0.6566240525682313,-0.3048798835431509,-0.3545366936664389,-0.7748284050616441
1588960346.1049852,0.21811440358202946,-3.6145903976119804,-9.00622880716406,-0.4655555555555556,0.3711111111111111,0.6622222222222223,0.11321502238768426,1.29917010447586,-0.18237997014975432
1588960346.1149852,0.239215676409921,-3.600522882393386,-9.048431352819843,-0.4655555555555556,0.3711111111111111,0.6622222222222223,0.24509797756200635,1.9146238952893628,-0.0065360299173248815
1588960346.1249852,0.22706650729958167,-3.6152998804746863,-9.089400239050628,-0.4655555555555556,0.3711111111111111,0.6622222222222223,0.07354141765559635,1.8785444057884402,0.1654171646888073
1588960346.1349852,0.2591275063468214,-3.638255012693643,-9.038255012693641,-0.4655555555555556,0.3711111111111111,0.6622222222222223,0.1195469146676338,1.1925321226879437,0.01342223200870421
1588960346.1449852,0.24707573281028658,-3.62,-9.009765064836003,-0.4647432591139685,0.37192340755269815,0.6646591115469834,-0.019745014710689776,-0.27268170426065164,-0.6005216846463985
1588960346.1549852,0.22896553013309406,-3.618965530133094,-8.952068939733811,-0.46,0.37666666666666665,0.6788888888888889,-0.5193963100044863,-1.6357741700314041,-1.2327580566771348
1588960346.1649852,0.21596740155358987,-3.61,-9.010325984464101,-0.46,0.37666666666666665,0.6788888888888889,-0.7883149611602532,-3.1149448834807596,-1.5997962597099367
1588960346.1749852,0.21393620292083013,-3.61787240584166,-9.06606379707917,-0.46,0.37666666666666665,0.6788888888888889,-0.8636961952344351,-3.5625,-1.4640949269792467
1588960346.1849852,0.21350752233609835,-3.6235075223360984,-9.047015044672197,-0.46,0.37666666666666665,0.6788888888888889,-0.7094220146006146,-3.3190320876036874,-1.1907660438018437
1588960346.1949852,0.1984998086490624,-3.6115001913509377,-9.012499043245311,-0.4608334396394098,0.37583322702725686,0.6763885699706595,-0.5406142365097589,-2.671857060849598,-0.8531142365097589
1588960346.2049851,0.19,-3.6155757589345767,-8.952303035738307,-0.4655555555555556,0.3711111111111111,0.6622222222222223,0.02045451997668267,-1.1560608268687502,-0.18143945338774048
1588960346.2149851,0.19396903621739736,-3.61,-8.965721325956576,-0.4655555555555556,0.3711111111111111,0.6622222222222223,0.24903238179366777,0.14690362173973687,0.1617259054349342
1588960346.2249851,0.20348342006139913,-3.61,-9.002582899693005,-0.4655555555555556,0.3711111111111111,0.6622222222222223,0.45927137538374446,1.2725130092098675,0.42135687691872237
1588960346.234985,0.21228371005455962,-3.61,-8.983702260327359,-0.4655555555555556,0.3711111111111111,0.6622222222222223,0.4286340607950117,2.3927318784099767,0.6107268121590024
1588960346.244985,0.22032052496920307,-3.61,-9.028076850184782,-0.46576923886835764,0.37064813060004004,0.6627564305042274,0.1915065621150384,2.875,0.5584934378849616
1588960346.254985,0.22979006487847392,-3.6089503243923695,-8.972939091701367,-0.4722222222222222,0.3566666666666667,0.6788888888888889,0.33349351215260964,2.8723758109809236,0.4427483780381524
1588960346.264985,0.22166708627868695,-3.5683354313934346,-9.086660792098382,-0.4722222222222222,0.3566666666666667,0.6788888888888889,1.1457913721313062,2.7708385784835867,0.6458228430328266
1588960346.274985,0.22089135445141234,-3.5998048989655356,-9.111086455485875,-0.4722222222222222,0.3566666666666667,0.6788888888888889,3.677051508817066,2.8459257919279626,1.0099225491772525
1588960346.284985,0.2283850565471405,-3.6822356220185455,-9.036149434528594,-0.4722222222222222,0.3566666666666667,0.6788888888888889,5.690983947044005,3.126939620517768,1.6187858444551644
1588960346.294985,0.2605957660446825,-3.8052338716425402,-8.94761693582127,-0.4718250448591006,0.35752721762009687,0.6774987681179632,8.79840599113045,3.9561176888963265,1.6353704710902854
1588960346.304985,0.26936971801522885,-3.7350422558781693,-8.912521127939085,-0.46597574354540305,0.370200703799775,0.6570262135200216,9.511289588737345,4.230303687975901,0.8676496736674755
1588960346.314985,0.2555916434069187,-3.6735498604415127,-8.907633426372326,-0.4655555555555556,0.3711111111111111,0.6555555555555556,7.145880910090502,2.615283768924977,-0.9482312018946122
1588960346.324985,0.2414013363782458,-3.5884080182694746,-8.964394654487018,-0.4655555555555556,0.3711111111111111,0.6555555555555556,4.396508923285122,0.9745295187346694,-2.1898830669034934
1588960346.334985,0.23,-3.674710433437071,-8.999420866874141,-0.4655555555555556,0.3711111111111111,0.6555555555555556,-0.28240454995914255,-0.44539440513239564,-2.211183215397187
1588960346.344985,0.23,-3.6236644818053794,-8.897328963610759,-0.4655555555555556,0.3711111111111111,0.6555555555555556,-2.0598975085626856,-0.2630874350192117,-1.664262305057635
1588960346.354985,0.226380405720313,-3.601902028601565,-9.035337159957809,-0.4722222222222222,0.37666666666666665,0.6788888888888889,-1.6154181077832561,1.2024492849608752,0.49232682071283146
1588960346.364985,0.22718401947964106,-3.609512107138026,-9.072815980520359,-0.4722222222222222,0.37666666666666665,0.6788888888888889,-0.44359866077467647,1.6632490868918248,0.8907990260179466
1588960346.374985,0.24,-3.686262911667979,-9.038079809162074,-0.4722222222222222,0.37666666666666665,0.6788888888888889,0.7702171823613877,1.1212147968873036,0.4261443906619112
1588960346.384985,0.2447479373176434,-3.6976260313411786,-8.980504125364714,-0.4722222222222222,0.37666666666666665,0.6788888888888889,1.6186984329410856,1.6654445152937993,1.4653413811759703
1588960346.394985,0.26158281659528226,-3.691582816595282,-8.947625775107076,-0.4716946166904615,0.37666666666666665,0.6765146639959655,2.014838905580771,3.0395704148820557,3.6713186409256537
1588960346.404985,0.2894015319636338,-3.71,-8.916866156012123,-0.4655555555555556,0.37666666666666665,0.6488888888888888,1.99163475075763,2.990750351969838,4.643702126136445
1588960346.414985,0.30739984599285247,-3.7073998459928523,-8.95160246411436,-0.4655555555555556,0.37666666666666665,0.6488888888888888,1.3187355618299208,1.1924595731237781,3.431216310936482
1588960346.424985,0.2984538670637325,-3.6969077341274654,-9.0723191994044,-0.4655555555555556,0.37666666666666665,0.6488888888888888,0.5380300223349551,-1.0205732638468064,1.5709167287082084
1588960346.434985,0.2839299132572675,-3.667859826514535,-9.094105130114098,-0.4655555555555556,0.37666666666666665,0.6488888888888888,-0.278942379278702,-3.5622651799781844,-0.6984510535519504
1588960346.444985,0.23437901498929337,-3.638875802997859,-8.978875802997859,-0.46330716155127294,0.3760421127765881,0.6488888888888888,-1.5288410064239828,-9.414547644539615,-8.307280513918629
1588960346.454985,0.18096133678249318,-3.639038663217507,-8.94288401034748,-0.4455555555555555,0.3711111111111111,0.6488888888888888,-2.3253221934792236,-12.743991645109418,-15.562130030995828
1588960346.464985,0.16197444869932656,-3.6580255513006734,-8.881974448699328,-0.4455555555555555,0.3711111111111111,0.6488888888888888,-2.487659695629209,-12.09756082464017,-18.824041826224747
1588960346.474985,0.16889756371319162,-3.6511024362868083,-8.888897563713192,-0.4455555555555555,0.3711111111111111,0.6488888888888888,-2.4443902267925526,-9.371584287930807,-19.083658639244685
1588960346.4849849,0.15072983073202903,-3.725364915366015,-8.881058474389976,-0.4455555555555555,0.3711111111111111,0.6488888888888888,-1.5533771158496372,0.14711337656627843,-14.38025527588481
1588960346.4949849,0.19024526583550547,-3.7451226329177527,-8.848128945137079,-0.4455555555555555,0.3711111111111111,0.6488888888888888,-1.059434177056182,5.292352322331439,-10.716845146500017
1588960346.5049849,0.28642604807431016,-3.7258274660935298,-9.00338027125176,-0.4655555555555556,0.3711111111111111,0.6344444444444445,1.0455544850416265,15.231843980829566,-0.7954448602979323
1588960346.5149848,0.4588732676239556,-3.698225346475209,-9.1904788112273,-0.4655555555555556,0.3711111111111111,0.6344444444444445,2.941549507179667,18.787146019912942,5.5665495071796665
1588960346.5249848,0.4934890682248138,-3.6965109317751863,-9.093489068224814,-0.4655555555555556,0.3711111111111111,0.6344444444444445,2.856631205249168,14.027833820254315,4.871231351325463
1588960346.5349848,0.4556013391206182,-3.7110008369503866,-9.057401171730541,-0.4655555555555556,0.3711111111111111,0.6344444444444445,1.1787740623236078,5.078899604881562,0.7550460322712498
1588960346.5449848,0.39029118087860326,-3.670181988049127,-9.000254783268778,-0.4655555555555556,0.3711111111111111,0.6344444444444445,0.005232156412402489,-2.217469636218542,-1.4899906572980126
1588960346.5549848,0.344046618096978,-3.688381352761209,-8.926474588955164,-0.4655555555555556,0.3762170424336691,0.6599741010572345,-0.2872086368938877,-7.821847555741422,-1.3276748178636675
1588960346.5649848,0.2926212448458669,-3.6944659336344,-8.93,-0.4655555555555556,0.37666666666666665,0.6622222222222223,-0.5248809640683291,-12.304615403494994,-1.342234439426664
1588960346.5749848,0.2448530274392231,-3.67,-8.931893371570096,-0.4655555555555556,0.37666666666666665,0.6622222222222223,-1.2230007169393209,-13.06732711985922,-1.8210014338786418
1588960346.5849848,0.18,-3.6720382193650654,-8.94,-0.4655555555555556,0.37666666666666665,0.6622222222222223,-1.3431528224208533,-11.316878384923605,-2.0421973382942187
1588960346.5949848,0.17967264446342157,-3.69,-8.939345288926843,-0.4655555555555556,0.37666666666666665,0.6627678147831862,-1.035902362653003,-7.322000426985483,-1.2777184742385426
1588960346.6049848,0.17709698981751745,-3.69,-8.941290969452552,-0.4655555555555556,0.37666666666666665,0.6788888888888889,-0.20564381364051604,-1.2529995989394176,-0.18346572046077403
1588960346.6149848,0.2133429241438954,-3.688328537928052,-9.041671462071948,-0.4655555555555556,0.37666666666666665,0.6788888888888889,0.01044663794967319,2.808175819515359,0.16156323282385618
1588960346.6249847,0.24124586292347863,-3.6743770685382606,-9.05562293146174,-0.4655555555555556,0.37666666666666665,0.6788888888888889,0.09764332163587074,5.380477988258187,0.4667516257255476
1588960346.6349847,0.29076510607634104,-3.6603060424305367,-8.989693957569465,-0.4655555555555556,0.37666666666666665,0.6788888888888889,0.6827180870228684,8.12213085221372,1.0605872348091474
1588960346.6449847,0.3352122586524808,-3.6780849034609924,-8.971915096539009,-0.4655555555555556,0.37666666666666665,0.6788888888888889,0.4049233834219952,7.955454030053197,0.9494693533687981
1588960346.6549847,0.3857932604067249,-3.6616826958373103,-8.942524043755965,-0.4767494636549772,0.37666666666666665,0.6788888888888889,0.20327527347478158,5.876803281697379,0.42232582042434474
1588960346.6649847,0.39,-3.6929215116279073,-8.956460755813954,-0.4777777777777778,0.37666666666666665,0.6788888888888889,-0.01825944767441859,3.1155069040697674,-0.03651889534883718
1588960346.6749847,0.3483000762297655,-3.685612528586162,-9.084150038114883,-0.4777777777777778,0.37666666666666665,0.6788888888888889,-0.6173433926729743,-1.4493716649477602,-0.5121084816824357
1588960346.6849847,0.27599618684461397,-3.659199237368923,-9.045195424213537,-0.4777777777777778,0.37666666666666665,0.6788888888888889,-0.9575190657769304,-4.652704957102002,-1.3475333651096282
1588960346.6949847,0.23253554109503877,-3.6505071082190077,-8.993042649314047,-0.4777777777777778,0.37666666666666665,0.6788888888888889,-1.1748222945248061,-6.988714666141667,-1.727814015418411
1588960346.7049847,0.21275246184414506,-3.6672475381558547,-8.95550492368829,-0.4566974533650662,0.37187568384559583,0.6530175816551065,-1.0797028865259066,-7.663985567370466,-1.91169567021114
1588960346.7149847,0.20909692661765006,-3.65090307338235,-8.9090307338235,-0.4533333333333333,0.3711111111111111,0.6488888888888888,-0.6762115827206256,-6.029875863052201,-1.0455673740809386
1588960346.7249846,0.2005543901097782,-3.6594456098902217,-8.994456098902218,-0.4533333333333333,0.3711111111111111,0.6488888888888888,-0.5694298763722275,-3.947632589258437,-0.8853948145583412
1588960346.7349846,0.22,-3.661613485358051,-8.947579771962923,-0.4533333333333333,0.3711111111111111,0.6488888888888888,-0.46974714953654334,-0.7902243458288901,-0.9344521573291773
1588960346.7449846,0.22,-3.678815929784267,-8.9217761053236,-0.4533333333333333,0.3711111111111111,0.6488888888888888,-0.14720131654499224,2.1126881510950706,-0.2356028525141498
1588960346.7549846,0.2570429020440031,-3.6856343216352028,-8.941268643270405,-0.4533333333333333,0.3711111111111111,0.6555555555555556,0.1610891173349883,4.873250785770055,0.6514108826650117
1588960346.7649846,0.29902704650557543,-3.7192216372044604,-9.00844327440892,-0.4533333333333333,0.3711111111111111,0.6555555555555556,0.0036485756040920136,5.6079733138475705,0.808851424395908
1588960346.7749846,0.34992201778969173,-3.6451169733154622,-9.018320336298281,-0.4533333333333333,0.3711111111111111,0.6555555555555556,-1.3000525466065556,4.844968472036067,0.6564936944072134
1588960346.7849846,0.3995826647606267,-3.4283306590425067,-9.077078653324387,-0.4533333333333333,0.3711111111111111,0.6555555555555556,-5.721609060011086,2.549257701957581,0.16914129737141523
1588960346.7949846,0.39346442220731104,-3.403857688829244,-9.034250955451178,-0.4533333333333333,0.3711111111111111,0.6555555555555556,-8.054189033462672,0.522589856171777,-1.0162681973334888
1588960346.8049846,0.38214939155950634,-3.3271951324760507,-8.900091481833089,-0.4725237095212067,0.3711111111111111,0.6607892945158848,-10.994187990851817,-3.5689781651851216,-3.1104227798394755
1588960346.8149846,0.41395674442530916,-3.074389300172217,-9.030767596340944,-0.4777777777777778,0.3711111111111111,0.6622222222222223,-11.28297287021091,-6.19094574042182,-3.94094574042182
1588960346.8249846,0.4349146757679181,-2.8479912237932714,-8.980170648464165,-0.4777777777777778,0.3711111111111111,0.6622222222222223,-11.645294978059484,-6.620459531935641,-4.5429973183812775
1588960346.8349845,0.3645386408011589,-2.9630232411664674,-9.104538640801158,-0.4777777777777778,0.3711111111111111,0.6622222222222223,-13.615528752283177,-6.570376960382944,-6.839787900736915
1588960346.8449845,0.25006298419096806,-3.236003653083076,-8.990062984190969,-0.4777777777777778,0.3711111111111111,0.6622222222222223,-16.037129180575675,-6.735486080493796,-10.03189755621339
1588960346.8549845,0.20187590935363642,-3.2447503637414545,-9.033373726904909,-0.46845855561977784,0.3660278990249294,0.6588334141647677,-16.7742062463875,-6.0351733003806824,-11.265602266159089
1588960346.8649845,0.27053440507102494,-3.399465594928975,-9.255905758362609,-0.4655555555555556,0.3644444444444445,0.6577777777777778,-15.43472558996487,-2.5241164846494577,-9.217730926378493
1588960346.8749845,0.1824457766916145,-3.4875542233083854,-9.031680158851382,-0.4655555555555556,0.3644444444444445,0.6577777777777778,-13.082358809378341,-0.4220014892317092,-8.917428784175959
1588960346.8849845,0.22739017675457845,-3.5915245581135538,-9.280732154969478,-0.4655555555555556,0.3644444444444445,0.6577777777777778,-9.903585464629135,0.2884905039300962,-9.447943681921558
1588960346.8949845,0.2775952599449388,-3.466011850137653,-8.946031600367075,-0.4655555555555556,0.3644444444444445,0.6577777777777778,-7.550222190080996,0.5499753122132227,-8.245113563819176
1588960346.9049845,0.29365575748970607,-3.4031531307681386,-8.97096727246912,-0.4655555555555556,0.3644444444444445,0.67,-7.304646457475507,-0.5013333274172938,-8.147848484310662
1588960346.9149845,0.3159880377679966,-3.5445909058639784,-9.03796411330399,-0.4655555555555556,0.3644444444444445,0.67,-9.165669813999717,-2.0366775965497657,-8.287425236049978
1588960346.9249845,0.2518089932538843,-3.3693216275297937,-9.300904496626943,-0.4655555555555556,0.3644444444444445,0.67,-12.91566914651059,-4.025438967632748,-9.139132759795972
1588960346.9349844,0.3295365773864558,-3.3402574570075245,-9.337940343939803,-0.4655555555555556,0.3644444444444445,0.67,-17.391734705489096,-5.12725274881584,-9.749356357481188
1588960346.9449844,0.2758422826906391,-3.3700876207274226,-9.099299034180618,-0.4655555555555556,0.3644444444444445,0.67,-19.33069534728248,-5.388266681364949,-9.674780948181443
1588960346.9549844,0.3050971821422509,-3.0408423866915633,-9.383844423697164,-0.46950083932175257,0.3526085931458534,0.67,-22.326403624172467,-5.710448141232388,-10.475701812086234
1588960346.9649844,0.28873300952596104,-2.3755932075755863,-7.476235927557513,-0.4722222222222222,0.34444444444444444,0.67,-28.218555856771715,-5.295928404683911,-11.217591023758425
1588960346.9749844,0.24925204262208667,-3.1731087390338493,-8.60539158100832,-0.4722222222222222,0.34444444444444444,0.67,-35.02902264769005,-6.727113454949357,-12.15526398772544
1588960346.9849844,0.273483474090293,-3.460450422270879,-9.481073402147846,-0.4722222222222222,0.34444444444444444,0.67,-37.8283123501199,-7.376407569596497,-13.578312350119903
1588960346.9949844,0.1819300611964531,-3.6583089796428125,-9.332536530535782,-0.4722222222222222,0.34444444444444444,0.67,-29.81570969151992,-9.777805357811914,-14.704044898214063
1588960347.0049844,0.16263548582956305,-3.6947290283408742,-9.37364514170437,-0.4722222222222222,0.3354433715694659,0.6871838663976862,-17.67367231721409,-13.008305668174785,-13.799879301564918
1588960347.0149844,0.10195930587126463,-3.4854282863003827,-9.394732494317237,-0.4722222222222222,0.3322222222222222,0.6933333333333334,3.3788774463602596,-11.428535787547819,-8.075483727892665
1588960347.0249844,0.12521317292232634,-3.4311692631812387,-8.976162887398127,-0.4722222222222222,0.3322222222222222,0.6933333333333334,13.06798871763597,-4.646157897654821,-3.037145866829295
1588960347.0349844,0.14963742483197737,-3.685105235231694,-9.400573045631411,-0.4722222222222222,0.3322222222222222,0.6933333333333334,18.867251061195613,7.673317562787407,2.97072316059427
1588960347.0449843,0.15812439796339617,-3.787492775560754,-9.206890050915096,-0.4722222222222222,0.3322222222222222,0.6933333333333334,18.886722512728774,13.917520985275903,3.6718298472547133
1588960347.0549843,0.2804856793859729,-3.6691500610745473,-9.000283312975151,-0.46,0.3055555555555556,0.6977777777777778,17.795551813093653,17.307693797742978,2.5576937977429766
1588960347.0649843,0.3722462671601247,-3.5085690324697816,-9.053810322510072,-0.46,0.3055555555555556,0.6977777777777778,14.593489635558148,16.399646314561267,1.6496463145612659
1588960347.0749843,0.4702624708953644,-3.3293875679108162,-9.071662315670642,-0.46,0.3055555555555556,0.6977777777777778,6.627897234177662,12.642114407676567,0.3103127425386298
1588960347.0849843,0.49985606434770335,-3.2603358498553585,-9.259088407535454,-0.46,0.3055555555555556,0.6977777777777778,-0.09231461229097526,7.524888873209624,0.06369946376913851
1588960347.0949843,0.48335278789651415,-3.243352787896514,-9.248901858597677,-0.46,0.3055555555555556,0.6977777777777778,-1.7897212103485869,3.789058968597942,-0.07622676752904889
1588960347.1049843,0.4429271120706889,-3.233384110991164,-9.253536443964656,-0.468272271311734,0.30969169121142254,0.6913855681278016,-3.674918036064132,-1.30256936947743,-0.2298013873895486
1588960347.1149843,0.28141654333168886,-3.1982371320506497,-9.17141654333169,-0.4844444444444445,0.31777777777777777,0.6788888888888889,-6.159496793290577,-8.778529435948034,-0.41690716987337606
1588960347.1249843,0.23869724876473192,-3.168697248764732,-9.185504585392113,-0.4844444444444445,0.31777777777777777,0.6788888888888889,-7.591399025243689,-10.280733903062696,-1.1475917078422704
1588960347.1349843,0.2036799477465709,-3.1161332462442846,-9.112266492488569,-0.4844444444444445,0.31777777777777777,0.6788888888888889,-8.994668517308948,-9.80249836708034,-3.192170150228609
1588960347.1449842,0.2,-3.11,-8.992872858431019,-0.4844444444444445,0.31777777777777777,0.6788888888888889,-8.933701532912535,-7.391918394950405,-4.441816952209198
1588960347.1549842,0.24332445991604384,-3.0914323743216956,-9.077594962629263,-0.47687985620513523,0.321903916817401,0.6823273380885749,-7.86925360909184,-1.3106250639909902,-4.672634893007064
1588960347.1649842,0.32658085114982016,-3.0422794325667866,-9.159430141858303,-0.4722222222222222,0.3244444444444444,0.6844444444444444,-7.25,2.0,-4.625
1588960347.1749842,0.388485426620066,-3.027003238528874,-9.34195466059576,-0.4722222222222222,0.3244444444444444,0.6844444444444444,-7.534304157180877,3.259061267515311,-4.178236324430051
1588960347.1849842,0.45181199556891916,-3.02,-9.336611014401013,-0.4722222222222222,0.3244444444444444,0.6844444444444444,-8.781037347681595,-1.3313617661022317,-4.285443701535053
1588960347.1949842,0.39286517081879413,-3.0125405745354215,-9.21302746896048,-0.4722222222222222,0.3244444444444444,0.6844444444444444,-8.036828998620466,-6.696941187210906,-4.887835500689767
1588960347.2049842,0.28377210408050285,-3.0674852639463315,-9.122514736053668,-0.46051226104796955,0.31166994134525966,0.6972189475436292,-4.513834386296285,-9.918794981600286,-4.104412267561143
1588960347.2149842,0.20954357385785155,-3.1844916924809916,-9.155228213071075,-0.46,0.3111111111111111,0.6977777777777778,-0.4118260295041485,-8.183545263522735,-1.8056926001343068
1588960347.2249842,0.20882890305071602,-2.970448520681383,-9.080539872543556,-0.46,0.3111111111111111,0.6977777777777778,2.8288515592817856,-2.9160613899052557,0.9831289830138843
1588960347.2349842,0.2016610489416206,-3.106779021167588,-9.236779021167587,-0.46,0.3111111111111111,0.6977777777777778,3.5002106646892273,2.075830861534313,1.3646184441148712
1588960347.2449841,0.20691877928631502,-3.091568544995795,-9.18697464856422,-0.46,0.3111111111111111,0.6977777777777778,3.519257629460531,4.7536795626576955,-0.26821008049981976
1588960347.2549841,0.22594380403458214,-3.1337752161383285,-9.181887608069164,-0.4697434357989113,0.30668227665706055,0.6977777777777778,2.852282961095101,6.509163364553314,-1.6975414265129682
1588960347.2649841,0.29237249936692833,-3.230193213471765,-9.234551785262092,-0.4722222222222222,0.3055555555555556,0.6977777777777778,2.5204308052671562,7.306897315776146,0.01845087363889575
1588960347.2749841,0.343279291709785,-3.254426430569928,-9.297705722279714,-0.4722222222222222,0.3055555555555556,0.6977777777777778,2.5901651910620522,6.788926258096661,2.098386416772067
1588960347.284984,0.3929071966853815,-3.1777320082865463,-9.287092803314618,-0.4722222222222222,0.3055555555555556,0.6977777777777778,2.727834989641817,3.4260328159245805,2.7610825051790915
1588960347.294984,0.3572091826637641,-3.1100773797743915,-9.180154759548783,-0.4722222222222222,0.3055555555555556,0.6977777777777778,2.1705410152384723,-1.1279178210963785,0.5658853651296258
1588960347.304984,0.3177205121441471,-3.1568384635675586,-9.07316153643244,-0.4753165955355351,0.3055555555555556,0.6903512818258268,0.5798437087839621,-4.28883818963943,-1.6005328916664976
1588960347.314984,0.2697571245958343,-3.1873178434468756,-9.156092939318745,-0.4777777777777778,0.3055555555555556,0.6844444444444444,-1.539598842018197,-5.420736521542973,-2.955781449733063
1588960347.324984,0.24394490566037735,-3.153241509433962,-9.189296603773585,-0.4777777777777778,0.3055555555555556,0.6844444444444444,-2.142584905660377,-4.137419811320755,-2.627674528301887
1588960347.334984,0.2382157859827548,-3.1135684280344904,-9.163568428034491,-0.4777777777777778,0.3055555555555556,0.6844444444444444,-2.3236513376077825,-2.1382240769400838,-2.121628344019456
1588960347.344984,0.25,-3.101123826668381,-9.245676353349621,-0.4777777777777778,0.3055555555555556,0.6844444444444444,-2.1804760833226178,-0.04773691654879775,-2.0070239166773822
1588960347.354984,0.2733332112376836,-3.0788890516830882,-9.182222995494671,-0.45876553158410965,0.30987652059957105,0.6671605842683825,-0.8125068678802976,1.0972194241969158,-1.3333371488223875
1588960347.364984,0.28634389588343473,-3.0826877917668694,-9.159031687650304,-0.4533333333333333,0.3111111111111111,0.6622222222222223,0.35548698542933943,1.9636882868864056,0.2627272245013439
1588960347.374984,0.3289591118927237,-3.1055836447570893,-9.30246098043526,-0.4533333333333333,0.3111111111111111,0.6622222222222223,1.1046933391954274,2.131505550670477,1.8416822378544735
1588960347.384984,0.34,-3.102261317360109,-9.223919760401628,-0.4533333333333333,0.3111111111111111,0.6622222222222223,0.9456661675033936,0.46639670552239787,0.9984311370149319
1588960347.394984,0.34,-3.1056513378978203,-9.173045986306539,-0.4533333333333333,0.3111111111111111,0.6622222222222223,0.41582879580210974,-1.2715510270095423,-0.6900136125936707
1588960347.404984,0.29329911830504013,-3.11583761021187,-9.14248716936439,-0.4676030471845711,0.30332763082861774,0.6803836762147066,-0.4118058297144361,-2.906731148835373,-2.479701276483748
1588960347.414984,0.2522561797752809,-3.112256179775281,-9.145487640449439,-0.4777777777777778,0.2977777777777777,0.6933333333333334,-1.0403932584269664,-3.278202247191011,-3.0
1588960347.424984,0.24201333938944802,-3.117986660610552,-9.26979990915828,-0.4777777777777778,0.2977777777777777,0.6933333333333334,-0.9253334847362005,-2.301584052496952,-2.6505835982883506
1588960347.434984,0.24748370244686552,-3.12,-9.255097785318807,-0.4777777777777778,0.2977777777777777,0.6933333333333334,-0.6411342985354528,-1.1270371941418111,-1.9544491761921772
1588960347.444984,0.26345882972421514,-3.12,-9.21308234055157,-0.4777777777777778,0.2977777777777777,0.6933333333333334,-0.26808809978279474,0.5333829724215098,-0.8667642993483841
1588960347.454984,0.2943779868353822,-3.111874004388206,-9.151244026329236,-0.48319510818564054,0.3040979965869509,0.6969448869385751,0.23051230801598988,1.9493120886056927,0.1211621983108413
1588960347.464984,0.3214033966033966,-3.0885966033966032,-9.125731068931069,-0.4844444444444445,0.3055555555555556,0.6977777777777778,-0.04422327672327675,1.3223726273726273,-0.4634465534465535
1588960347.474984,0.3352174817111208,-3.085217481711121,-9.19304474395569,-0.4844444444444445,0.3055555555555556,0.6977777777777778,-0.44837408555603864,-0.5000259919472221,-2.217416731252717
1588960347.484984,0.30381825428457554,-3.0960302909525708,-9.266030290952571,-0.4844444444444445,0.3055555555555556,0.6977777777777778,-1.0643931845356716,-3.3448834196891193,-5.145451375049821
1588960347.494984,0.2655176120519092,-3.090345074701273,-9.23138029880509,-0.4844444444444445,0.3055555555555556,0.6977777777777778,-1.2219850753244326,-4.372843283117045,-6.609902981819315
1588960347.504984,0.23816104019232723,-3.0888792198557544,-9.184080520096163,-0.4772095245619778,0.3012803756250071,0.6964623377991476,-1.0325081265025564,-3.9195455084143163,-6.76652600480818
1588960347.514984,0.22718126802323219,-3.114295317005808,-9.165704682994193,-0.46,0.2911111111111111,0.6933333333333334,-0.5708884184232972,-1.2915219731123837,-5.122899404979489
1588960347.524984,0.2712927522865268,-3.135969564214895,-9.234524633002843,-0.46,0.2911111111111111,0.6933333333333334,-0.1834601491046038,1.860027092460226,-2.7438225347782645
1588960347.5349839,0.3036833881012018,-3.1636833881012016,-9.238424753544592,-0.46,0.2911111111111111,0.6933333333333334,-1.1512541075901372,3.8552117563251143,-0.5954641289610958
1588960347.5449839,0.35696311100008327,-3.140648055624948,-9.198259222249979,-0.46,0.2911111111111111,0.6933333333333334,-3.129287149221417,3.8831006953118496,0.8547482617203763
1588960347.5549839,0.39,-3.091391842633134,-9.19476802622781,-0.456821315848126,0.29428979526298504,0.6864461843376064,-5.409306720876561,2.1945921316567087,1.9470024588572785
1588960347.5649838,0.39,-3.08306919715646,-9.171163503554425,-0.4533333333333333,0.2977777777777777,0.6788888888888889,-7.651140513924216,-1.8261021978738667,2.725864964455749
1588960347.5749838,0.3620265604249668,-3.065033200531208,-9.331827357237716,-0.4533333333333333,0.2977777777777777,0.6788888888888889,-7.656872509960159,-6.684594953519256,2.9375
1588960347.5849838,0.26292093488086854,-3.00311127262816,-9.376508051877257,-0.4533333333333333,0.2977777777777777,0.6788888888888889,-4.988698696254572,-9.549002600676857,3.021229870306857
1588960347.5949838,0.1998440889869461,-2.98,-9.284415333701048,-0.4533333333333333,0.2977777777777777,0.6788888888888889,-1.4504791781577495,-9.619640558926273,3.0939936109578965
1588960347.6049838,0.16816596131788158,-3.0155021160463553,-9.180414903294704,-0.46779715838925584,0.2977777777777777,0.6788888888888889,2.8350126567258633,-6.385785409168216,3.19896274176324
1588960347.6149838,0.16,-3.086465833945628,-9.126810118610265,-0.4777777777777778,0.2977777777777777,0.6788888888888889,4.934272331269025,-0.5177521780203636,3.084050593051328
1588960347.6249838,0.19642169831198933,-3.1282108491559946,-9.176773113571981,-0.4777777777777778,0.2977777777777777,0.6788888888888889,4.6295931566502,5.204669831198933,2.8861821927750335
1588960347.6349838,0.24388175880923452,-3.1256709447144595,-9.210447296476307,-0.4777777777777778,0.2977777777777777,0.6788888888888889,3.082968655072904,8.846144535996356,2.1856038312575943
1588960347.6449838,0.29252111989074236,-3.112815139986343,-9.202815139986342,-0.4777777777777778,0.2977777777777777,0.6788888888888889,1.4175397522192956,9.845323626963223,1.0425397522192956
1588960347.6549838,0.3696732026143791,-3.1081960784313725,-9.21983660130719,-0.4777777777777778,0.2977777777777777,0.6812933914306464,0.07785947712418301,8.037867647058823,-0.014338235294117652
1588960347.6649837,0.4253189194259451,-3.055063783885189,-9.274808648344433,-0.4777777777777778,0.2977777777777777,0.6911111111111111,-0.7175540521527062,2.1909324875715224,0.746013507175687
1588960347.6749837,0.36604700498176534,-3.0597008557194956,-9.299700855719495,-0.4777777777777778,0.2977777777777777,0.6911111111111111,-0.3577723881486425,-2.836138059256787,1.6991186565919005
1588960347.6849837,0.29199951422752835,-3.0585998542682584,-9.268199465650282,-0.4777777777777778,0.2977777777777777,0.6911111111111111,0.6950072865870747,-5.653755161332511,3.3012618407039964
1588960347.6949837,0.2191954235667808,-3.056206864649829,-9.2,-0.4777777777777778,0.2977777777777777,0.6911111111111111,1.979525164215006,-5.924210534431184,5.167025164215006
1588960347.7049837,0.18618133188457278,-3.1038186681154274,-9.142719978268591,-0.4709890344614628,0.3007478529786656,0.696626965055617,3.343233487264141,-3.442999456714796,6.22046670288568
1588960347.7149837,0.18,-3.087383174150108,-9.059046730339958,-0.46,0.3055555555555556,0.7055555555555556,4.22616825849892,0.9670563911150145,6.488084129249461
1588960347.7249837,0.20512760804769,-3.065025521609538,-9.130306259314455,-0.46,0.3055555555555556,0.7055555555555556,5.096780691132638,5.133294523099851,6.153857349105812
1588960347.7349837,0.24506772566984147,-3.090090300893122,-9.220135451339683,-0.46,0.3055555555555556,0.7055555555555556,6.409495188346571,7.503386283492074,4.714376050489404
1588960347.7449837,0.2773418621179815,-3.11,-9.223987206823027,-0.46,0.3055555555555556,0.7055555555555556,7.26048329779673,8.195806680881308,2.9912935323383083
1588960347.7549837,0.3,-3.116282555058028,-9.196282555058028,-0.46255955946808547,0.3039267449849557,0.7029959960874701,7.4375,7.850138216211277,1.7513155289530598
1588960347.7649837,0.3140570875948774,-3.1540570875948775,-9.215314304135042,-0.4722222222222222,0.2977777777777777,0.6933333333333334,7.5546423966239775,6.168216818568121,0.6367864050640331
1588960347.7749836,0.3407023576742409,-3.159297642325759,-9.236755894185603,-0.4722222222222222,0.2977777777777777,0.6933333333333334,7.587165396803992,4.868937248555953,0.7385038095880251
1588960347.7849836,0.3375047510824631,-3.166660331890049,-9.23917458513744,-0.4722222222222222,0.2977777777777777,0.6933333333333334,7.343809388530789,3.854364628435963,1.3384129915166239
1588960347.7949836,0.32,-3.210171398556935,-9.179742902164598,-0.4722222222222222,0.2977777777777777,0.6933333333333334,6.620715036076632,2.767798150554281,2.127678102452105
1588960347.8049836,0.31634888314226955,-3.25,-9.112697766284539,-0.47668469838167055,0.302645933588085,0.6949560519367691,4.620942864124127,1.7430272749485858,2.7728194803608153
1588960347.8149836,0.31373028801164526,-3.220157695906838,-9.096269711988354,-0.4844444444444445,0.3111111111111111,0.6977777777777778,1.9657422971614738,0.9077283991266073,2.55604269919939
1588960347.8249836,0.3042001722196463,-3.175266609260118,-9.205865403722594,-0.4844444444444445,0.3111111111111111,0.6977777777777778,0.20708584486984166,0.1412532291183679,1.828753229118368
1588960347.8349836,0.29,-3.193870662247176,-9.268388013258473,-0.4844444444444445,0.3111111111111111,0.6977777777777778,0.15171036832848542,0.005037458567273223,1.5408270902387877
1588960347.8449836,0.29,-3.2153862743051933,-9.191153431423702,-0.4844444444444445,0.3111111111111111,0.6977777777777778,0.4375,0.372552088768305,1.5576715711850846
1588960347.8549836,0.29320097716080495,-3.176799022839195,-9.183995114195975,-0.47839815425181287,0.3132450958849811,0.6963551212618645,0.4775122145100624,1.6325977160804994,2.1400427507852187
1588960347.8649836,0.3023412225438447,-3.179364890175379,-9.147658777456156,-0.4655555555555556,0.31777777777777777,0.6933333333333334,0.6210305635961179,2.473459049889324,2.6130916907883535
1588960347.8749835,0.3182391308951526,-3.2017608691048474,-9.172956523580611,-0.4655555555555556,0.31777777777777777,0.6933333333333334,0.7610054319052963,2.845516295715889,3.316236420236759
1588960347.8849835,0.3390352806195621,-3.19,-9.201929438760876,-0.4655555555555556,0.31777777777777777,0.6933333333333334,0.5745589922554737,2.0038244574051056,3.0482359690218948
1588960347.8949835,0.33697499341932086,-3.198683337720453,-9.171316662279548,-0.4655555555555556,0.31777777777777777,0.6933333333333334,0.1390102658594367,0.2731245064490655,1.6859370887075547
1588960347.9049835,0.31623894834806887,-3.206238948348069,-9.141194741740344,-0.4726597642314255,0.3102556744739155,0.684557546145494,-0.7671446021405305,-1.4466248836668218,0.10785539785946952
1588960347.9149835,0.3049141339628209,-3.2101717320743584,-9.191373856594865,-0.4844444444444445,0.2977777777777777,0.67,-2.515026556506344,-2.346433313661847,-1.2267999409855415
1588960347.9249835,0.3,-3.196883449629307,-9.242260139555167,-0.4844444444444445,0.2977777777777777,0.67,-3.8951223833406017,-2.5577913759267337,-2.1209353194505014
1588960347.9349835,0.29030121796830666,-3.17,-9.156656698825687,-0.4844444444444445,0.2977777777777777,0.67,-4.530308693849042,-2.594691306150958,-2.9583956323394593
1588960347.9449835,0.28,-3.1674058257918554,-9.102594174208145,-0.4844444444444445,0.2977777777777777,0.67,-4.4003641119909505,-2.62735435520362,-3.3935679440045248
1588960347.9549835,0.28,-3.161474971719457,-9.108525028280543,-0.4844444444444445,0.2977777777777777,0.67,-4.0296857324660635,-2.7756257070135746,-3.5789071337669682
1588960347.9649835,0.26886507145230976,-3.1277301429046194,-9.155460285809239,-0.4844444444444445,0.3111111111111111,0.6788888888888889,-3.23179420073114,-2.8169138418079096,-3.518600448654038
1588960347.9749835,0.2698815610640088,-3.1297631221280175,-9.172701659008046,-0.4844444444444445,0.3111111111111111,0.6788888888888889,-0.9044695057493582,-1.1132963346493217,-1.9669695057493581
1588960347.9849834,0.29956517142957817,-3.164260897142253,-9.257043588569012,-0.4844444444444445,0.3111111111111111,0.6788888888888889,0.6820646428697276,0.6646728214524824,-0.3086965714084358
1588960347.9949834,0.33651414778533423,-3.1420915113287995,-9.168366045315198,-0.4844444444444445,0.3111111111111111,0.6788888888888889,1.1439268473166777,1.542211009901688,0.4302829557066845
1588960348.0049834,0.2923362126485492,-3.1348908084323663,-9.214454042161831,-0.4827413805885665,0.31281417496698904,0.6825788605766244,1.6651218148702505,0.36817552702288425,-1.5241555912213947
1588960348.0149834,0.2697637142960055,-3.1207088571119836,-9.141181428519973,-0.4777777777777778,0.31777777777777777,0.6933333333333334,2.923733926448871,-0.5595464287000684,-2.686023214350034
1588960348.0249834,0.2626606886657102,-3.1579820659971305,-9.197982065997131,-0.4777777777777778,0.31777777777777777,0.6933333333333334,5.502896341463415,-0.12154322094691533,-2.275784612625538
1588960348.0349834,0.26961499225450564,-3.1811550232364834,-9.217689953527035,-0.4777777777777778,0.31777777777777777,0.6933333333333334,7.115438565005478,0.8101574602334983,-1.2499362413571617
1588960348.0449834,0.2799206956241697,-3.2232804637494463,-9.130118956563745,-0.4777777777777778,0.31777777777777777,0.6933333333333334,8.707259419910631,2.789766665995733,0.7275144921702026
1588960348.0549834,0.3327055067837191,-3.25,-9.07,-0.4777777777777778,0.3138955395938636,0.6905098873813957,8.952214684756584,4.067637669592977,1.542647645650439
1588960348.0649834,0.36,-3.276534320874367,-9.096534320874367,-0.4777777777777778,0.3055555555555556,0.6844444444444444,7.317462967211235,4.489395062841037,1.1446296311468696
1588960348.0749834,0.36293544060608257,-3.3185322796969587,-9.145870881212165,-0.4777777777777778,0.3055555555555556,0.6844444444444444,5.35726293181571,3.8790349621198392,0.4065547178018632
1588960348.0849833,0.3627704031004849,-3.327229596899515,-9.159324483720582,-0.4777777777777778,0.3055555555555556,0.6844444444444444,2.9206120930145474,2.338686085263335,-0.6722959689951508
1588960348.0949833,0.32621446111869035,-3.3694638472032743,-9.137034924965894,-0.4777777777777778,0.3055555555555556,0.6844444444444444,1.7955422919508868,1.1417547748976808,-0.9645105729877217
1588960348.1049833,0.32046238076906625,-3.4178467855768,-9.173381667308268,-0.47952150790595555,0.30700866399570365,0.6844444444444444,1.236542409854998,-0.3865595192266564,-0.7634575901450019
1588960348.1149833,0.3433324341336211,-3.4533351317327576,-9.105560351287355,-0.4844444444444445,0.3111111111111111,0.6844444444444444,1.6250337199892095,-1.2222353355513593,-0.6527815244432456
1588960348.1249833,0.3040861605810367,-3.5,-9.214086160581036,-0.4844444444444445,0.3111111111111111,0.6844444444444444,3.196230474579644,-1.388442381355089,-0.7748653740921302
1588960348.1349833,0.2859266438298939,-3.482220068510318,-9.192963321914947,-0.4844444444444445,0.3111111111111111,0.6844444444444444,4.84266438298939,-0.6990224747263765,-0.7569377140947448
1588960348.1449833,0.2999438549586432,-3.4401684351240704,-9.199971927479321,-0.4844444444444445,0.3111111111111111,0.6844444444444444,6.244385495864316,0.30846457515247727,-0.6255263597627203
1588960348.1549833,0.29434054834054835,-3.394724386724387,-9.09604329004329,-0.4844444444444445,0.3148840788840789,0.6828723745390411,7.143885281385281,2.5671446608946606,-0.8113005050505051
1588960348.1649833,0.30046888405594685,-3.2561196352680617,-9.057760729463876,-0.4844444444444445,0.3244444444444444,0.6788888888888889,6.235347373251661,3.815430525349668,-1.1676435084498893
1588960348.1749833,0.3516780104712042,-3.1983219895287958,-9.141241492146596,-0.4844444444444445,0.3244444444444444,0.6788888888888889,4.178889888743456,3.9712655431937174,-1.3229875654450263
1588960348.1849833,0.3888901050788091,-3.1433296847635726,-9.115554947460595,-0.4844444444444445,0.3244444444444444,0.6788888888888889,1.0206737084063047,2.9721158056042034,-2.0278499890542907
1588960348.1949832,0.3965089867043132,-3.1204730398870604,-9.09952696011294,-0.4844444444444445,0.3244444444444444,0.6788888888888889,-0.982970827451063,1.3236161739606818,-2.971144830274553
1588960348.2049832,0.3865925697548944,-3.1331851395097887,-9.083407430245106,-0.48217282428104075,0.3221728242810407,0.6807819056917254,-2.14907507322337,-0.42731809773392937,-3.75555726838292
1588960348.2149832,0.38,-3.1232868653280472,-9.106434326640235,-0.4777777777777778,0.31777777777777777,0.6844444444444444,-2.149899283795882,-1.5393432664023532,-4.167828366798823
1588960348.2249832,0.38,-3.1299921665174573,-9.139960832587288,-0.4777777777777778,0.31777777777777777,0.6844444444444444,-1.5631854297224708,-1.8746083258728738,-4.000195837063563
1588960348.2349832,0.3271289890859739,-3.1514840436561045,-9.236934836289608,-0.4777777777777778,0.31777777777777777,0.6844444444444444,0.0822640006785923,-0.9628989085973874,-3.4003989085973876
1588960348.2449832,0.3210185528298624,-3.18,-9.133055658489589,-0.4777777777777778,0.31777777777777777,0.6844444444444444,1.1388914622396797,-0.13541280664048025,-2.61747449294696
1588960348.2549832,0.333664728004198,-3.1983236400209902,-9.147784239986008,-0.4785921617787107,0.3195422764464657,0.6826799457757565,1.8277697000174917,0.974253050113696,-1.9160166499037956
1588960348.2649832,0.36370630526402775,-3.328517477894389,-9.060741261052806,-0.4844444444444445,0.3322222222222222,0.67,1.8680067762994794,1.7384616973803817,-1.2569054210395836
1588960348.2749832,0.4184237079838727,-3.318423707983873,-9.145813371854855,-0.4844444444444445,0.3322222222222222,0.67,0.47351825100795586,2.13808321295358,-0.2729350380543757
1588960348.2849832,0.4265113000878125,-3.3265113000878124,-9.215113000878125,-0.4844444444444445,0.3322222222222222,0.67,-0.48984811896288766,1.3546081365253964,0.0813912510976568
1588960348.2949831,0.4087486718430731,-3.32,-9.155625664078464,-0.4844444444444445,0.3322222222222222,0.67,-1.3418446056395585,-0.15046740907233347,-0.29886340416836943
1588960348.3049831,0.3778748587215873,-3.313624576164762,-9.13812288082381,-0.4860973321054321,0.3322222222222222,0.6744864093655378,-2.720335457742057,-2.277374654652769,-1.394553324751978
1588960348.3149831,0.35210760904170646,-3.293578478191659,-9.087991085641516,-0.4922222222222222,0.3322222222222222,0.6911111111111111,-4.782792104425342,-4.536771728748806,-3.184137217446673
1588960348.3249831,0.31697139303482585,-3.2969713930348257,-9.200914179104478,-0.4922222222222222,0.3322222222222222,0.6911111111111111,-6.622862251243781,-5.481071206467662,-4.1875
1588960348.334983,0.3171845216768183,-3.2828154783231818,-9.18,-0.4922222222222222,0.3322222222222222,0.6911111111111111,-7.894419562880688,-4.719047832318165,-3.648660874238624
1588960348.344983,0.3356460438103419,-3.267176978094829,-9.15176978094829,-0.4922222222222222,0.3322222222222222,0.6911111111111111,-8.569082755980503,-2.943471166595081,-2.264046714224355
1588960348.354983,0.35329898521673764,-3.2589003382610873,-9.086597970433475,-0.49136692975862356,0.33063382193268187,0.6897670800968847,-9.158720402154849,-1.5912795978451515,-1.098152483713355
1588960348.364983,0.37791088114912347,-3.2437326434473706,-9.148356475403506,-0.4844444444444445,0.31777777777777777,0.6788888888888889,-10.172525870723607,-0.8125,-0.3097150359101089
1588960348.374983,0.3714326975055989,-3.224298092516797,-9.174269209977604,-0.4844444444444445,0.31777777777777777,0.6788888888888889,-10.901321530620125,-0.8125,-0.10727179704996526
1588960348.384983,0.378892753154319,-3.168892753154319,-9.296678259462958,-0.4844444444444445,0.31777777777777777,0.6788888888888889,-12.58974644128114,-2.075688490779683,0.13192029278550632
1588960348.394983,0.370411881268198,-3.1604118812681983,-9.271235643804594,-0.4844444444444445,0.31777777777777777,0.6788888888888889,-13.755866325622776,-3.6128465201391133,0.18492574207376256
1588960348.404983,0.3786315974975769,-3.0831579874878843,-9.239657899374395,-0.484026321457593,0.3175497106940406,0.6793070118757404,-14.413980581989602,-6.305097090051987,-0.41348632038065025
1588960348.414983,0.3416741563133316,-2.898370781566658,-9.230418539078332,-0.47273376998462907,0.311390137163333,0.6905995633487042,-13.778774561635386,-9.481127191823068,-1.4529143536875495
1588960348.424983,0.3026659449706811,-2.772665944970681,-9.060642129003158,-0.4722222222222222,0.3111111111111111,0.6911111111111111,-13.49571605773568,-12.016662156066756,-2.5
1588960348.434983,0.3082978163641147,-2.7757445409102868,-9.304893449092345,-0.4722222222222222,0.3111111111111111,0.6911111111111111,-14.746012562483557,-12.017285747171798,-2.4893613522757168
1588960348.444983,0.2673978215452019,-2.677397821545202,-9.182193464635606,-0.4722222222222222,0.3111111111111111,0.6911111111111111,-15.948654692602585,-10.463300693697896,-2.119891077260096
1588960348.454983,0.25806370553884267,-2.650637055388427,-9.179362944611574,-0.4732979413673096,0.31240197408521597,0.692401974085216,-15.467676075030967,-8.574444788533002,-1.4474539904441692
1588960348.464983,0.25,-2.57,-9.26,-0.4777777777777778,0.31777777777777777,0.6977777777777778,-14.8125,-7.0625,-0.1875
1588960348.474983,0.20394752186588921,-2.533158017492711,-9.085000583090379,-0.4777777777777778,0.31777777777777777,0.6977777777777778,-14.639803206997085,-5.680925655976676,1.0213775510204082
1588960348.484983,0.21523113492775078,-2.5556934047832525,-9.246617944494256,-0.4777777777777778,0.31777777777777777,0.6977777777777778,-16.145224306178193,-6.474071602827415,3.1692513396859816
1588960348.494983,0.22865946567550363,-2.5919567940530217,-9.33123251945705,-0.4777777777777778,0.31777777777777777,0.6977777777777778,-17.65533682773066,-8.164390260180298,4.234593506786866
1588960348.504983,0.220046409429739,-2.540278456578434,-9.210649732016346,-0.4777777777777778,0.31777777777777777,0.6977777777777778,-19.05495846766741,-10.425317524693513,5.741878349795675
1588960348.514983,0.19655770568260852,-2.3217604222067667,-9.257688090659903,-0.46,0.2911111111111111,0.6977777777777778,-21.293496604344803,-13.261618868387677,7.650280755226445
1588960348.524983,0.27377551855336907,-0.8117231927341162,-9.583718856114224,-0.46,0.2911111111111111,0.6977777777777778,-23.277565407274068,-14.870323303195189,9.419855633514707
1588960348.534983,0.3061821333208413,-0.9771021689230337,-8.759990631002013,-0.46,0.2911111111111111,0.6977777777777778,-43.26566672131916,-16.491403944348153,12.355910666604206
1588960348.544983,0.4501907036773063,-0.3900953518386531,-10.445301947489067,-0.46,0.2911111111111111,0.6977777777777778,-64.94660056247953,-18.560910802689115,12.767561834222642
1588960348.554983,0.2567161870650006,-0.2812818999552281,-10.115921893442957,-0.45872529067795464,0.290708571325202,0.6982474075280051,-87.47509564898856,-20.470071533232936,10.771452338312507
1588960348.564983,0.06892954536204157,-0.01667345028287681,-9.492811673246774,-0.44070536041352926,0.285018067031173,0.7048863292043723,-110.09485021775409,-26.23170713093736,8.42411931702552
1588960348.574983,1.0137531140373177,-4.1195363261985865,-8.777985154303726,-0.4388888888888889,0.28444444444444444,0.7055555555555556,-113.70606347551985,-4.028448955208706,10.910261706238243
1588960348.5849829,-0.9338771671157657,-0.231383903604657,-13.497789923229448,-0.4388888888888889,0.28444444444444444,0.7055555555555556,-41.33631603030149,63.05461957903299,16.285792363617876
1588960348.5949829,-0.45670737322576127,-0.06870352945886976,-12.683400932914257,-0.4388888888888889,0.28444444444444444,0.7055555555555556,17.152126584052372,54.599256020900484,18.628317000660648
1588960348.6049829,-0.416806018474431,-1.682424213566962,-7.33302225184903,-0.4395576082701118,0.27920614262486465,0.707896073389836,-7.1878848839793035,13.86240992921309,24.61284639558137
1588960348.6149828,0.4042291708507779,-0.09664910627384944,-10.225451961253842,-0.4455555555555555,0.23222222222222225,0.7288888888888889,-6.736699354230716,-48.593763035115636,25.559341639759612
1588960348.6249828,1.1882831497474085,-0.39471921395356024,-9.933861638523691,-0.4455555555555555,0.23222222222222225,0.7288888888888889,-1.8768606420615184,-71.43500498231086,25.3568483600859
1588960348.6349828,-0.0033918395258718953,-0.5683496694780031,-8.124558924093913,-0.4455555555555555,0.23222222222222225,0.7288888888888889,2.5878162753590153,-35.68851151128334,27.999244928196944
1588960348.6449828,-0.4040255653119901,-1.7737699121920896,-9.86467518843733,-0.4455555555555555,0.23222222222222225,0.7288888888888889,-4.5584398554666254,20.029996988888026,32.76215857875515
1588960348.6549828,-0.47735818633926486,-1.113776322946616,-9.889119395446421,-0.4455555555555555,0.23222222222222225,0.7288888888888889,-4.863992443080271,26.395675897505633,35.76675902362266
1588960348.6649828,0.08135510086316752,-1.3793871270226732,-9.724564208602823,-0.43333333333333335,0.2466666666666667,0.7288888888888889,-0.278025895025366,-0.2748115577889445,37.71512166093626
1588960348.6749828,0.47971177995625053,-1.393879526857328,-9.271126954549137,-0.43333333333333335,0.2466666666666667,0.7288888888888889,-2.777687758243539,-22.581666987361256,38.85763438791218
1588960348.6849828,0.23334805152718135,-1.1730017013691971,-9.644920197682897,-0.43333333333333335,0.2466666666666667,0.7288888888888889,-0.6538625131653566,-24.22763155229685,38.75144312565827
1588960348.6949828,-0.6055435847208619,-1.1848427699168524,-9.445229124554567,-0.43333333333333335,0.2466666666666667,0.7288888888888889,-1.9726527497030446,0.9482255610894618,42.231974284702105
1588960348.7049828,-0.18743099404654517,-1.0917126706356366,-8.854814480726441,-0.43333333333333335,0.24752828058077925,0.7310429236741703,-1.528573952131818,-1.99839512297793,47.4895044049552
1588960348.7149827,0.1043374460355281,-1.3340562410059214,-9.14202812050296,-0.43333333333333335,0.2577777777777778,0.7566666666666667,-1.3409050697114817,-12.197583689164642,53.943607126848946
1588960348.7249827,-0.10947953235208863,-1.3126471061869949,-9.201877999291442,-0.43333333333333335,0.2577777777777778,0.7566666666666667,-2.0681563818480466,-7.649604254565364,55.4261872363039
1588960348.7349827,0.08639585815968312,-1.4004533157267545,-9.519331218396728,-0.43333333333333335,0.2577777777777778,0.7566666666666667,-2.574730667654353,-7.987320445102902,54.41303866469129
1588960348.7449827,0.07352871575498315,-1.4512739297958193,-9.590146536816237,-0.43333333333333335,0.2577777777777778,0.7566666666666667,-2.485907587755226,-9.954059342859743,52.47428210612542
1588960348.7549827,0.1498789478474561,-1.5148991232062134,-9.647409210885591,-0.43333333333333335,0.2577777777777778,0.7566666666666667,-2.406376095992233,-8.283898015836899,50.5655263038136
1588960348.7649827,0.10917089678510998,-1.4258544839255498,-9.327098138747886,-0.4266666666666667,0.2788888888888889,0.7644444444444445,-1.4792724196277496,-7.3597715736040605,43.66285956006768
1588960348.7749827,0.08666582819771097,-1.319997484593133,-9.256665828197711,-0.4266666666666667,0.2788888888888889,0.7644444444444445,-0.9583228524713873,-5.281179254181864,36.312248459313295
1588960348.7849827,0.06844930135951663,-1.2793041918429002,-9.243101397280967,-0.4266666666666667,0.2788888888888889,0.7644444444444445,-0.75,-3.7877732014728096,31.041127737915406
1588960348.7949827,0.038508597743884404,-1.4496271494359712,-9.301491402256117,-0.4266666666666667,0.2788888888888889,0.7644444444444445,-0.7523303160251806,-2.1478846275719294,25.859762505809286
1588960348.8049827,0.0030673032236258405,-1.4407668258059063,-9.336932696776374,-0.4266666666666667,0.2788888888888889,0.7644444444444445,-0.8077073387130846,-1.2064752418775613,21.04196153196164
1588960348.8149827,0.024648095728255274,-1.4564320638188368,-9.364648095728255,-0.388325184422714,0.283453351060788,0.7680960141819637,-0.7611498005661348,-0.7141984045290788,16.311583247555326
1588960348.8249826,0.14387368319784502,-1.3282081870219828,-9.437022223291164,-0.38,0.28444444444444444,0.7688888888888888,-0.5569005844436962,0.37969298667564577,10.07156428880658
1588960348.8349826,-0.04941246973655824,-1.316862909605197,-9.609019584342114,-0.38,0.28444444444444444,0.7688888888888888,-0.4693620106910852,1.0931379893089148,3.224250605268835
1588960348.8449826,-0.3190562819783968,-1.384718590108016,-9.582069357589539,-0.38,0.28444444444444444,0.7688888888888888,-0.1639070494599204,1.257035247299602,-2.3349559408754974
1588960348.8549826,-0.3089815712900097,-1.4291270611057225,-9.407381183317169,-0.38,0.2842504580234939,0.7692283651255523,0.06522793404461688,0.11226964112512124,-3.738178952473327
1588960348.8649826,-0.22624427563170088,-1.3677073792719503,-9.223122137815851,-0.38,0.27111111111111114,0.7922222222222223,0.29298663865093477,-0.542231246520482,-2.865855602248442
1588960348.8749826,-0.13585474920532298,-1.3526424582008874,-9.177927374602662,-0.38,0.27111111111111114,0.7922222222222223,0.5754539087333657,0.8230272255446007,-2.395076818777724
1588960348.8849826,-0.08731125477297645,-1.3369245019091907,-9.222301992363237,-0.38,0.27111111111111114,0.7922222222222223,0.3798344107973234,2.410910740614722,-2.5985265207364563
1588960348.8949826,0.04977499610045233,-1.2839326938075184,-9.42505576353143,-0.38,0.27111111111111114,0.7922222222222223,-0.21067306192481672,4.910108114958665,-3.959266787552644
1588960348.9049826,0.1120030608423829,-1.2214965565523193,-9.420498852184107,-0.38,0.27111111111111114,0.7922222222222223,-0.29062739128311166,5.834420434379121,-6.012614781589359
1588960348.9149826,0.1848552208248026,-1.1002895583503949,-9.454855220824802,-0.38415326118748166,0.29270806928601606,0.7922222222222223,0.5752595788242176,8.025519157648436,-14.95888783269962
1588960348.9249825,0.17117317976141505,-1.0483798848210613,-9.390726244343892,-0.3855555555555555,0.3,0.7922222222222223,0.875,8.625,-17.625
1588960348.9349825,0.1280279341254951,-1.0529580988117573,-9.417041901188243,-0.3855555555555555,0.3,0.7922222222222223,1.6203779706066292,8.720727147175317,-28.281481264331873
1588960348.9449825,0.06973733583489682,-1.1403939962476548,-9.329606003752346,-0.3855555555555555,0.3,0.7922222222222223,1.4837593808630394,7.855476078799249,-31.0593925891182
1588960348.9549825,0.08169947150407085,-1.17,-9.3,-0.3855555555555555,0.3,0.7922222222222223,1.4870304242251107,6.225178545922011,-33.98121696900443
1588960348.9649825,0.0695480561956441,-1.1601506479347852,-9.220602591739143,-0.4,0.2855555555555556,0.8211111111111111,1.3731169008151838,4.363701404891103,-36.51600634307094
1588960348.9749825,0.044081556652080814,-1.1720407783260403,-9.268979424634578,-0.4,0.2855555555555556,0.8211111111111111,1.2525509729075506,3.6224490270924496,-37.61351945815101
1588960348.9849825,0.12218043012754864,-1.2110902150637743,-9.440796946280607,-0.4,0.2855555555555556,0.8211111111111111,1.3013627688297178,3.573637231170282,-38.58975537659436
1588960348.9949825,0.14945832237707074,-1.3051249013936366,-9.48,-0.4,0.2855555555555556,0.8211111111111111,1.4898435445700762,4.744790297133842,-40.46770641598738
1588960349.0049825,0.14171526586620928,-1.2768610634648372,-9.48,-0.4,0.2855555555555556,0.8211111111111111,1.7071183533447685,6.158769296740995,-41.90876929674099
1588960349.0149825,0.18307144633049297,-1.483857107339014,-9.33461903577967,-0.4,0.28,0.8277777777777777,2.216368973622946,8.149106920868839,-44.339210440069614
1588960349.0249825,0.11369901105012453,-1.5872831685083542,-9.372037623618734,-0.4,0.28,0.8277777777777777,2.4247648523829097,8.731844065091762,-47.047871279348115
1588960349.0349824,-0.10875558976614617,-1.5543554358184883,-9.398755589766147,-0.4,0.28,0.8277777777777777,2.230556090096034,7.465559938787479,-48.488613142364926
1588960349.0449824,-0.09338171688292647,-1.6081639909097574,-9.383381716882926,-0.4,0.28,0.8277777777777777,1.990339326295726,5.495782475624955,-47.57578943992376
1588960349.0549824,-0.010110580109533598,-1.7569532912407997,-9.408531935675168,-0.4,0.28,0.8277777777777777,1.6521806432483344,4.277871768932919,-46.2693874925873
1588960349.0649824,0.06285693084001188,-1.9242846542000593,-9.500713119620064,-0.4042856436133373,0.28,0.8463489001022394,1.5178558177500743,4.169634906500445,-45.196432546749776
1588960349.0749824,0.12696824420355954,-1.9330317557964405,-9.484148193716722,-0.4066666666666667,0.28,0.8566666666666667,1.9690807895462548,6.433168579368278,-45.43184542118326
1588960349.0849824,0.10027619269850024,-1.9597238073014998,-9.608711100740331,-0.4066666666666667,0.28,0.8566666666666667,2.2471229927239555,8.045813357798943,-45.93232138690312
1588960349.0949824,-0.027455937442426998,-1.790058750076764,-9.440058750076764,-0.4066666666666667,0.28,0.8566666666666667,2.25,7.796966796994944,-45.14090039098483
1588960349.1049824,-0.011610748679714199,-1.7292885989437714,-9.38696644920783,-0.4066666666666667,0.28,0.8566666666666667,2.1060403075489282,6.502349332090711,-43.27248369058714
1588960349.1149824,0.048399397275438974,-1.6425609643592975,-9.29288108490421,-0.35504064290619836,0.25418698811976587,0.8910840158403122,2.002000753405701,4.491520341953935,-40.33003013622805
1588960349.1249824,0.04013434959839842,-2.0543573168672666,-9.457716056827227,-0.3533333333333333,0.2533333333333333,0.8922222222222222,1.6916984249499505,4.005877794929931,-37.90690802961962
1588960349.1349823,0.09288044635631842,-1.9101720686570978,-9.521693854082372,-0.3533333333333333,0.2533333333333333,0.8922222222222222,1.6324162017121684,3.9449162017121684,-35.83689946335023
1588960349.1449823,0.03829858148993155,-1.9446789009026881,-9.531063386568793,-0.3533333333333333,0.2533333333333333,0.8922222222222222,1.434841533578018,4.2446830671560365,-33.04657524055153
1588960349.1549823,-0.02827100486062891,-2.1277452633667298,-9.572669378037894,-0.3533333333333333,0.2533333333333333,0.8922222222222222,1.3308265549052674,4.036653109810534,-29.978133369705386
1588960349.1649823,0.03995834659107344,-2.1200208267044633,-9.470057273437275,-0.3066909644885405,0.20002776893928437,0.9344224607008442,1.4999023748228284,3.3753254172572387,-25.314647753897777
1588960349.1749823,0.05052706990072664,-2.259683758059564,-9.490737897861017,-0.30666666666666664,0.2,0.9344444444444444,1.6256588373759082,2.806570463616825,-21.653240456452767
1588960349.1849823,0.09345307542728483,-2.233928154743629,-9.5508343055982,-0.30666666666666664,0.2,0.9344444444444444,1.679316344284106,2.3236529014430456,-18.863050097226488
1588960349.1949823,0.11925568797399783,-2.23,-9.511860780065005,-0.30666666666666664,0.2,0.9344444444444444,1.446803900325027,2.1296519501625135,-15.729668878656554
1588960349.2049823,0.1311919113894368,-2.218808088610563,-9.459636398747534,-0.30666666666666664,0.2,0.9344444444444444,1.36755055381602,1.84520221526408,-14.191036353228409
1588960349.2149823,0.14754937434041912,-2.21,-9.416225312829791,-0.284857363016567,0.16980250263832353,0.9365414928723386,1.218132820744761,1.5542246155585708,-12.23678718151666
1588960349.2249823,0.16878303222909255,-2.192433935541815,-9.436349096687277,-0.2488888888888889,0.12,0.94,1.1173939514318283,1.1081362914090298,-9.283075408476977
1588960349.2349823,0.16252994244828123,-2.24976046041375,-9.589401151034377,-0.2488888888888889,0.12,0.94,1.3117514387929694,0.362182104526365,-7.755239928449214
1588960349.2449822,0.17441684315435405,-2.241166313691292,-9.589541048959761,-0.2488888888888889,0.12,0.94,1.375,-0.3705789834309206,-6.096078858851376
1588960349.2549822,0.19413157410812798,-2.251197361162192,-9.541736851783744,-0.2488888888888889,0.12,0.94,1.5516446763515999,-0.6066611690879,-4.8300989564178005
1588960349.2649822,0.1824851431658563,-2.3709274266162437,-9.48329371510895,-0.2878107929647638,0.07653720711527304,0.9069163815355062,1.6614892850711327,-0.5520214298577346,-3.806703583648478
1588960349.2749822,0.17817823160826177,-2.3845741471339057,-9.433643536783476,-0.31555555555555553,0.045555555555555564,0.8833333333333333,1.6875,-0.34665815734509164,-2.290221048967278
1588960349.2849822,0.16654001879835154,-2.4372999060082425,-9.517489877810716,-0.31555555555555553,0.045555555555555564,0.8833333333333333,1.5192502349793942,-0.4386873237654544,-1.095063851131516
1588960349.2949822,0.17517302798982187,-2.47,-9.544826972010178,-0.31555555555555553,0.045555555555555564,0.8833333333333333,1.4375,-0.7844942748091603,0.27589853689567423
1588960349.3049822,0.19388950655966364,-2.4491657401605047,-9.546944753279831,-0.31555555555555553,0.045555555555555564,0.8833333333333333,1.3506905840021024,-1.0052141239968466,1.2569753279831812
1588960349.3149822,0.14,-3.01,-9.64,-0.4888888888888889,0.02666666666666667,0.8122222222222222,1.3125,-0.875,2.375
1588960349.3249822,0.14,-3.01,-9.64,-0.4888888888888889,0.02666666666666667,0.8122222222222222,1.3125,-0.875,2.375
1588960349.3349822,0.1804084919800452,-2.622078476991566,-9.575346412831928,-0.4888888888888889,0.02666666666666667,0.8122222222222222,1.211478770049887,0.28674414442629903,4.041850294176864
1588960349.3449821,0.21941855851884506,-2.41232576592462,-9.50851752259202,-0.4888888888888889,0.02666666666666667,0.8122222222222222,1.1415335023143045,1.2060309675997356,4.897164976856954
1588960349.3549821,0.2245974377481054,-2.3321820642367377,-9.484597437748105,-0.4888888888888889,0.02666666666666667,0.8122222222222222,1.023701957776976,1.8089261548177553,5.2313300703717065
1588960349.3649821,0.2134695172742057,-2.228164690016263,-9.453878069096822,-0.5498400609963023,0.009977655256303467,0.7607039696076228,0.7334224148189282,1.7984758637102851,5.375
1588960349.374982,0.23710320052253428,-2.208068800348356,-9.503240801219247,-0.5822222222222222,0.0011111111111111113,0.7333333333333333,0.5120699978227738,0.4956999782277378,5.487930002177226
1588960349.384982,0.23222190709640825,-2.217778092903592,-9.572224743228734,-0.5822222222222222,0.0011111111111111113,0.7333333333333333,0.5486130806474485,-0.8403270161862122,5.402773838705103
1588960349.394982,0.26583617747440275,-2.148327645051195,-9.518327645051194,-0.5822222222222222,0.0011111111111111113,0.7333333333333333,0.5625,-2.9233148464163823,4.927047781569966
1588960349.404982,0.284234959998515,-2.19693983999406,-9.545587399996288,-0.5822222222222222,0.0011111111111111113,0.7333333333333333,0.47353150000928107,-3.3474212499767972,4.385673250051046
1588960349.414982,0.2745296942719925,-2.3179786029440477,-9.523902619967982,-0.5621681222044347,0.0022570596835561106,0.7041116447359858,0.4052701963999844,-2.7929039279996877,3.9618913747998907
1588960349.424982,0.23195695757129414,-2.5221721697148234,-9.497010760607177,-0.5433333333333333,0.0033333333333333327,0.6766666666666666,0.24354823861544125,-0.9167996399492655,3.3994619696411768
1588960349.434982,0.22,-2.4426857467461947,-9.5,-0.5433333333333333,0.0033333333333333327,0.6766666666666666,0.15133117805289625,-0.04948060247606634,3.141493534158689
1588960349.444982,0.21425109980753368,-2.355748900192466,-9.505748900192467,-0.5433333333333333,0.0033333333333333327,0.6766666666666666,0.16093062620291448,0.1875,3.0625
1588960349.454982,0.21,-2.4136884782959496,-9.51,-0.5433333333333333,0.0033333333333333327,0.6766666666666666,0.15021633451670163,-0.2226203203162821,3.174350996449895
1588960349.464982,0.21772407237907485,-2.403655565725551,-9.548620361895374,-0.5184446556674255,0.03337139258529106,0.6715172850806168,-0.06810180947687106,-0.8862036189537421,3.25
1588960349.474982,0.22,-2.252907214620176,-9.519678592535346,-0.5111111111111111,0.042222222222222223,0.67,-0.07459824066918216,-1.0,3.350803518661636
1588960349.484982,0.19512008137746242,-2.360986205527713,-9.601226368282637,-0.5111111111111111,0.042222222222222223,0.67,-0.010666836203046696,-0.5335015258274203,3.375
1588960349.494982,0.19,-2.273334909377463,-9.564737588652482,-0.5111111111111111,0.042222222222222223,0.67,0.0,-0.4758766745468873,3.490130023640662
1588960349.504982,0.18482055953155496,-2.194820559531555,-9.473026154847105,-0.5111111111111111,0.042222222222222223,0.67,-0.03237150292778139,-0.7589720234222511,3.8538435263500324
1588960349.514982,0.20959312610563557,-2.330567349001769,-9.471787970684863,-0.4971365793390054,0.08661191138067562,0.6436949990172128,-0.15497851908011118,-0.9537607404599444,4.309957038160222
1588960349.524982,0.22,-2.329371151053923,-9.464685575526962,-0.4922222222222222,0.10222222222222224,0.6344444444444445,-0.08202323136233916,-0.7792848470435088,4.111308078405848
1588960349.534982,0.22741932132244458,-2.357096606612223,-9.526773891902002,-0.4922222222222222,0.10222222222222224,0.6344444444444445,-0.20161227479583568,-0.6572584834694428,3.6915339338777713
1588960349.544982,0.22237795275590552,-2.3776220472440945,-9.527133858267716,-0.4922222222222222,0.10222222222222224,0.6344444444444445,-0.25,-0.7202755905511811,2.943208661417323
1588960349.554982,0.2326183500385505,-2.3547632999228987,-9.526309175019275,-0.4922222222222222,0.10222222222222224,0.6344444444444445,-0.09227062451811874,-0.5528382806476484,2.237379529683886
1588960349.564982,0.23176183592338273,-2.3564763281532346,-9.513523671846766,-0.4601849174798217,0.11869855037545676,0.6573282335461591,0.051488525478857974,0.07738525478857972,1.4226147452114204
1588960349.574982,0.2372922568460812,-2.338123229461756,-9.524584513692162,-0.4533333333333333,0.12222222222222222,0.6622222222222223,-0.02865321057601511,0.5065362370160529,0.6744275259678943
1588960349.584982,0.24,-2.279202183822204,-9.53725683088254,-0.4533333333333333,0.12222222222222222,0.6622222222222223,0.028210386031778723,0.9878415441271149,-0.2881830882542298
1588960349.594982,0.23411790138541647,-2.1776506193958305,-9.47529691523958,-0.4533333333333333,0.12222222222222222,0.6622222222222223,0.09926311634114707,1.051473767317706,-1.2242360941406472
1588960349.604982,0.23,-2.1964326454988012,-9.433639649785658,-0.4533333333333333,0.12222222222222222,0.6622222222222223,0.10225218883964252,0.8180175107171401,-2.0287171674053623
1588960349.614982,0.24043098580946287,-2.340430985809463,-9.453038732261827,-0.4568103286031543,0.1306249607909562,0.6587452269524013,0.07879841532728574,0.320717431399857,-2.885774645236572
1588960349.6249819,0.25234255630764363,-2.3964861655385348,-9.53855797015398,-0.4666666666666667,0.15444444444444444,0.6488888888888888,0.09741024423069311,0.033218046154455116,-4.121615603847524
1588960349.6349819,0.23557220597790773,-2.4857220597790772,-9.633433235867447,-0.4666666666666667,0.15444444444444444,0.6488888888888888,0.027673712638076678,0.7652417357050032,-5.133089160981156
1588960349.6449819,0.2507995268248556,-2.4598030756384386,-9.600602602463294,-0.4666666666666667,0.15444444444444444,0.6488888888888888,0.10124556398302136,1.1587485213276738,-5.9437278199151065
1588960349.6549819,0.26711485493940507,-2.353753442893867,-9.517983152772677,-0.4666666666666667,0.15444444444444444,0.6488888888888888,0.16526607831435916,1.1875,-6.775210590341535
1588960349.6649818,0.28,-2.31326723667455,-9.463605603056214,-0.4686697794756736,0.15965253774786248,0.6536963596305055,0.17007003820265598,1.3452451337092959,-7.905630343823904
1588960349.6749818,0.27455516125993157,-2.4172241937003425,-9.491779354960274,-0.4722222222222222,0.1688888888888889,0.6622222222222223,0.25,2.2035141161322738,-9.135453631881418
1588960349.6849818,0.2753871829105474,-2.4238384512683577,-9.563871829105473,-0.4722222222222222,0.1688888888888889,0.6622222222222223,0.25,3.2598881842456606,-10.067548397863819
1588960349.6949818,0.2974222488038278,-2.4564593301435407,-9.54611842105263,-0.4722222222222222,0.1688888888888889,0.6622222222222223,0.25,3.8951854066985647,-11.044445275119617
1588960349.7049818,0.31,-2.506794179770007,-9.494401940076665,-0.4722222222222222,0.1688888888888889,0.6622222222222223,0.319975749041696,3.8600485019166078,-12.067281741375265
1588960349.7149818,0.3221236380271147,-2.491711511270066,-9.502123638027115,-0.4722222222222222,0.17382814882586153,0.6595280804384189,0.34974242077684436,3.674227262330533,-13.092909163686269
1588960349.7249818,0.34973333333333334,-2.4305333333333334,-9.524866666666666,-0.4722222222222222,0.1811111111111111,0.6555555555555556,0.3125,3.745,-14.635416666666666
1588960349.7349818,0.35134226107442884,-2.3970133916116434,-9.577617564090641,-0.4722222222222222,0.1811111111111111,0.6555555555555556,0.4207217365696395,3.9916108682848197,-15.951553248705787
1588960349.7449818,0.33577260165811296,-2.394795894196605,-9.616749309119621,-0.4722222222222222,0.1811111111111111,0.6555555555555556,0.5757106198183971,4.141763718910383,-16.743895578365574
1588960349.7549818,0.32,-2.460783290244461,-9.526405569918513,-0.4722222222222222,0.1811111111111111,0.6555555555555556,0.6025348119907059,4.54982594004647,-17.389686692083647
1588960349.7649817,0.32830800577298586,-2.447954834875626,-9.511691994227014,-0.4707716180396374,0.1811111111111111,0.6563467942006018,0.5476642754053824,4.779671449189235,-17.779671449189234
1588960349.7749817,0.3801851208266722,-2.092221449920067,-9.454907439586664,-0.46,0.1811111111111111,0.6622222222222223,0.5908574870832465,5.306714974166493,-18.39872946641644
1588960349.7849817,0.37,-1.889780223177027,-9.515536768569751,-0.46,0.1811111111111111,0.6622222222222223,0.5185967976260394,5.8564032023739605,-18.88963440079132
1588960349.7949817,0.4196923128656937,-1.8201230748537225,-9.540061537426862,-0.46,0.1811111111111111,0.6622222222222223,0.49923078216423433,6.621153910821172,-18.595865349048356
1588960349.8049817,0.47,-1.7885289908081805,-9.480292293502115,-0.46,0.1811111111111111,0.6622222222222223,0.625,7.465081422346618,-18.369489679081454
1588960349.8149817,0.4835645889792231,-1.7473923517012948,-9.386435411020777,-0.46,0.18412546421760512,0.6622222222222223,0.5967404396266185,7.8690191207467635,-18.816836043360432
1588960349.8249817,0.5050590428837788,-1.6896457426973275,-9.375059042883779,-0.46,0.18777777777777774,0.6622222222222223,0.6257380360472343,7.9375,-19.47280919825979
1588960349.8349817,0.5408073938637175,-1.7154533089546913,-9.466260702818408,-0.46,0.18777777777777774,0.6622222222222223,0.6875,7.436879849714591,-20.467157119603996
1588960349.8449817,0.5543798722698243,-1.8230616604922838,-9.475038978158594,-0.46,0.18777777777777774,0.6622222222222223,0.6523742016864019,6.422484033728039,-21.64776756289916
1588960349.8549817,0.5873263088574251,-1.7586894962133683,-9.402673691142574,-0.46,0.18777777777777774,0.6622222222222223,0.6541611787948634,5.7000329272308194,-22.891545933486995
1588960349.8649817,0.6353887805206161,-1.6415551220824645,-9.349222438958767,-0.4731725746059506,0.18418525743070033,0.6622222222222223,0.7548597565077017,5.5,-24.568036591107823
1588960349.8749816,0.6730656464112124,-1.6104015303831813,-9.384087528548283,-0.4844444444444445,0.1811111111111111,0.6622222222222223,0.8469433816783463,5.5,-26.304971305315348
1588960349.8849816,0.7,-1.55146501332942,-9.461703720008805,-0.4844444444444445,0.1811111111111111,0.6622222222222223,0.875,5.6158436666911244,-28.018210250201776
1588960349.8949816,0.7139913262451035,-1.474034695019586,-9.477353572094758,-0.4844444444444445,0.1811111111111111,0.6622222222222223,0.962445789031897,5.924891578063794,-30.1452008720388
1588960349.9049816,0.7424433561867451,-1.4017044292088365,-9.41511328762651,-0.4844444444444445,0.1811111111111111,0.6622222222222223,1.1661946348895418,6.202770976167156,-32.19390439656111
1588960349.9149816,0.7539700404533984,-1.414119838186406,-9.355880161813594,-0.48243445792891065,0.17876612684298832,0.6602122357066884,1.3125,6.387874494332519,-34.15355769615893
1588960349.9249816,0.7477227506286214,-1.4823564010057941,-9.304633650377173,-0.4777777777777778,0.17333333333333334,0.6555555555555556,1.3414603148573303,6.543193123428447,-36.16967721657374
1588960349.9349816,0.7934063226567651,-1.5431873546864698,-9.365198667453239,-0.4777777777777778,0.17333333333333334,0.6555555555555556,1.5354825276746364,6.4304034944650725,-38.35208817711767
1588960349.9449816,0.7922611081873543,-1.560888279076761,-9.627671603638824,-0.4777777777777778,0.17333333333333334,0.6555555555555556,1.7932368806856627,6.3942631193143376,-40.934051011202165
1588960349.9549816,0.758922513899641,-1.7398842283060032,-9.562039200506721,-0.4777777777777778,0.17333333333333334,0.6555555555555556,1.704808572031811,6.358415001055669,-43.25840356464213
1588960349.9649816,0.905225585379783,-1.8261936036550543,-9.386193603655055,-0.48243003997715594,0.1686810711339552,0.6580931531188527,1.7141097944031982,6.023789977155911,-46.561679040548256
1588960349.9749815,0.9213578680203046,-1.850247461928934,-9.410247461928934,-0.49,0.16111111111111112,0.6622222222222223,1.9544733502538072,7.034739847715736,-49.159739847715734
1588960349.9849815,0.9351664234263923,-1.8082091238642248,-9.475166423426392,-0.49,0.16111111111111112,0.6622222222222223,2.1664028294336424,9.374208488300928,-51.577853561508405
1588960349.9949815,0.9282053469260376,-1.8199352959533965,-9.48455133673151,-0.49,0.16111111111111112,0.6622222222222223,2.306891709143868,10.578920472277124,-53.16946192655779
1588960350.0049815,0.9250193664277828,-1.8925290496416745,-9.45371610875138,-0.49,0.16111111111111112,0.6622222222222223,2.25,10.992096719869767,-54.359919680781395
1588960350.0149815,1.0055379080094649,-1.9522151632037859,-9.41,-0.497405054401262,0.15370605670984913,0.6683931008899405,2.3020667887588733,10.753510826229295,-55.35754513630028
1588960350.0249815,1.1641316432644846,-1.9864472612258588,-9.405289452245173,-0.5166666666666667,0.13444444444444445,0.6844444444444444,2.4963818469353525,10.790791081612115,-56.71381846935353
1588960350.0349815,1.1711658514895509,-1.9732512227656736,-9.457421965317918,-0.5166666666666667,0.13444444444444445,0.6844444444444444,2.617713428190307,11.905274566473988,-58.47926856380614
1588960350.0449815,1.17713009139577,-1.9660178720459218,-9.53,-0.5166666666666667,0.13444444444444445,0.6844444444444444,2.8159756854682763,13.347815356117817,-60.60302888432023
1588960350.0549815,1.2770498389557552,-1.8905634853364977,-9.508740294965248,-0.5166666666666667,0.13444444444444445,0.6844444444444444,3.134047084251568,14.630525300898457,-62.41906149347347
1588960350.0649815,1.568567553822682,-1.7625800983217494,-9.41630784878793,-0.5166666666666667,0.13444444444444445,0.6844444444444444,3.445117816579081,15.741492202068148,-64.24104721139176
1588960350.0749815,1.5549635571054927,-1.8837408892763732,-9.33938866608544,-0.5366666666666666,0.11555555555555555,0.6844444444444444,4.117358326068003,18.145015257192675,-73.86336094158675
1588960350.0849814,1.5826512411435365,-1.8479596690283904,-9.404080661943219,-0.5366666666666666,0.11555555555555555,0.6844444444444444,4.650504137145122,19.357132240003963,-83.69761990288858
1588960350.0949814,1.6757363587250134,-1.83,-9.447353245350003,-0.5366666666666666,0.11555555555555555,0.6844444444444444,5.058831133750097,20.163620050937716,-89.52400922281392
1588960350.1049814,1.727074583635047,-1.8254015206372194,-9.45823135409124,-0.5366666666666666,0.11555555555555555,0.6844444444444444,5.39489726647357,20.919216147719045,-94.45058607892831
1588960350.1149814,1.9369660678642715,-1.6717232202262142,-9.378895542248836,-0.5511192429954904,0.10047460634286981,0.6728195460929992,6.114229873586161,22.743554557551562,-104.22292914171656
1588960350.1249814,1.9836769880365939,-1.5950973492845415,-9.307353976073188,-0.5877777777777777,0.06222222222222223,0.6433333333333333,6.669745484400657,24.565292927515834,-112.1530685550082
1588960350.1349814,2.0280953485674513,-1.5690476742837258,-9.378095348567452,-0.5877777777777777,0.06222222222222223,0.6433333333333333,7.776787785639717,27.703877160422223,-126.69794687391254
1588960350.1449814,2.0795408902969443,-1.535688664554583,-9.390153036567686,-0.5877777777777777,0.06222222222222223,0.6433333333333333,8.525989367985824,30.204881061053538,-137.82638404123932
1588960350.1549814,2.11,-1.5424168009860624,-9.34942353275813,-0.5877777777777777,0.06222222222222223,0.6433333333333333,9.284506257703612,31.39800417180241,-147.71147008628046
1588960350.1649814,2.1729217525375817,-1.637528266735192,-9.274606514197611,-0.5886516910074664,0.00629177552214942,0.6262920253544049,10.181182143774894,31.553369523320058,-157.4347154856739
1588960350.1749814,2.3008900278029008,-1.699306267376813,-9.270196295179714,-0.59,-0.08,0.6,10.991328342210164,30.91214032090577,-167.63227732556192
1588960350.1849813,2.3607891517128876,-1.7343156606851549,-9.352157830342577,-0.59,-0.08,0.6,11.590783034257749,30.38848643964111,-176.50947950652528
1588960350.1949813,2.363746266274483,-1.693029847002759,-9.354820895182069,-0.59,-0.08,0.6,12.666324646008619,30.72882464600862,-188.27947790546548
1588960350.2049813,2.334258455490951,-1.6314830890180985,-9.35,-0.59,-0.08,0.6,13.177038121365982,30.973384653181558,-195.2587267627549
1588960350.2149813,2.345632256103738,-1.6397128963630838,-9.34718387194813,-0.5774838753250262,-0.15009029817985342,0.5680838820788168,13.552802400972546,30.796693597406545,-200.34735842366527
1588960350.2249813,2.3714787070897723,-1.6727819393653416,-9.334260646455114,-0.5455555555555556,-0.3288888888888889,0.4866666666666667,13.699456986551846,30.676639731036925,-203.92392466379616
1588960350.2349813,2.4164828404659837,-1.589448521397951,-9.334620116738115,-0.5455555555555556,-0.3288888888888889,0.4866666666666667,13.771982247087601,32.52282538932888,-205.407322470876
1588960350.2449813,2.4208708654930966,-1.542822836267259,-9.355540552640534,-0.5455555555555556,-0.3288888888888889,0.4866666666666667,13.897428636664817,34.62302900198779,-205.52374263533963
1588960350.2549813,2.4511872909698997,-1.471583054626533,-9.29,-0.5455555555555556,-0.3288888888888889,0.4866666666666667,14.11510590858417,36.125,-204.6856884057971
1588960350.2649813,2.5278802102891476,-1.4689598197521592,-9.283159969958692,-0.48285528017690993,-0.47214951808737016,0.33162598573037927,13.917750187758168,35.483747183627486,-202.37687171423207
1588960350.2749813,2.5947680801013333,-1.3521521201519995,-9.265794680016889,-0.3622222222222222,-0.7477777777777778,0.03333333333333333,13.94743350021111,33.224953254116656,-200.20156900295555
1588960350.2849813,2.6274845714285715,-1.277505142857143,-9.286244,-0.3622222222222222,-0.7477777777777778,0.03333333333333333,13.804703571428572,31.039239285714284,-198.13305357142858
1588960350.2949812,2.828852455559539,-1.2611553465617948,-9.32576893068764,-0.3622222222222222,-0.7477777777777778,0.03333333333333333,13.502390717584294,29.141783786348398,-194.8676815574721
1588960350.3049812,2.985150628335342,-1.2774462041659493,-9.29991392666552,-0.3622222222222222,-0.7477777777777778,0.03333333333333333,13.234307755207437,28.579268161473575,-192.2161946978826
1588960350.3149812,3.08623549664314,-1.2413444654845929,-9.242151144775349,-0.3622222222222222,-0.7477777777777778,0.03333333333333333,13.18918058185574,29.346430108452402,-190.50136211051816
1588960350.3249812,3.074380188625967,-1.156144462641893,-9.195163494663127,-0.42777777777777776,-0.36,-1.4788888888888894,12.905228158355452,31.61682526684362,-186.52452419946914
1588960350.3349812,2.9071143854207055,-1.0415920899573479,-9.186467623109731,-0.42777777777777776,-0.36,-1.4788888888888894,12.979788677782086,32.2335207444746,-184.02363319115938
1588960350.3449812,2.9739164687908404,-0.8806361477718262,-9.247196789809855,-0.42777777777777776,-0.36,-1.4788888888888894,12.66699799363116,29.79796187899203,-179.2328515287058
1588960350.3549812,2.9014998206946014,-0.7895012551377893,-9.174000717221594,-0.42777777777777776,-0.36,-1.4788888888888894,12.531261206587404,28.737531378444732,-175.00013447904885
1588960350.3649812,2.923748558721792,-0.6750057651128315,-9.133125720639104,-0.6648131142590457,-0.20927505993887152,-1.1298282591189446,11.856785846647998,26.934928862625597,-166.24764505435678
1588960350.3749812,3.0109409882558267,-0.45397193033487254,-9.108362360469766,-1.4622222222222223,0.2977777777777777,0.04444444444444445,11.262412282296477,25.588413082209215,-156.63283096389486
1588960350.3849812,3.1312485359568987,-0.20787397516982903,-9.12662543921293,-1.4622222222222223,0.2977777777777777,0.04444444444444445,10.493356172405715,23.930856172405715,-144.43665378308737
1588960350.3949811,3.0414901506920495,-0.11280787944636024,-9.1170196986159,-1.4622222222222223,0.2977777777777777,0.04444444444444445,10.008235804714442,23.015932790873446,-135.28255792668526
1588960350.4049811,3.123920400621933,-0.07202653312602225,-9.063594693374796,-1.4622222222222223,0.2977777777777777,0.04444444444444445,9.328030662520446,21.248793489893586,-125.41880161743029
1588960350.4149811,3.2353198249505426,0.07643066962412326,-9.014848630178047,-1.334897454855491,0.15070745825256937,0.18470595288052277,8.457702625741861,19.649200437623644,-113.944244199988
1588960350.424981,3.1842590059279527,0.30841121271029837,-8.944152206782347,-1.0466666666666666,-0.18222222222222226,0.5022222222222222,7.65545725634195,18.490737574099406,-100.25175198598411
1588960350.434981,3.08,0.27,-9.01,-1.0466666666666666,-0.18222222222222226,0.5022222222222222,7.3125,17.1875,-94.25
1588960350.444981,3.2436295805007465,0.40633311225335766,-9.09455562924888,-1.0466666666666666,-0.18222222222222226,0.5022222222222222,6.062966340573703,12.966672193666058,-80.6122999917095
1588960350.454981,3.2583688997338065,0.48,-9.067281499556344,-1.0466666666666666,-0.18222222222222226,0.5022222222222222,4.917111246672582,11.009463731144631,-69.4861523957409
1588960350.464981,3.2304565217391303,0.48,-9.020760869565217,-1.0466666666666666,-0.18222222222222226,0.5022222222222222,4.56820652173913,9.032336956521739,-58.55380434782609
1588960350.474981,3.087615791990648,0.5474305248056112,-8.87752315839813,-0.7833333333333333,-0.3388888888888889,0.5955555555555555,3.111256619848031,5.1617501195557836,-42.90626383747498
1588960350.484981,3.0504711383481817,0.5697173169910908,-8.870094227669636,-0.7833333333333333,-0.3388888888888889,0.5955555555555555,2.507655998157955,3.3973790715386385,-32.8772073540091
1588960350.494981,3.2390686847363064,0.6192884608135107,-9.000711539186488,-0.7833333333333333,-0.3388888888888889,0.5955555555555555,1.1447287197949259,0.37750687978286274,-15.142307837297848
1588960350.504981,3.0054153710442164,0.6684527511302238,-8.95,-0.7833333333333333,-0.3388888888888889,0.5955555555555555,0.31697816738339396,-0.6164006505678685,-4.066815525416253
1588960350.514981,3.070434572903101,0.6497188057685815,-8.950051126223894,-0.7827879869451277,-0.3388974099262046,0.5956776904237474,-0.3775563111947137,-2.7597459364298462,7.093015964886895
1588960350.524981,3.2383796553640916,0.539279846828485,-8.97,-0.57,-0.3422222222222222,0.6433333333333333,-1.3896281112963993,-6.568126196652461,19.221672148106972
1588960350.534981,3.1476646100009207,0.5023353899990791,-8.981676949995396,-0.57,-0.3422222222222222,0.6433333333333333,-2.377250437425177,-6.670653375080578,34.15875656137766
1588960350.544981,3.1420065873402456,0.4959538886182822,-9.009967063298772,-0.57,-0.3422222222222222,0.6433333333333333,-3.150494050518405,-6.677223227332823,45.644540219887276
1588960350.554981,3.1859175451414257,0.4259453084229204,-8.963753470410188,-0.57,-0.3422222222222222,0.6433333333333333,-3.8768826322930803,-10.067974376369898,55.59296915770796
1588960350.564981,3.3759111709286675,0.3494158815612382,-8.93,-0.5674039180499476,-0.3418328099297144,0.6433333333333333,-4.588055181695828,-13.8125,63.640191790040376
1588960350.574981,3.31,0.34,-8.93,-0.5255555555555556,-0.33555555555555555,0.6433333333333333,-5.0,-13.8125,70.9375
1588960350.584981,3.2509466221851544,0.32263135946622185,-8.95431609674729,-0.5255555555555556,-0.33555555555555555,0.6433333333333333,-5.217108006672227,-13.703945996663887,74.38951730608841
1588960350.594981,3.185425461741425,0.280914907651715,-9.00605672823219,-0.5255555555555556,-0.33555555555555555,0.6433333333333333,-5.662854551451187,-13.840690963060686,81.4996000989446
1588960350.604981,3.3440105530584328,0.24799765487590386,-9.026001172562047,-0.5255555555555556,-0.33555555555555555,0.6433333333333333,-5.812512214188001,-15.237619699042408,83.3500806136408
1588960350.614981,3.5615692068429237,0.1978031104199067,-9.048430793157078,-0.5246140314498012,-0.33538119923967513,0.6442051149127355,-6.0566154743390355,-17.66984642301711,85.04511469673406
1588960350.624981,3.5511082291133174,0.12821540088222175,-9.017845991177783,-0.4955555555555556,-0.33,0.6711111111111111,-5.897307488972229,-16.35539163045813,86.48211497794446
1588960350.634981,3.3224378397131953,0.1212859951428241,-9.087140048571758,-0.4955555555555556,-0.33,0.6711111111111111,-5.983925060714698,-13.367085405342895,86.6553501214294
1588960350.644981,3.3116106948883184,0.050335830670089586,-9.09127486421823,-0.4955555555555556,-0.33,0.6711111111111111,-5.84270052915597,-11.9270052915597,87.29026737220796
1588960350.654981,3.3189355756972456,0.006386545816524335,-9.142549029880723,-0.4955555555555556,-0.33,0.6711111111111111,-5.980042044323361,-13.300420443233614,87.47338939243114
1588960350.664981,3.092201093415736,-0.04878773472783456,-8.991865937722844,-0.4961049045242057,-0.32318807278873835,0.6711111111111111,-6.243819824102686,-14.285684573330164,87.2032475635845
1588960350.6749809,2.9700841287817505,-0.26852289273580326,-9.104219381977027,-0.5011111111111111,-0.2611111111111111,0.6711111111111111,-6.1875,-15.75,89.625
1588960350.6849809,3.1775943681873233,-0.45639937424303595,-9.143464372224464,-0.5011111111111111,-0.2611111111111111,0.6711111111111111,-6.2141640593459835,-15.243382872426322,90.2382733649576
1588960350.6949809,3.3680904319741622,-0.4775656035526847,-9.221073879693177,-0.5011111111111111,-0.2611111111111111,0.6711111111111111,-6.3023566814695196,-13.567723052079128,92.26670367379894
1588960350.7049809,3.2725945068184594,-0.5474054931815404,-9.11481098636308,-0.5011111111111111,-0.2611111111111111,0.6711111111111111,-5.902786750711529,-10.710642166192313,88.28715667615373
1588960350.7149808,3.2433000995268113,-0.5766999004731889,-9.173399800946378,-0.5011111111111111,-0.2611111111111111,0.6711111111111111,-5.765469216531927,-10.802187188978715,86.4562562204257
1588960350.7249808,3.2106568603158157,-0.6512619106615908,-9.188383754195481,-0.503439931720967,-0.24527513096409095,0.6743714599649093,-5.645203072556484,-11.362683869078458,83.94446759624265
1588960350.7349808,3.1775884711553624,-0.7315708557655486,-9.197831865384181,-0.5060644070511617,-0.22742869871876698,0.678045725427182,-5.527101682697722,-11.982716165836957,81.3462370193499
1588960350.7449808,3.21854372044562,-0.9785679650557024,-9.327208663941652,-0.5066666666666667,-0.22333333333333333,0.6788888888888889,-5.401850655205578,-14.295205678448346,76.2845886431033
1588960350.7549808,3.1513112126312413,-0.9701639015789052,-9.486885870000801,-0.5066666666666667,-0.22333333333333333,0.6788888888888889,-5.559426845395528,-15.660865993427908,73.55326801314419
1588960350.7649808,4.165870446315083,-1.0587653788042306,-8.848916708636112,-0.5066666666666667,-0.22333333333333333,0.6788888888888889,-11.418549296112431,-6.379463750389716,52.66479303067367
1588960350.7749808,4.179267227508849,7.486485388988492,-1.3185897730581222,-0.52,-0.15777777777777774,0.6622222222222223,-7.63150772307268,198.0701004842244,-153.3261255152546
1588960350.7849808,0.8628529398243918,5.262688211587673,0.8537901285646425,-0.52,-0.15777777777777774,0.6622222222222223,12.252516894221486,186.42087394075912,-53.82566293538055
1588960350.7949808,1.1388323353293412,-0.24933711524319782,1.9501581048429457,-0.52,-0.15777777777777774,0.6622222222222223,37.32250958609097,101.15280951255384,-14.686879530412858
1588960350.8049808,-0.21497484087390334,0.39143041458799244,-1.0031530621021851,-0.52,-0.15777777777777774,0.6622222222222223,68.16438370892827,19.15479448004473,-51.51176108506795
1588960350.8149807,1.6398897544408206,3.5244879915900698,-12.48993881236691,-0.5219206267913781,-0.15733763413808693,0.6599414779074608,-5.618461750990592,-157.0345561874983,-91.87847549799186
1588960350.8249807,2.829579313006561,4.533006561173292,-6.0727016595908925,-0.5733333333333334,-0.14555555555555555,0.5988888888888889,-52.571015052103434,-290.33975781551527,-102.64304322655346
1588960350.8349807,4.357596086771586,5.779387154402382,-15.108531688643131,-0.5733333333333334,-0.14555555555555555,0.5988888888888889,13.082871118672905,-176.9128721820502,-54.35659506592939
1588960350.8449807,1.9455613781369627,2.967725393449596,-10.933856231390898,-0.5733333333333334,-0.14555555555555555,0.5988888888888889,36.67692364951085,-18.80149936197364,-20.861068694172694
1588960350.8549807,3.5012955989845125,1.540665178647493,-8.019339762484877,-0.5733333333333334,-0.14555555555555555,0.5988888888888889,-23.901557521596157,76.31822383329641,-3.5705666115758805
1588960350.8649807,4.830528019628222,1.3405656744645686,-12.085647543916444,-0.5733333333333334,-0.14555555555555555,0.5988888888888889,-13.226606293980337,125.62845879265987,12.28553249220494
1588960350.8749807,1.3130946365933007,0.5767979498736846,-7.748148343359808,-0.4955555555555556,-0.19333333333333333,0.6766666666666666,7.761349075807419,123.88507229057996,19.108504025735627
1588960350.8849807,1.0081710619581614,0.7445059159230112,-7.511832573017576,-0.4955555555555556,-0.19333333333333333,0.6766666666666666,8.952456789225932,43.60441240617219,11.342481734246924
1588960350.8949807,1.8676575030922078,0.4909260663128915,-7.483431751984998,-0.4955555555555556,-0.19333333333333333,0.6766666666666666,-10.362743386665603,-61.77300452858796,-0.0680934046203567
1588960350.9049807,4.143621274388541,0.591336232693612,-11.6504536567849,-0.4955555555555556,-0.19333333333333333,0.6766666666666666,-5.080750259346447,-97.02115668515341,0.45487621194589634
1588960350.9149806,9.064489607816029,-0.12412737914189587,-9.970080188027097,-0.4955555555555556,-0.19333333333333333,0.6766666666666666,1.3909972809806908,-64.02170894972119,-8.772362781695008
1588960350.9249806,4.326593397809928,-7.4105011589800975,-11.890548850345029,-0.527207731270556,-0.17914442697833313,0.627551221591666,22.07925525537527,29.09640682865745,-55.67736391975062
1588960350.9349806,3.504372019077901,-2.082543720190779,-9.542845786963433,-0.5277777777777778,-0.17888888888888888,0.6266666666666667,6.0006955484896665,1.713533386327504,-31.71343402225755
1588960350.9449806,2.8050238473767886,1.300349761526232,-8.827233704292528,-0.5277777777777778,-0.17888888888888888,0.6266666666666667,-1.31806438791733,-7.333267090620032,-10.011277821939586
1588960350.9549806,3.996998413202158,-0.869077118375119,-8.459839416058394,-0.5277777777777778,-0.17888888888888888,0.6266666666666667,0.0625,1.9385036496350365,-0.6890550618851159
1588960350.9649806,3.8905103141859727,-0.45199873056172646,-8.868043795620437,-0.5277777777777778,-0.17888888888888888,0.6266666666666667,0.0625,-0.6127737226277374,-0.1898920977467471
1588960350.9749806,3.62,-0.68,-9.7,-0.4955555555555556,-0.16666666666666666,0.6577777777777778,-0.125,-2.125,-0.3125
1588960350.9849806,3.705412907702984,-0.6040774153751254,-9.372583853805228,-0.4955555555555556,-0.16666666666666666,0.6577777777777778,-0.125,-0.25659264399722415,-0.015927403809083196
1588960350.9949806,3.736758990395354,-0.6338338172883627,-9.262964038418584,-0.4955555555555556,-0.16666666666666666,0.6577777777777778,0.1516794170203261,0.15242349787804343,0.07534621398257763
1588960351.0049806,3.8481284872907624,-0.571621977681339,-9.192744885306881,-0.4955555555555556,-0.16666666666666666,0.6577777777777778,-0.05782121822690639,0.2984636546807191,-0.18594040607563544
1588960351.0149806,3.8430801203717557,-0.6322789166541972,-9.03776264817863,-0.4955555555555556,-0.16666666666666666,0.6577777777777778,0.11049699070610336,0.44224774302957753,0.02874623838262924
1588960351.0249805,3.775317259884776,-0.6507596085549681,-9.30265409202115,-0.5253301502117697,-0.1728269276300213,0.6423771253693912,-0.3322720187830479,-0.7128013771604451,-0.2215146791886986
1588960351.0349805,3.744570756815149,-0.6245707568151491,-9.202853784075744,-0.5277777777777778,-0.17333333333333334,0.6411111111111111,-0.004156870220923092,-0.28272410031560447,-0.1440448200631209
1588960351.0449805,3.8809001406469763,-0.566066572902016,-9.02274964838256,-0.5277777777777778,-0.17333333333333334,0.6411111111111111,0.08145804031879982,0.4914073488045007,-0.004739510079699953
1588960351.0549805,3.7745430762291385,-0.6413629228687415,-9.286370771312585,-0.5277777777777778,-0.17333333333333334,0.6411111111111111,0.2926240414975192,-0.3380875056382499,-0.05966057735678845
1588960351.0649805,3.8502183130356338,-0.6640654939106901,-9.059345060893099,-0.5277777777777778,-0.17333333333333334,0.6411111111111111,-0.038455119530897586,0.2767737934145241,-0.012363554352728914
1588960351.0749805,3.7988894221739944,-0.6376770100790885,-9.038787587905095,-0.5198766024637772,-0.2020648799296991,0.6368013791216562,-0.0037887877965818717,-0.04734484881367251,-0.08080747480227875
1588960351.0849805,3.791630152872957,-0.5883698471270428,-9.102173537163944,-0.5155555555555555,-0.21777777777777774,0.6344444444444445,-0.1022403795466526,-0.3454480759093305,-0.05910384818133896
1588960351.0949805,3.8273994465294363,-0.5821983395883089,-9.073404981235074,-0.5155555555555555,-0.21777777777777774,0.6344444444444445,0.16621886728079155,0.08746540808976838,0.04624654080897684
1588960351.1049805,3.8,-0.6791803824099263,-9.177950956024816,-0.5155555555555555,-0.21777777777777774,0.6344444444444445,0.12414623167700647,0.25170753664598705,-0.18664623167700647
1588960351.1149805,3.8,-0.6299293500596904,-9.054823375149226,-0.5155555555555555,-0.21777777777777774,0.6344444444444445,0.07284307297884415,0.3543138540423117,-0.13534307297884415
1588960351.1249804,3.8585394450008836,-0.6,-9.005842219996465,-0.5011111111111111,-0.18666666666666668,0.6411111111111111,-0.3094571770851745,-0.07771411457412754,-0.1783715312555235
1588960351.1349804,3.833827844223178,-0.6,-9.104688623107288,-0.5011111111111111,-0.18666666666666668,0.6411111111111111,-0.2579746754649541,-0.33512662267522925,-0.023924026394862435
1588960351.1449804,3.8043488801244707,-0.6320638998444115,-9.216191699533233,-0.5011111111111111,-0.18666666666666668,0.6411111111111111,-0.16984025038897133,-0.33492012519448566,-0.08015974961102869
1588960351.1549804,3.79,-0.6165507071012629,-9.127840505180368,-0.5011111111111111,-0.18666666666666668,0.6411111111111111,0.08405808061710657,0.2101452015427664,0.03179356046282991
1588960351.1649804,3.832755484824372,-0.6242518282747906,-9.092874085862604,-0.5011111111111111,-0.18666666666666668,0.6411111111111111,0.16953696335872076,0.08981518320639612,-0.02657392671744155
1588960351.1749804,3.832362977602108,-0.63,-9.001814888010541,-0.4962119382228078,-0.179807824623042,0.6411111111111111,-0.08807847496706195,-0.05511569499341238,-0.0625
1588960351.1849804,3.7957364396483957,-0.6368527120703209,-9.113348817265775,-0.4955555555555556,-0.17888888888888888,0.6411111111111111,-0.21065890087901093,-0.4051356035160437,-0.14815890087901093
1588960351.1949804,3.7982340816250044,-0.5852977551249859,-9.188234081625005,-0.4955555555555556,-0.17888888888888888,0.6411111111111111,-0.19301849492186035,0.007315050781396382,-0.01655548476558108
1588960351.2049804,3.781308371500071,-0.6080374427498938,-9.143270928750178,-0.4955555555555556,-0.17888888888888888,0.6411111111111111,0.2213793734359507,0.12091133906227867,-0.058411339062278675
1588960351.2149804,3.8163026393831556,-0.6317815836298932,-9.060134193357058,-0.4955555555555556,-0.17888888888888888,0.6411111111111111,0.20462170077105574,0.35189149614472126,-0.0625
1588960351.2249804,3.812070627062706,-0.64,-9.059882288228822,-0.502860114900379,-0.17888888888888888,0.6411111111111111,0.0754414191419142,0.250735698569857,-0.1372057205720572
1588960351.2349803,3.8085971798226486,-0.5970141008867568,-9.01981974124146,-0.5077777777777778,-0.17888888888888888,0.6411111111111111,-0.16119712167466202,-0.08992949556621602,-0.02630287832533798
1588960351.2449803,3.8026652029044126,-0.59,-9.16403073900734,-0.5077777777777778,-0.17888888888888888,0.6411111111111111,-0.0958150363051559,-0.125,-0.04584248184742205
1588960351.2549803,3.808886675520142,-0.6344333776007083,-9.157793271359008,-0.5077777777777778,-0.17888888888888888,0.6411111111111111,-0.0625,0.09716688800354137,-0.006958277999114658
1588960351.2649803,3.802637488981719,-0.6252749779634384,-9.120549955926876,-0.5077777777777778,-0.17888888888888888,0.6411111111111111,0.12156277545701913,0.17101569386425478,-0.09203138772850956
1588960351.2749803,3.8,-0.628771673151751,-9.048598287937743,-0.4912090618244704,-0.19643223519239084,0.6557305663640294,0.07785408560311285,0.29714591439688715,-0.125
1588960351.2849803,3.8069444038306894,-0.6161111923386212,-9.053888807661378,-0.4888888888888889,-0.1988888888888889,0.6577777777777778,-0.02430504788361723,0.008682332407339677,0.005207571825425833
1588960351.2949803,3.805290691161644,-0.6194186176767111,-9.121221014898623,-0.4888888888888889,-0.1988888888888889,0.6577777777777778,-0.15079954071916657,-0.21329954071916657,-0.02579954071916657
1588960351.3049803,3.7900113799052897,-0.6250056899526449,-9.19,-0.4888888888888889,-0.1988888888888889,0.6577777777777778,-0.12514224881612276,-0.15642781102015343,-0.06257112440806138
1588960351.3149803,3.784780780273602,-0.6295615605472049,-9.156534538084783,-0.4888888888888889,-0.1988888888888889,0.6577777777777778,0.0597597534200304,-0.0298798767100152,0.0
1588960351.3249803,3.798571095842553,-0.6314289041574473,-9.07285897286596,-0.5003170166789591,-0.1903177930463362,0.6477781659614663,0.09821532549202283,0.0446386980319087,-0.026784674507977176
1588960351.3349802,3.8154058025696527,-0.6308116051393053,-9.015405802569653,-0.5155555555555555,-0.17888888888888888,0.6344444444444445,0.02871373393967075,0.052354935758683,-0.09628626606032925
1588960351.3449802,3.806329408344236,-0.6263294083442361,-9.136200029073994,-0.5155555555555555,-0.17888888888888888,0.6344444444444445,-0.0854411978485245,-0.1479411978485245,-0.08227940107573775
1588960351.3549802,3.7915865019492685,-0.6284134980507317,-9.173173003898537,-0.5155555555555555,-0.17888888888888888,0.6344444444444445,-0.019831274365854884,-0.02974691154878234,-0.0625
1588960351.3649802,3.810085952894811,-0.609914047105189,-9.103046823683965,-0.5155555555555555,-0.17888888888888888,0.6344444444444445,-0.0836914703950455,0.12553720559256826,-0.0625
1588960351.3749802,3.8089528997843605,-0.6276177505390989,-9.07,-0.5075770942887048,-0.1684555164630071,0.6473327280293573,-0.09047781182612644,0.15297781182612644,-0.0625
1588960351.3849802,3.815706258613987,-0.6421468706930064,-9.085706258613987,-0.5011111111111111,-0.16,0.6577777777777778,-0.01341794183128954,0.22316411633742092,0.03566411633742092
1588960351.3949802,3.799276635082043,-0.6330922116940143,-9.172893459671828,-0.5011111111111111,-0.16,0.6577777777777778,0.04317367691241045,-0.18173676912410447,-0.06702103073723134
1588960351.4049802,3.7984964552973612,-0.6215035447026388,-9.167517723513194,-0.5011111111111111,-0.16,0.6577777777777778,-0.09680853682552185,-0.16258861756597087,-0.07189715439149272
1588960351.4149802,3.792622329291892,-0.6126223292918921,-9.16,-0.5011111111111111,-0.16,0.6577777777777778,-0.032779116148651324,0.013331325777023034,-0.0625
1588960351.4249802,3.79,-0.6184387328504976,-9.084051404345523,-0.49642292619416806,-0.16,0.6437132230269484,0.0,0.2207262409468292,0.04298416063121946
1588960351.4349802,3.79,-0.6279072879124674,-9.07,-0.4955555555555556,-0.16,0.6411111111111111,0.148261648358763,0.052317802188316054,0.0625
1588960351.4449801,3.8270763004185255,-0.6374152600837051,-9.121906820585936,-0.4955555555555556,-0.16,0.6411111111111111,-0.044226877615784393,0.04634537552315688,-0.03019075104631376
1588960351.4549801,3.8162654607297464,-0.6320884869099155,-9.14,-0.4955555555555556,-0.16,0.6411111111111111,-0.026106086373943516,-0.08584087043908473,-0.16139391362605648
1588960351.4649801,3.81,-0.63,-9.13028299854983,-0.4955555555555556,-0.16,0.6411111111111111,0.0,-0.125,-0.1571343704682183
1588960351.47498,3.805327722131241,-0.6253277221312412,-9.105983166393724,-0.4984108364753526,-0.16622970382501176,0.6450046760017434,0.029201736679742546,-0.051995658300643635,-0.11039913166012873
1588960351.48498,3.819189659208722,-0.6245948296043611,-9.030810340791279,-0.5077777777777778,-0.18666666666666668,0.6577777777777778,0.125,0.14189115748637168,-0.01689115748637169
1588960351.49498,3.8164895166277657,-0.63,-9.121328625291758,-0.5077777777777778,-0.18666666666666668,0.6577777777777778,0.125,-0.08610130269116442,0.0
1588960351.50498,3.797464056435668,-0.63,-9.157464056435668,-0.5077777777777778,-0.18666666666666668,0.6577777777777778,0.0074755290843850075,-0.14832517636146167,-0.03917482363853834
1588960351.51498,3.802065547055362,-0.6119016794169572,-9.125868905889275,-0.5077777777777778,-0.18666666666666668,0.6577777777777778,0.012909669096011947,-0.16270483454800597,-0.024795165451994026
1588960351.52498,3.805068473782015,-0.604931526217985,-9.095205421346044,-0.5044900936324545,-0.18009129837602003,0.6462708832691462,0.0008559222751878467,-0.09503388341278178,-0.030822038862406077
1588960351.53498,3.8063806422296276,-0.6163806422296274,-9.067238715540746,-0.5011111111111111,-0.17333333333333334,0.6344444444444445,0.01725802787034232,0.11963704180551349,-0.10237901393517115
1588960351.54498,3.7975857706903824,-0.6324142293096178,-9.128278261202897,-0.5011111111111111,-0.17333333333333334,0.6344444444444445,0.0625,-0.006472332962778382,-0.125
1588960351.55498,3.79,-0.6326671521249835,-9.162667152124984,-0.5011111111111111,-0.17333333333333334,0.6344444444444445,0.016669700781146567,-0.17083029921885343,-0.17083029921885343
1588960351.56498,3.79,-0.6115102129904145,-9.147673475326943,-0.5011111111111111,-0.17333333333333334,0.6344444444444445,-0.038520389603303076,-0.1875,-0.11045922079339385
1588960351.57498,3.797453258499267,-0.6223597754978014,-9.102733707503663,-0.4969704119448516,-0.18823985033186763,0.6609449191085055,-0.0625,-0.0011685375183212443,-0.0625
1588960351.58498,3.8,-0.63,-9.09,-0.4955555555555556,-0.19333333333333333,0.67,0.014605514907789607,0.1010527574538948,0.014605514907789607
1588960351.59498,3.8,-0.6360914542728636,-9.120457271364318,-0.4955555555555556,-0.19333333333333333,0.67,-0.05171476761619191,0.125,-0.013643178410794599
1588960351.60498,3.806845532690805,-0.6331544673091951,-9.14,-0.4955555555555556,-0.19333333333333333,0.67,-0.0822154206824694,0.0822154206824694,-0.1052845793175306
1588960351.61498,3.8008501830155206,-0.6208501830155203,-9.12627527452328,-0.4955555555555556,-0.19333333333333333,0.67,-0.0625,-0.10905906845899332,-0.09640682192350111
1588960351.62498,3.7869641095682525,-0.6130358904317474,-9.106964109568253,-0.4972421613509708,-0.18894815826525363,0.6592057229093423,-0.0625,-0.23660273920631308,-0.10044863039684346
1588960351.63498,3.799514354264913,-0.626504784754971,-9.119514354264913,-0.5011111111111111,-0.17888888888888888,0.6344444444444445,-0.0625,-0.0625,-0.10619019056286368
1588960351.64498,3.804008883612396,-0.6240088836123961,-9.153964465550416,-0.5011111111111111,-0.17888888888888888,0.6344444444444445,-0.025055522577475745,0.08727790969009702,-0.0625
1588960351.65498,3.8070648086706482,-0.62,-9.13467595664676,-0.5011111111111111,-0.17888888888888888,0.6344444444444445,-0.044155054191550545,0.09918989161689891,-0.0625
1588960351.66498,3.7975594330996647,-0.6324405669003352,-9.113779716549832,-0.5011111111111111,-0.17888888888888888,0.6344444444444445,-0.1013767715635477,-0.015253543127095398,-0.1402535431270954
1588960351.67498,3.799725626526436,-0.6205487469471276,-9.11,-0.5081351747135372,-0.17888888888888888,0.6447103835556827,-0.125,-0.09289258289511321,-0.09632225131466039
1588960351.68498,3.81,-0.6,-9.083618500390154,-0.5155555555555555,-0.17888888888888888,0.6555555555555556,-0.042557813719231036,-0.042557813719231036,-0.04122109314038448
1588960351.69498,3.81,-0.6148598731967289,-9.151729302582009,-0.5155555555555555,-0.17888888888888888,0.6555555555555556,0.046437103739777635,0.046437103739777635,-0.016062896260222365
1588960351.70498,3.8037676049202584,-0.6137676049202586,-9.136373234441809,-0.5155555555555555,-0.17888888888888888,0.6555555555555556,0.023547530751616107,-0.05435740774515169,0.0
1588960351.71498,3.8,-0.6198195962994113,-9.100180403700588,-0.5155555555555555,-0.17888888888888888,0.6555555555555556,0.0,-0.18637247687132044,-0.061372476871320435
1588960351.7249799,3.8,-0.6244631427768584,-9.095536857223141,-0.5112491110486677,-0.18996260333517195,0.6395601902442578,-0.03460535764463455,-0.21539464235536546,-0.125
1588960351.7349799,3.79348324140857,-0.6069664828171404,-9.09348324140857,-0.5077777777777778,-0.1988888888888889,0.6266666666666667,-0.10322974119643616,0.05687844717861687,-0.125
1588960351.7449799,3.8038490950802957,-0.6207736426204435,-9.131547285240888,-0.5077777777777778,-0.1988888888888889,0.6266666666666667,0.004835266377772096,0.10094315574815192,0.048113688503696156
1588960351.7549798,3.8168738784337184,-0.63,-9.122504486265127,-0.5077777777777778,-0.1988888888888889,0.6266666666666667,0.01953825978926057,0.0625,0.03907651957852114
1588960351.7649798,3.82,-0.6213822447801113,-9.105691122390056,-0.5077777777777778,-0.1988888888888889,0.6266666666666667,-0.053860970124304776,0.0625,-0.026930485062152388
1588960351.7749798,3.8168333862042223,-0.61,-9.095250079306334,-0.506722239845852,-0.19572227509311152,0.6289536655191725,-0.1348956681118043,0.022917327552782772,-0.052604331888195695
1588960351.7849798,3.8,-0.61,-9.08196331004338,-0.5011111111111111,-0.17888888888888888,0.6411111111111111,-0.11272931222888175,-0.15011465611444086,0.0
1588960351.7949798,3.805751553274418,-0.6157515532744182,-9.147515532744181,-0.5011111111111111,-0.17888888888888888,0.6411111111111111,0.009394415930228078,-0.08905279203488596,0.0
1588960351.8049798,3.81,-0.6321913910729036,-9.165617217854193,-0.5011111111111111,-0.17888888888888888,0.6411111111111111,0.0625,0.08989238841129502,-0.038098097102823754
1588960351.8149798,3.81,-0.6290098674299488,-9.111534536004822,-0.5011111111111111,-0.17888888888888888,0.6411111111111111,0.028155835718589935,0.11881167143717987,0.006188328562820131
1588960351.8249798,3.81,-0.6240218725588662,-9.08,-0.5037923594836885,-0.18469826036280673,0.6478142320425547,0.050273406985827475,-0.06318351746456868,0.11277340698582747
1588960351.8349798,3.7995158389818786,-0.6247579194909393,-9.08,-0.5077777777777778,-0.19333333333333333,0.6577777777777778,0.026710990455111355,-0.28276300318162956,0.12197399363674091
1588960351.8449798,3.794395116017964,-0.62,-9.132741392215568,-0.5077777777777778,-0.19333333333333333,0.6577777777777778,-0.035030524887724554,-0.1476831493263473,-0.019908425336826352
1588960351.8549798,3.8019227071716974,-0.62,-9.182695635454719,-0.5077777777777778,-0.19333333333333333,0.6577777777777778,0.02403383964622188,0.08653383964622188,-0.10096616035377812
1588960351.8649797,3.806949254493092,-0.6169492544930918,-9.094746272465459,-0.5077777777777778,-0.19333333333333333,0.6577777777777778,0.14406715941817652,0.14936568116364696,0.038134318836353036
1588960351.8749797,3.8,-0.611490765686619,-9.06298153137324,-0.5089372622007037,-0.19035180196009527,0.6577777777777778,0.15954814337589318,0.053182714458631056,0.10636542891726211
1588960351.8849797,3.8,-0.6252712813268456,-9.111627687961073,-0.5155555555555555,-0.17333333333333334,0.6577777777777778,-0.03294550829278502,-0.03294550829278502,0.06589101658557003
1588960351.8949797,3.8059066498378993,-0.6122800504863019,-9.169533249189497,-0.5155555555555555,-0.17333333333333334,0.6577777777777778,-0.025583438513128914,-0.025583438513128914,0.05116687702625783
1588960351.9049797,3.81,-0.618000566880034,-9.171999433119966,-0.5155555555555555,-0.17333333333333334,0.6577777777777778,0.07500236200014172,0.11250354300021259,0.0
1588960351.9149797,3.805191224258273,-0.6348087757417271,-9.116721018324457,-0.5155555555555555,-0.17333333333333334,0.6577777777777778,0.06489030322841155,0.15744515161420577,0.0
1588960351.9249797,3.8071105718907603,-0.6364447140546199,-9.06644471405462,-0.5084449836647953,-0.17530849219187786,0.6518523012021442,0.0,0.08055892568274811,0.02222053715862594
1588960351.9349797,3.810236976170912,-0.6153554642563681,-9.069763023829088,-0.4955555555555556,-0.17888888888888888,0.6411111111111111,-0.06101889893179951,0.030509449465899754,0.03199055053410024
1588960351.9449797,3.7937581366724262,-0.6,-9.154902359930881,-0.4955555555555556,-0.17888888888888888,0.6411111111111111,-0.04697670840533055,0.023488354202665276,-0.039011645797334724
1588960351.9549797,3.802409426327065,-0.6186141394905975,-9.150362294691739,-0.4955555555555556,-0.17888888888888888,0.6411111111111111,0.15511782908831231,0.03877945727207808,-0.02372054272792192
1588960351.9649796,3.8149915524325153,-0.6250084475674845,-9.110016895134969,-0.4955555555555556,-0.17888888888888888,0.6411111111111111,0.1252111891871136,-0.031091608109664784,0.031197202703221596
1588960351.9749796,3.816833929034963,-0.62,-9.093667858069926,-0.4994251978461559,-0.18733174479565326,0.6411111111111111,0.019787943531479005,-0.144787943531479,0.042712056468521
1588960351.9849796,3.81,-0.6171162755940816,-9.068465102376326,-0.5077777777777778,-0.20555555555555555,0.6411111111111111,0.00843016738903004,-0.09738361231505006,0.018023277536989984
1588960351.9949796,3.81,-0.6135402074926172,-9.100183527374492,-0.5077777777777778,-0.20555555555555555,0.6411111111111111,-0.0807474063422855,0.014368515855713776,0.08462629682885725
1588960352.0049796,3.809942605633803,-0.6201147887323943,-9.209713028169014,-0.5077777777777778,-0.20555555555555555,0.6411111111111111,0.0,-0.1875,0.125
1588960352.0149796,3.802434674482636,-0.6302613020694555,-9.142957278621548,-0.5077777777777778,-0.20555555555555555,0.6411111111111111,0.03043343103295142,-0.11141642241762147,0.09456656896704858
1588960352.0249796,3.8098852473576694,-0.6004590105693223,-9.090803268496314,-0.5077777777777778,-0.20555555555555555,0.6411111111111111,0.12356559197086776,0.12141397992716935,0.0014344080291322364
1588960352.0349796,3.81,-0.63,-9.08050511371414,-0.4955555555555556,-0.17888888888888888,0.6411111111111111,0.0,0.0,0.0
1588960352.0449796,3.8067901795862698,-0.63,-9.126049102068652,-0.4955555555555556,-0.17888888888888888,0.6411111111111111,-0.010030688792907479,-0.010030688792907479,0.0
1588960352.0549796,3.797210671137271,-0.6263946644313647,-9.184762651019554,-0.4955555555555556,-0.17888888888888888,0.6411111111111111,-0.017433305392058604,-0.0399666526960293,0.022533347303970698
1588960352.0649796,3.8043027027027025,-0.6237981981981982,-9.132403603603604,-0.4955555555555556,-0.17888888888888888,0.6411111111111111,0.05063063063063063,0.035608108108108105,0.0625
