time,acc_x,acc_y,acc_z,mag_x,mag_y,mag_z,gyr_x,gyr_y,gyr_z
1588960376.7035985,0.85,-2.31,-9.54,-0.4988888888888889,0.1688888888888889,0.6944444444444444,-7.9375,13.8125,-25.6875
1588960376.7135985,0.6809072029442692,-2.2357844374342797,-9.32602996845426,-0.4988888888888889,0.1688888888888889,0.6944444444444444,-7.660086422187171,21.062031742902207,-17.2359292849632
1588960376.7235985,0.5594823499747856,-2.1133575390821986,-9.177053706505296,-0.4988888888888889,0.1688888888888889,0.6944444444444444,-5.673439863842662,20.85703952344932,-11.615294062027232
1588960376.7335985,0.437862455874937,-1.8806933938477055,-9.097736384266264,-0.4988888888888889,0.1688888888888889,0.6944444444444444,-4.285386724659607,15.998853536308623,-9.334921047655069
1588960376.7435985,0.10661742119505596,-2.0594639069699405,-9.252975937979961,-0.5087163672119424,0.16442185328750092,0.7006982942863875,-2.016867183500329,12.129621334015944,-2.521026841219922
1588960376.7535985,0.10558655462184874,-2.007025210084034,-9.242611764705883,-0.5111111111111111,0.16333333333333333,0.7022222222222222,-0.29277310924369737,14.363214285714285,7.790672268907564
1588960376.7635984,0.12309663262444112,-1.8020978040289717,-9.414761346950224,-0.5111111111111111,0.16333333333333333,0.7022222222222222,3.0535505106333836,22.49042459289568,29.38262444110805
1588960376.7735984,-0.049904142812360774,-1.4837763772252561,-9.483961657124944,-0.5111111111111111,0.16333333333333333,0.7022222222222222,5.648562142185412,28.89145328405735,43.4821876392074
1588960376.7835984,0.18428544727299914,-1.4932140854547493,-9.491964786363127,-0.5121824729293608,0.16190485090900028,0.7012699006060001,6.272323931815633,36.32142022728122,72.00104201712085
1588960376.7935984,0.18747865644668787,-1.7192164682910618,-9.284385451070813,-0.5311111111111111,0.13666666666666666,0.6844444444444444,5.389830134396876,39.335011996011715,100.46797168733512
1588960376.8035984,0.1957404430777832,-2.0800786218463903,-9.201900377384863,-0.5311111111111111,0.13666666666666666,0.6844444444444444,5.108043888461808,40.801605414424486,118.13187941155915
1588960376.8135984,0.7819868614158921,-2.24129638688937,-9.370446222657069,-0.5311111111111111,0.13666666666666666,0.6844444444444444,5.291245894192466,41.76341594451045,132.2384338528199
1588960376.8235984,2.0907185570613134,-1.4463831398283695,-10.31356735137654,-0.5311111111111111,0.13666666666666666,0.6844444444444444,2.393320681085699,32.79717047528443,142.89249553450082
1588960376.8335984,3.1249205917757155,-1.340519939424533,-10.68816021434396,-0.5311111111111111,0.13666666666666666,0.6844444444444444,-4.528503960703606,23.483244670523824,140.4494986021046
1588960376.8435984,2.8,-2.12,-8.99,-0.5366666666666666,0.17555555555555555,0.6755555555555556,-15.5625,18.4375,123.9375
1588960376.8535984,2.9588468982377507,-2.339738209228889,-9.151494346541714,-0.5366666666666666,0.17555555555555555,0.6755555555555556,-15.529406896200468,20.373446572272588,115.58149129061832
1588960376.8635983,3.4141941639130637,-2.964194163913064,-9.65880439335412,-0.5366666666666666,0.17555555555555555,0.6755555555555556,-14.917892213896774,27.359516800856333,88.5729918090008
1588960376.8735983,3.4597412388886304,-3.00974123888863,-9.847499418252898,-0.5366666666666666,0.17555555555555555,0.6755555555555556,-13.250543933541211,32.52422976683576,76.37288244054545
1588960376.8835983,2.7434816450455424,-2.490807617996136,-9.531225503726194,-0.5366666666666666,0.17555555555555555,0.6755555555555556,-11.081127518630968,38.90094189897874,59.330078664090536
1588960376.8935983,1.669052217205048,-2.1026333217552393,-9.233415306240593,-0.5268358354881453,0.2335574595088315,0.6558938931985129,-10.045523619312261,39.88708897765428,50.27751099918953
1588960376.9035983,1.8126380926604828,-2.270247521098344,-9.29803803853062,-0.5255555555555556,0.2411111111111111,0.6533333333333333,-10.90874966168836,35.422143727087075,49.54333310779224
1588960376.9135983,1.8314193441143645,-2.6013870485146398,-9.417177459571134,-0.5255555555555556,0.2411111111111111,0.6533333333333333,-11.964213625893471,32.669859122319586,49.884173671962195
1588960376.9235983,1.8854136815964841,-2.738471227198828,-9.265526057206154,-0.5255555555555556,0.2411111111111111,0.6533333333333333,-12.161027415003662,31.973527415003662,48.79409268754578
1588960376.9335983,1.9753348936094188,-2.768444964536473,-9.108163936183516,-0.5255555555555556,0.2411111111111111,0.6533333333333333,-12.067359485823522,31.879859485823523,47.623243572794024
1588960376.9435983,1.98,-2.9,-8.75,-0.5311111111111111,0.25555555555555554,0.64,-12.0,28.4375,45.8125
1588960376.9535983,1.9197281065734877,-3.040634417995195,-8.475428041056999,-0.5311111111111111,0.25555555555555554,0.64,-11.288456813714784,22.870720954356848,43.25931562568246
1588960376.9635983,1.9583198569914153,-3.2603036853811136,-8.278512128707726,-0.5311111111111111,0.25555555555555554,0.64,-9.101403843355714,11.585017876073083,36.064712423870795
1588960376.9735982,2.0493289882980297,-3.409105317730707,-7.666598281736039,-0.5311111111111111,0.25555555555555554,0.64,-3.491320730262183,-9.741089283069172,18.78925807287809
1588960376.9835982,2.0412928655068585,-3.29680725158916,-7.625171462027434,-0.5311111111111111,0.25555555555555554,0.64,0.37187134074941497,-29.202035066075613,3.822871361659418
1588960376.9935982,1.8630307333021954,-3.0615153666510975,-8.873037832788416,-0.5577777777777778,0.2733333333333333,0.6377777777777778,3.933747080803363,-51.960461233068656,-12.128930406352172
1588960377.0035982,1.8787030359645025,-3.069351517982251,-9.147303129378795,-0.5577777777777778,0.2733333333333333,0.6377777777777778,5.207121672115834,-60.48227580569827,-17.320380663241476
1588960377.0135982,1.8385540124852982,-2.867549081697277,-9.293725685334298,-0.5577777777777778,0.2733333333333333,0.6377777777777778,6.6965374219668865,-66.67325188862752,-22.529717610603456
1588960377.0235982,1.5030699472236675,-2.5963881662082806,-8.804695606927822,-0.5577777777777778,0.2733333333333333,0.6377777777777778,7.9997166059614955,-75.03612112539955,-24.05756151044377
1588960377.0335982,1.409537649594886,-2.300202557050472,-9.880317029658812,-0.5577777777777778,0.2733333333333333,0.6377777777777778,4.199967014792239,-86.6302288523006,-22.30383092990411
1588960377.0435982,1.3732555442474734,-1.6281330619393626,-10.66752621239734,-0.5340049282199764,0.278286010324542,0.6457020609637115,-0.42203882748337307,-90.43122795910156,-19.17196634399186
1588960377.0535982,1.3303255587949467,-0.906846265978919,-11.112309374299171,-0.5311111111111111,0.2788888888888889,0.6466666666666666,-5.162131129924497,-75.09340192120804,-25.213249654257307
1588960377.0635982,1.1265208940719145,-1.9180309486431935,-10.148156537340212,-0.5311111111111111,0.2788888888888889,0.6466666666666666,-5.994986730956119,-61.7677123047021,-30.161391754504
1588960377.0735981,1.306652640279526,-2.2446283320496683,-9.821280972329195,-0.5311111111111111,0.2788888888888889,0.6466666666666666,-5.7293419965059265,-46.50879506133413,-30.68440276708057
1588960377.0835981,1.4090813968778764,-2.150078710574268,-9.829160107452145,-0.5311111111111111,0.2788888888888889,0.6466666666666666,-4.448982539026543,-40.79642209719535,-29.896489254785564
1588960377.0935981,0.10577603733481195,-1.9289390998983458,-9.551060900101653,-0.4655555555555556,0.27111111111111114,0.6755555555555556,-5.049361484613252,-37.68762273588393,-30.13138515386748
1588960377.103598,0.01,-1.87,-9.61,-0.4655555555555556,0.27111111111111114,0.6755555555555556,-5.1875,-38.5625,-28.75
1588960377.113598,0.1576343104582794,-1.8317244380293352,-9.801377809853326,-0.4655555555555556,0.27111111111111114,0.6755555555555556,-3.9572140795143387,-37.092991817197685,-26.87039651036913
1588960377.123598,0.45810347538921214,-2.0509639880484354,-9.935713162446925,-0.4655555555555556,0.27111111111111114,0.6755555555555556,1.1103062588457302,-24.794130366409814,-21.517681632332128
1588960377.133598,0.4678105369104224,-2.0520589664387603,-9.730425328844618,-0.4655555555555556,0.27111111111111114,0.6755555555555556,2.0625,-16.634817617047858,-19.09600050324506
1588960377.143598,0.2613732084234126,-2.165757066218272,-9.534260549283369,-0.4760348217542549,0.25777386322185747,0.6993720696435085,1.5802155897189527,-9.704224717751622,-16.69597245576107
1588960377.153598,0.38986754415194935,-2.4058211846051316,-9.360132455848051,-0.4777777777777778,0.25555555555555554,0.7033333333333334,1.5499586075474843,-6.015024939603466,-14.738907343385538
1588960377.163598,1.0819501819728696,-2.4829252729593043,-9.523174363094956,-0.4777777777777778,0.25555555555555554,0.7033333333333334,1.025934088008697,-3.5457738573521764,-13.559386373304344
1588960377.173598,1.1300187774224735,-2.51,-9.46837733323418,-0.4777777777777778,0.25555555555555554,0.7033333333333334,0.6962263887856027,-2.8343159719640068,-14.796579859820035
1588960377.183598,1.465325723209638,-2.51,-9.561951364616643,-0.4777777777777778,0.25555555555555554,0.7033333333333334,0.7936993381423366,-3.0779983453558413,-16.014991726779208
1588960377.193598,1.7973168035375868,-2.6971217624763106,-9.426292837965887,-0.46960976433635154,0.2496151821436092,0.7033333333333334,0.9378047516582438,-1.621342980101074,-19.50792354311434
1588960377.203598,1.179475862536893,-2.141820063100044,-9.503516300844726,-0.4655555555555556,0.2466666666666667,0.7033333333333334,1.8528683380262576,2.216647725345184,-26.028992943650984
1588960377.213598,0.5238200151023852,-1.938127304224226,-9.488239683738286,-0.4655555555555556,0.2466666666666667,0.7033333333333334,2.313202371962866,3.5330059299071648,-29.015216208412916
1588960377.223598,-0.041154685721748546,-1.6967835220806358,-9.563216477919365,-0.4655555555555556,0.2466666666666667,0.7033333333333334,2.7823455195059608,4.017268279258942,-28.91610967555365
1588960377.233598,0.04492397246217279,-1.6654821918319371,-9.594517808168062,-0.4655555555555556,0.2466666666666667,0.7033333333333334,2.488895548424411,3.5770933226366166,-26.275059935819698
1588960377.243598,-0.4,-2.02,-9.4,-0.4577777777777778,0.22666666666666666,0.7033333333333334,2.625,4.5625,-22.5
1588960377.253598,-0.3131920204688703,-2.0320566638237683,-9.4,-0.4577777777777778,0.22666666666666666,0.7033333333333334,2.662677074449275,5.918874680173902,-21.060735756037694
1588960377.263598,0.3149976078047968,-2.1193052233062217,-9.4,-0.4577777777777778,0.22666666666666666,0.7033333333333334,2.935328822831943,15.734337621949951,-10.645438967819775
1588960377.273598,1.7977270654860462,-2.3396621313560337,-9.469892496340558,-0.4577777777777778,0.22666666666666666,0.7033333333333334,2.9375,18.68308467112999,-9.189611679024788
1588960377.283598,1.4018917248918674,-2.2670134828968425,-9.436824310407657,-0.4577777777777778,0.22666666666666666,0.7033333333333334,2.315455820143543,16.074914444602882,-12.007433615349273
1588960377.293598,1.145832866165863,-2.199047352094779,-9.505119781739358,-0.4689551228546632,0.23268523709268193,0.7093519037593485,1.6614554135366446,10.59073793773592,-16.290947228762565
1588960377.303598,2.60772542666282,-2.2381180230364635,-10.065908475554274,-0.4722222222222222,0.2344444444444445,0.7111111111111111,1.0166850684657893,7.395242903748419,-21.83615509665106
1588960377.313598,0.7338722175518111,-2.4408655287108445,-9.480410102708433,-0.4722222222222222,0.2344444444444445,0.7111111111111111,0.7699317409262034,3.3328566468072665,-29.509112632040644
1588960377.323598,0.05932563324682927,-2.210906465879601,-9.725699769728426,-0.4722222222222222,0.2344444444444445,0.7111111111111111,1.0094724313754158,-3.1826501334113093,-32.623141607880406
1588960377.333598,-0.40478312755312806,-2.0101032725937484,-9.652587781704685,-0.4722222222222222,0.2344444444444445,0.7111111111111111,1.1561854546289072,-5.140270000458989,-30.408250906503877
1588960377.343598,-0.30056094323065496,-2.078682132169295,-9.449430056476835,-0.4807549245350474,0.21039773792648264,0.7056812096393134,1.1875,-1.3855176855747815,-24.24515671759332
1588960377.3535979,-0.24324668492753096,-2.2072944292270575,-9.35703448400965,-0.4844444444444445,0.2,0.7033333333333334,1.1182360730676437,4.194263926932356,-14.280039726449834
1588960377.3635979,-0.2888972735683059,-2.169252272026412,-9.455944092731329,-0.4844444444444445,0.2,0.7033333333333334,1.0231306800660294,4.289369319933971,-9.429664683367497
1588960377.3735979,0.17525435073627846,-2.1903547523427043,-9.495210843373494,-0.4844444444444445,0.2,0.7033333333333334,-0.07580321285140562,3.6715612449799195,-2.1879183400267737
1588960377.3835979,0.8459181169120927,-2.2059515841142345,-9.28465361445783,-0.4844444444444445,0.2,0.7033333333333334,-0.6606844042838018,5.718645414993307,0.5415272199910754
1588960377.3935978,0.9973887800618347,-2.21,-9.463056099690826,-0.4922222222222222,0.2088888888888889,0.6977777777777778,-0.8532398338486229,5.255319086167426,1.27441970923509
1588960377.4035978,0.97,-2.21,-9.6,-0.4922222222222222,0.2088888888888889,0.6977777777777778,-0.625,4.0,0.875
1588960377.4135978,1.0211950434886214,-2.2185325072481037,-9.489077405774655,-0.4922222222222222,0.2088888888888889,0.6977777777777778,-0.7316563406012947,4.266640851503237,0.875
1588960377.4235978,1.0091788371033854,-2.2489051161378475,-9.552189767724306,-0.4922222222222222,0.2088888888888889,0.6977777777777778,-0.5659215120692273,4.7038095870654315,1.1198677318961592
1588960377.4335978,0.990076210718081,-2.223434947624108,-9.603130104751784,-0.4922222222222222,0.2088888888888889,0.6977777777777778,-0.6455157886746622,3.62928685289206,1.0004763169880067
1588960377.4435978,0.8123383856186113,-2.1610986958054283,-9.462338385618612,-0.4968794892883719,0.22286069008733797,0.6884632436454784,-0.9931331512160733,0.3554635178004939,0.6318668487839267
1588960377.4535978,-1.154661385916126,-1.802337574787225,-9.324343417319739,-0.4988888888888889,0.2288888888888889,0.6844444444444444,-0.9491341535350131,-2.922890157579843,2.0827926181848824
1588960377.4635978,-1.9780099329848835,-3.0467587672688627,-9.095947428918432,-0.4988888888888889,0.2288888888888889,0.6844444444444444,-0.7220648354984927,-6.132451094146479,11.074200535687176
1588960377.4735978,-0.4496601034780109,-2.0067097226214425,-10.514235232825525,-0.4988888888888889,0.2288888888888889,0.6844444444444444,0.12580729915205519,-7.550773390342052,32.55285507688991
1588960377.4835978,0.06272204656510483,-1.9238243748203505,-9.361375395228514,-0.4988888888888889,0.2288888888888889,0.6844444444444444,-1.4282929721184248,-0.9576207243460768,40.18207459039954
1588960377.4935977,1.4064999671851415,-2.2007595545929863,-9.069229507120824,-0.511965391262497,0.22453005476435284,0.6873503338608018,-1.5889515105773229,5.882052460020564,41.435126391896915
1588960377.5035977,2.538249111651393,-2.36,-9.256083037217131,-0.5188888888888888,0.2222222222222222,0.6888888888888889,-2.292339162146998,-4.078347671591546,31.10684963530952
1588960377.5135977,2.7541013283378746,-2.2966582084468663,-9.576708957765668,-0.5188888888888888,0.2222222222222222,0.6888888888888889,-2.7963609076975477,-9.213609076975477,24.012972581743867
1588960377.5235977,1.0036095969442567,-2.9635304181753073,-9.377886842000557,-0.5188888888888888,0.2222222222222222,0.6888888888888889,-1.8400459555166515,-6.4880833963315165,12.333769347073568
1588960377.5335977,1.4303138819197518,-2.0841640344385683,-9.407326498565059,-0.5188888888888888,0.2222222222222222,0.6888888888888889,-1.9991324928252983,-13.187085988123386,8.485666389906683
1588960377.5435977,1.749501091748033,-2.0869838915667613,-9.855824990730442,-0.4922222222222222,0.2288888888888889,0.6977777777777778,-1.370347196473448,-19.220788015490463,4.183614509949327
1588960377.5535977,0.937355497878301,-2.1993018992295967,-9.467031887282165,-0.4922222222222222,0.2288888888888889,0.6977777777777778,-0.29036635356157037,-11.714921157252915,1.1056691076504759
1588960377.5635977,0.10629609303541088,-2.0909941199529594,-9.7275147001176,-0.4922222222222222,0.2288888888888889,0.6977777777777778,-0.0015533124264994203,-6.475297269044819,0.13069547889716449
1588960377.5735977,-0.3939577198611173,-1.998526348173867,-9.309221201599788,-0.4922222222222222,0.2288888888888889,0.6977777777777778,-0.3430261943479981,-3.8076325099986814,1.7257889069573242
1588960377.5835977,-0.36654884618477124,-1.9961209294846023,-9.343451153815229,-0.4922222222222222,0.2288888888888889,0.6977777777777778,-0.8340697113451797,-4.40412780413283,4.820697314464903
1588960377.5935977,0.06747215440952092,-2.1495506560878854,-9.362808971620385,-0.48693507781507483,0.2288888888888889,0.6887141016512393,-1.5498598184314922,-7.104285074000611,10.426266402197133
1588960377.6035976,0.3437854686757429,-2.22,-9.425028374940593,-0.4844444444444445,0.2288888888888889,0.6844444444444444,-1.9844636716893573,-7.831920410388303,15.469991403651003
1588960377.6135976,0.38368385345997286,-2.102106512890095,-9.463683853459973,-0.4844444444444445,0.2288888888888889,0.6844444444444444,-1.736844894843962,-4.97042486431479,17.792740841248303
1588960377.6235976,0.5462406227883936,-1.884699221514508,-9.538355272469921,-0.4844444444444445,0.2288888888888889,0.6844444444444444,-1.382342533616419,-1.2638623496107573,20.018444798301488
1588960377.6335976,1.2174545519419122,-2.4080959092287655,-9.532665334594045,-0.4844444444444445,0.2288888888888889,0.6844444444444444,-1.6958916115105347,-1.6000749290849732,20.291708293936097
1588960377.6435976,1.4211988696235272,-2.5288645943098,-9.536466855062745,-0.4801332077359475,0.2245776521803919,0.6966596151185193,-1.9337535324264776,-2.6391925711275026,19.041211143308747
1588960377.6535976,1.1075105127620042,-2.3127336440981843,-9.575453271180363,-0.4777777777777778,0.2222222222222222,0.7033333333333334,-1.335251165368191,-2.072481011832969,14.988755826840956
1588960377.6635976,0.8119926199261993,-2.1978545071165,-9.659859427165701,-0.4777777777777778,0.2222222222222222,0.7033333333333334,-0.9812423124231242,-1.7839241785274995,12.949953874538746
1588960377.6735976,0.5587215180599312,-2.1660795662685914,-9.618721518059932,-0.4777777777777778,0.2222222222222222,0.7033333333333334,-0.7717506777053265,-1.9727452560627152,11.081764231811855
1588960377.6835976,0.5709109513170494,-2.20436438052682,-9.435995907102491,-0.4777777777777778,0.2222222222222222,0.7033333333333334,-0.978416067438935,-3.03866426975574,10.510791966280532
1588960377.6935976,0.6266152757020372,-2.2033847242979627,-9.316769448595926,-0.4833162030117903,0.23329907269024708,0.7097948294396812,-1.5923046291197986,-4.040381892550932,10.541345473137733
1588960377.7035975,0.41203067420068085,-2.1867897378303445,-9.389261573017935,-0.4844444444444445,0.23555555555555555,0.7111111111111111,-1.3572434457586073,-2.927819990874952,10.603782069280173
1588960377.7135975,0.23796415405129814,-2.1445509451721705,-9.554071691897404,-0.4844444444444445,0.23555555555555555,0.7111111111111111,-1.4090565926739351,-2.1463325554945487,11.234280629853322
1588960377.7235975,0.41396946564885495,-2.1951908396946567,-9.358435114503816,-0.4844444444444445,0.23555555555555555,0.7111111111111111,-2.4723282442748094,-5.459446564885496,12.634780534351146
1588960377.7335975,0.618741429970617,-2.193009576667755,-9.388932963325715,-0.4844444444444445,0.23555555555555555,0.7111111111111111,-2.3440492708673415,-6.230591604091849,13.449042333224508
1588960377.7435975,0.7599675577033558,-2.2499675577033558,-9.392866412084755,-0.4558884645857036,0.2241331636120592,0.7044480491440717,-1.6610329154134704,-3.867461812713325,13.69645753776486
1588960377.7535975,0.7776718844590504,-2.26,-9.413015653377151,-0.4511111111111111,0.2222222222222222,0.7033333333333334,-1.4825845368848916,-3.365576083196402,13.583609897950359
1588960377.7635975,0.8273680974049932,-2.26,-9.575263805190014,-0.4511111111111111,0.2222222222222222,0.7033333333333334,-0.9004888697577174,-2.809202435124831,12.792753043906039
1588960377.7735975,1.0148860497237568,-2.3327572513812154,-9.544171270718232,-0.4511111111111111,0.2222222222222222,0.7033333333333334,-0.08562456837016574,-1.5856245683701657,10.674195010359115
1588960377.7835975,1.2507144551636882,-2.42082713901629,-9.585300885655544,-0.4511111111111111,0.2222222222222222,0.7033333333333334,0.3404609164953345,-1.3977912976435236,9.035947631662186
1588960377.7935975,1.0323990208078335,-2.380278550498869,-9.439550832684247,-0.4462693437846436,0.23384246380574408,0.7294788768962576,0.9357590593820704,0.041216942991728844,5.379156466748266
1588960377.8035975,0.86073550044462,-2.3015658531765633,-9.288339294536113,-0.4455555555555555,0.23555555555555555,0.7333333333333333,0.667334008497184,-0.700474261436617,2.5137906333366264
1588960377.8135974,0.6495770433379282,-2.2499253605890464,-9.390348317251117,-0.4455555555555555,0.23555555555555555,0.7333333333333333,0.4998445012271795,-0.5927392579766668,1.0294617641125643
1588960377.8235974,0.4897555935301832,-2.210244406469817,-9.534877796765091,-0.4455555555555555,0.23555555555555555,0.7333333333333333,0.31555508087270995,-0.03506885109088742,0.1295826213090649
1588960377.8335974,0.4952307161969172,-2.204769283803083,-9.463691459150676,-0.4455555555555555,0.23555555555555555,0.7333333333333333,0.008651857384395667,0.3634641901541391,-0.03269197623073261
1588960377.8435974,0.5024476100292313,-2.21,-9.417342830087694,-0.4478606685239317,0.24385396224170977,0.7208857233041019,-0.05783739552884021,0.8583926880480877,0.10373008357692783
1588960377.8535974,0.526245805274656,-2.2037541947253443,-9.488737415823968,-0.4511111111111111,0.25555555555555554,0.7033333333333334,0.3592176977995991,1.460753980766199,0.21096371703340014
1588960377.8635974,0.5515434010512857,-2.207181133683762,-9.600535871572667,-0.4511111111111111,0.25555555555555554,0.7033333333333334,0.5897641710470237,1.580117914476488,0.09773582895297628
1588960377.8735974,0.5709243496801706,-2.204537825159915,-9.65092434968017,-0.4511111111111111,0.25555555555555554,0.7033333333333334,0.5908614072494669,1.2211140724946694,0.09663859275053305
1588960377.8835974,0.5694945897822216,-2.2035018034059264,-9.624981965940739,-0.4511111111111111,0.25555555555555554,0.7033333333333334,0.5406137287129616,0.652978473268502,0.03745491485184678
1588960377.8935974,0.5465455104708687,-2.2134544895291315,-9.546182041883474,-0.45610092931985635,0.25325256253613465,0.7064039906925612,0.3704566426575757,-0.004543357342424309,-0.125
1588960377.9035974,0.5149845626072042,-2.22,-9.432445969125215,-0.4655555555555556,0.2488888888888889,0.7122222222222222,0.08591337907375643,-1.070819039451115,-0.20317324185248714
1588960377.9135973,0.525909118412295,-2.2135227203969263,-9.522500151267623,-0.4655555555555556,0.2488888888888889,0.7122222222222222,-0.09943199007684395,-1.522017002480789,-0.290482997519211
1588960377.9235973,0.54,-2.2303844765844048,-9.525256919190518,-0.4655555555555556,0.2488888888888889,0.7122222222222222,-0.14503234044915747,-2.476756169669378,-0.39743531910168506
1588960377.9335973,0.5081528951596005,-2.2293842983865337,-9.463460745966334,-0.4655555555555556,0.2488888888888889,0.7122222222222222,-0.3903925403366627,-4.563029309562059,-0.7028925403366627
1588960377.9435973,0.4025289128758674,-2.22,-9.388352608583912,-0.4655555555555556,0.2531928381735629,0.7215474456723493,-0.7056990490876381,-6.564893343613467,-1.018199049087638
1588960377.9535973,0.4873465013658332,-2.2270748056314353,-9.395374028157176,-0.4655555555555556,0.25555555555555554,0.7266666666666667,-0.48469478882118094,-3.602902395461231,-0.5318895776423619
1588960377.9635973,0.5068833317575873,-2.2167533327030347,-9.522596672024203,-0.4655555555555556,0.25555555555555554,0.7266666666666667,-0.20941665878793608,-0.09741656424316902,-0.02272915287888816
1588960377.9735973,0.495487391123192,-2.21,-9.552563044384039,-0.4655555555555556,0.25555555555555554,0.7266666666666667,-0.125,0.8628152219202,0.15929619451995
1588960377.9835973,0.496959200481485,-2.2039184009629698,-9.533040799518515,-0.4655555555555556,0.25555555555555554,0.7266666666666667,-0.029975015046406275,0.7880099939814375,0.1875
1588960377.9935973,0.4903161329152016,-2.1906322658304034,-9.539683867084797,-0.4655555555555556,0.25555555555555554,0.7266666666666667,0.17762084639994935,0.8710483385599798,0.1875
1588960378.0035973,0.49,-2.1973831517699773,-9.49,-0.4655555555555556,0.2411111111111111,0.7266666666666667,0.453855301437642,1.252921205750568,0.17406590431292604
1588960378.0135972,0.49,-2.2042400666851902,-9.498544040011113,-0.4655555555555556,0.2411111111111111,0.7266666666666667,0.5,1.455300083356488,0.3125
1588960378.0235972,0.503007665959876,-2.2443358886532923,-9.493984668080248,-0.4655555555555556,0.2411111111111111,0.7266666666666667,0.4458013918338498,1.7709930408307508,0.3395993040830751
1588960378.0335972,0.5247401330376941,-2.245259866962306,-9.450519733924613,-0.4655555555555556,0.2411111111111111,0.7266666666666667,0.3157483370288248,2.1101870842572064,0.375
1588960378.0435972,0.5362223838302781,-2.228111191915139,-9.39922311106653,-0.4605187339959264,0.2411111111111111,0.727925872056574,0.125,1.8382040399227626,0.35138989893923817
1588960378.0535972,0.5238388928885689,-2.231516678665707,-9.290805535557155,-0.4388888888888889,0.2411111111111111,0.7333333333333333,0.19697924166066716,0.7790276777857772,0.2739930805535557
1588960378.0635972,0.5178417628733737,-2.213525288620121,-9.503164742532528,-0.4388888888888889,0.2411111111111111,0.7333333333333333,0.7684338922484881,1.2329118563313175,0.3125
1588960378.0735972,0.5219972937708404,-2.2139945875416807,-9.636005412458319,-0.4388888888888889,0.2411111111111111,0.7333333333333333,0.8000591987628667,1.5125253708983715,0.2000253708983714
1588960378.0835972,0.53,-2.220863344311862,-9.61543167215593,-0.4388888888888889,0.2411111111111111,0.7333333333333333,0.3394795097456941,0.9521151665676799,0.010791803898277635
1588960378.0935972,0.53,-2.2144047931099045,-9.592380827560381,-0.4442725249121055,0.2357274750878945,0.7176718467203395,-0.055059913873806404,-0.09300926792735442,-0.1525299569369032
1588960378.1035972,0.5236590578178574,-2.200977173453572,-9.54463623127143,-0.4511111111111111,0.2288888888888889,0.6977777777777778,-0.16463088863839181,-1.321594218214269,-0.26676177727678363
1588960378.1135972,0.5261402650641698,-2.214561060256679,-9.54228053012834,-0.4511111111111111,0.2288888888888889,0.6977777777777778,-0.1875,-1.9945132532084877,-0.38925331330212193
1588960378.1235971,0.5205218723149913,-2.220521872314991,-9.497870297732453,-0.4511111111111111,0.2288888888888889,0.6977777777777778,-0.21711914901565244,-2.3355957450782623,-0.40788085098434756
1588960378.1335971,0.49220198301198204,-2.2144495042470043,-9.41107822239447,-0.4511111111111111,0.2288888888888889,0.6977777777777778,-0.23609529922811098,-2.583428204631334,-0.44452350385944517
1588960378.1435971,0.43801731098407776,-2.2279956722539804,-9.323028130349126,-0.4511111111111111,0.2288888888888889,0.6977777777777778,-0.19376352420631077,-2.8374188547621353,-0.6561823789684462
1588960378.153597,0.4515495370559204,-2.2245070767222743,-9.442957539666354,-0.4577777777777778,0.25555555555555554,0.7033333333333334,0.28433077048578537,-1.7896077211730637,-0.38116154097157073
1588960378.163597,0.5000054461446566,-2.219994553855343,-9.50004901530191,-0.4577777777777778,0.25555555555555554,0.7033333333333334,0.12493192319179214,-0.21832451994870083,-0.2186989423938441
1588960378.173597,0.5068497211006605,-2.2068497211006606,-9.58369944220132,-0.4577777777777778,0.25555555555555554,0.7033333333333334,-0.09844621560435969,0.542810756879128,-0.06593227063738417
1588960378.183597,0.5030017876296031,-2.2030017876296033,-9.554991061851984,-0.4577777777777778,0.25555555555555554,0.7033333333333334,-0.33126117268501964,0.46247765462996065,0.0625
1588960378.193597,0.51,-2.2073500979339102,-9.51735009793391,-0.45277240720849743,0.25025575142337636,0.7033333333333334,-0.3418762241738801,0.3418762241738801,0.09562377582611992
1588960378.203597,0.5047600981923678,-2.2078598527114486,-9.51,-0.4388888888888889,0.23555555555555555,0.7033333333333334,-0.15175184110689577,0.2827493862977014,0.1875
1588960378.213597,0.48447668316089365,-2.23,-9.532093267356425,-0.4388888888888889,0.23555555555555555,0.7033333333333334,0.19404146048882892,0.375,0.1184585395111711
1588960378.223597,0.4741384525319543,-2.23,-9.55,-0.4388888888888889,0.23555555555555555,0.7033333333333334,0.25,0.045287954922431484,-0.04740401502585617
1588960378.233597,0.47864076662284644,-2.23,-9.502475783574345,-0.4388888888888889,0.23555555555555555,0.7033333333333334,0.14199041721441913,-0.5115287483567426,-0.1520023956963952
1588960378.243597,0.493473419266265,-2.23,-9.474734192662648,-0.4481513402655955,0.23555555555555555,0.7091223654437749,0.0,-0.5901580733735032,-0.12237338875753184
1588960378.253597,0.4950987978444107,-2.2250987978444106,-9.54490120215559,-0.4655555555555556,0.23555555555555555,0.72,-0.03063251347243333,0.09313251347243333,-0.03063251347243333
1588960378.263597,0.49455980983105524,-2.2245598098310553,-9.55911961966211,-0.4655555555555556,0.23555555555555555,0.72,-0.11949762288819085,0.15349881144409544,-0.005502377111809148
1588960378.273597,0.4952803456800382,-2.23,-9.485046222240689,-0.4655555555555556,0.23555555555555555,0.72,-0.010512963001433423,0.2759935184992833,0.09199783949976109
1588960378.283597,0.49,-2.2266774569728165,-9.39,-0.4655555555555556,0.23555555555555555,0.72,0.1875,0.4788294695994853,0.14576589391989705
1588960378.293597,0.49,-2.22,-9.386019419688648,-0.4640075521011405,0.23666127230870923,0.7155771329873853,0.2372572538919153,0.6875,0.17506068652702117
1588960378.303597,0.4922374264004473,-2.22,-9.372237426400448,-0.4577777777777778,0.2411111111111111,0.6977777777777778,0.46546783000559194,0.6035965099832242,0.08304825499161211
1588960378.313597,0.5,-2.2237188557990555,-9.45065826018205,-0.4577777777777778,0.2411111111111111,0.6977777777777778,0.4462857562795224,0.26601430251180896,-0.03925715125590447
1588960378.323597,0.49406755196304847,-2.2260450346420324,-9.583842378752887,-0.4577777777777778,0.2411111111111111,0.6977777777777778,0.25,0.23693706697459585,0.0
1588960378.333597,0.4713645713048499,-2.210909714203233,-9.636816000288684,-0.4577777777777778,0.2411111111111111,0.6977777777777778,0.25,0.4261285724595843,0.0
1588960378.343597,0.49120482443925534,-2.2124096488785105,-9.591566228925211,-0.45697456148494087,0.2404417642004137,0.7004551654205675,0.1649095417639624,0.17243969450930827,-0.1573793890186165
1588960378.353597,0.4993825186009318,-2.2293825186009317,-9.528765037201863,-0.4511111111111111,0.23555555555555555,0.72,0.0038592587441763433,0.06635925874417635,0.05671111188373548
1588960378.363597,0.47717319670484226,-2.218480409885473,-9.498480409885474,-0.4511111111111111,0.23555555555555555,0.72,0.03666239702632107,0.15216495881052844,-0.08966495881052844
1588960378.373597,0.47,-2.235168730650155,-9.503090557275542,-0.4511111111111111,0.23555555555555555,0.72,-0.14220684984520124,0.0625,0.0
1588960378.383597,0.478014418421147,-2.2240072092105736,-9.425956744736558,-0.4511111111111111,0.23555555555555555,0.72,-0.02504505756608443,0.11259011513216885,0.0
1588960378.393597,0.49,-2.224094340929556,-9.398858488605667,-0.45307966413459244,0.23555555555555555,0.72,-0.11786555378541248,0.29823110757082494,0.0
1588960378.4035969,0.49365453283918026,-2.2136545328391803,-9.449236262713441,-0.4577777777777778,0.23555555555555555,0.72,-0.22715916975512346,0.5853408302448766,0.022840830244876546
1588960378.4135969,0.5016519930160853,-2.21669601396783,-9.53138786730562,-0.4577777777777778,0.23555555555555555,0.72,-0.21847486905159924,0.5837001745978677,0.07282495635053308
1588960378.4235969,0.5244920237179647,-2.20966134914531,-9.656185277991415,-0.4577777777777778,0.23555555555555555,0.72,-0.3146165678418141,0.16365798744634927,0.06461656784181408
1588960378.4335968,0.5290037163100861,-2.22,-9.587011148930257,-0.4577777777777778,0.23555555555555555,0.72,-0.38745354612392335,-0.4061338653098083,-0.04581784870797443
1588960378.4435968,0.5139254269422461,-2.222355256165348,-9.517438633784812,-0.4577777777777778,0.23555555555555555,0.72,-0.5759321632219238,-1.0834153225227297,-0.14462713471123048
1588960378.4535968,0.5440469385116987,-2.240428163107019,-9.421049796762563,-0.4577777777777778,0.23555555555555555,0.72,-0.19941326860376601,-1.723497443373598,-0.2952346925584936
1588960378.4635968,0.5061911905086595,-2.25,-9.39690440474567,-0.4577777777777778,0.23555555555555555,0.72,-0.024021789951491304,-2.951306228205178,-0.5191307397089479
1588960378.4735968,0.4101632950726108,-2.253278901642463,-9.459673409854778,-0.4577777777777778,0.23555555555555555,0.72,-0.08299313526539412,-3.6577402657112055,-0.6065480531422411
1588960378.4835968,0.41936810999239116,-2.2453159450038043,-9.5,-0.4577777777777778,0.23555555555555555,0.72,-0.14794383593155558,-1.3844657423955549,-0.151893148479111
1588960378.4935968,0.47,-2.217724811199116,-9.51137594400442,-0.45499699146558603,0.2340387630216328,0.7182304087104234,-0.20171993000552588,0.0,0.09656013998894825
1588960378.5035968,0.47,-2.201440406472545,-9.554279796763728,-0.4455555555555555,0.2288888888888889,0.7122222222222222,-0.2767487297732977,-0.026748729773297692,0.0
1588960378.5135968,0.4651181848491761,-2.194881815150824,-9.58440907575412,-0.4455555555555555,0.2288888888888889,0.7122222222222222,-0.3430113446926492,-0.0472443276536754,0.0152556723463246
1588960378.5235968,0.45039798550546617,-2.209602014494534,-9.658010072472669,-0.4455555555555555,0.2288888888888889,0.7122222222222222,-0.4350125905908365,-0.0012437047045817454,0.061256295295418255
1588960378.5335968,0.48850646167120976,-2.21850646167121,-9.50298707665758,-0.4455555555555555,0.2288888888888889,0.7122222222222222,-0.4552217951483537,-0.4011089757417685,0.017721795148353696
1588960378.5435967,0.5119087444420919,-2.2361825111158162,-9.440912555579082,-0.4493730444397393,0.2288888888888889,0.7173122074011339,-0.5238593055261487,-0.8278040969722634,0.014781388947702735
1588960378.5535967,0.541800045861041,-2.226228584531726,-9.353771415468273,-0.4655555555555556,0.2288888888888889,0.7388888888888889,-0.5666070200150686,-2.427144413142464,-0.36267893995479417
1588960378.5635967,0.5898887869754643,-2.239968224850133,-9.340031775149868,-0.4655555555555556,0.2288888888888889,0.7388888888888889,-0.43779789203000624,-4.058726700953255,-0.7491063239099813
1588960378.5735967,0.41392531405954225,-2.21,-9.574813285148855,-0.4655555555555556,0.2288888888888889,0.7388888888888889,-0.524533212872139,-6.736566425744278,-1.049066425744278
1588960378.5835967,0.3963534876249883,-2.208176743812494,-9.54,-0.4655555555555556,0.2288888888888889,0.7388888888888889,-0.39191859531235357,-6.232034816014563,-0.8066278929685304
1588960378.5935967,0.3851248209672454,-2.202562410483623,-9.54,-0.4655555555555556,0.2288888888888889,0.7388888888888889,-0.25156026209056714,-5.2144369001566115,-0.5960903931358508
1588960378.6035967,0.4149197840487039,-2.217459892024352,-9.45270053987824,-0.4655555555555556,0.24634878091324086,0.7078490808455966,-0.07837567484780028,-2.5675134969560056,-0.28175134969560056
1588960378.6135967,0.4152490654794405,-2.2315836448401867,-9.449501869041118,-0.4655555555555556,0.2488888888888889,0.7033333333333334,-0.049488901255827625,-1.519795560502331,-0.29270443949766894
1588960378.6235967,0.3894320672023375,-2.239432067202338,-9.494888604821037,-0.4655555555555556,0.2488888888888889,0.7033333333333334,-0.3018512600438276,-1.53626050036523,-0.17685126004382762
1588960378.6335967,0.39072162728322796,-2.23,-9.412144325456646,-0.4655555555555556,0.2488888888888889,0.7033333333333334,-0.04458779537579044,0.11172644335245405,0.04020610231210478
1588960378.6435966,0.429653627664036,-2.229307255328072,-9.419653627664037,-0.46528615484980584,0.24842705910760357,0.7033333333333334,0.2543296541995501,0.7673186167982005,0.1875
1588960378.6535966,0.42165808837546226,-2.2133161767509244,-9.411658088375463,-0.459067402069804,0.23776634005617192,0.7033333333333334,0.3542738953067216,1.1670955812268864,0.1875
1588960378.6635966,0.327897564469914,-2.167897564469914,-9.529502148997134,-0.4577777777777778,0.23555555555555555,0.7033333333333334,0.6793741045845272,3.604427829512894,0.6681366404011462
1588960378.6735966,0.20549561787089932,-2.0256656928602,-9.631671535699,-0.4577777777777778,0.23555555555555555,0.7033333333333334,0.6072947098118755,7.503006317336856,1.8353375448912377
1588960378.6835966,0.2941295926751966,-2.0512604765817586,-9.551956802441602,-0.4577777777777778,0.23555555555555555,0.7033333333333334,0.5222840122080057,9.089136048832023,3.0603239816879917
1588960378.6935966,0.5947861388446447,-2.1983201895808246,-9.454611708946818,-0.4577777777777778,0.23411867794137325,0.7033333333333334,0.04902927236704091,6.589934345985005,3.648969542752807
1588960378.7035966,0.7374923717059639,-2.35,-9.426449375866852,-0.4577777777777778,0.2222222222222222,0.7033333333333334,-0.18587031900138695,-0.026456310679611628,2.133963245492372
1588960378.7135966,0.5955186289120715,-2.3331050670640834,-9.462413561847988,-0.4577777777777778,0.2222222222222222,0.7033333333333334,-0.407330476900149,-2.3599152384500743,0.6142371460506706
1588960378.7235966,0.5049452447689199,-2.215978097907568,-9.482989048953785,-0.4577777777777778,0.2222222222222222,0.7033333333333334,-0.16881844403885013,-2.6049495632618473,-0.39368155596114984
1588960378.7335966,0.5391208200247702,-2.229648328009908,-9.489824164004954,-0.4577777777777778,0.2222222222222222,0.7033333333333334,-0.12609897496903721,-3.416619475588293,-0.4364010250309628
1588960378.7435966,0.549901143632487,-2.1804942818375657,-9.499901143632487,-0.4577777777777778,0.2222222222222222,0.7033333333333334,-0.18688214770304323,-7.026664566776507,-0.994439329327389
1588960378.7535965,0.380367934419979,-2.20018396720999,-9.589080163950053,-0.4577777777777778,0.2288888888888889,0.7122222222222222,-0.06709918024973788,-9.11235225431322,-1.435200409875131
1588960378.7635965,0.3974395161290323,-2.21,-9.555362903225806,-0.4577777777777778,0.2288888888888889,0.7122222222222222,-0.3605090725806452,-8.581527217741936,-1.3445060483870968
1588960378.7735965,0.3783828008783736,-2.2123234398243254,-9.56514840263512,-0.4577777777777778,0.2288888888888889,0.7122222222222222,-0.44191400439186795,-9.14521498902033,-1.452021498902033
1588960378.7835965,0.3418114425089785,-2.2254343275269357,-9.442754229964086,-0.4577777777777778,0.2288888888888889,0.7122222222222222,-0.2273569686377691,-9.477820296145499,-1.4547139372755382
1588960378.7935965,0.34986671532005603,-2.2496001459601684,-9.410533138719776,-0.4577777777777778,0.2288888888888889,0.7122222222222222,-0.12666605849929902,-8.823329380245443,-1.253332116998598
1588960378.8035965,0.3144872821950731,-2.238162427398358,-9.361025435609854,-0.4577777777777778,0.23555555555555555,0.7244444444444444,0.14156068495894253,-7.427091678349689,-1.0790606849589426
1588960378.8135965,0.29077100301781483,-2.2292289969821852,-9.416553525651427,-0.4577777777777778,0.23555555555555555,0.7244444444444444,-0.06972815329201415,-5.312212009605088,-0.8533155401239576
1588960378.8235965,0.31488582934909837,-2.2051141706509014,-9.575114170650902,-0.4577777777777778,0.23555555555555555,0.7244444444444444,-0.25,-1.637844198226437,-0.25142713313627074
1588960378.8335965,0.33,-2.1911033731694034,-9.56,-0.4577777777777778,0.23555555555555555,0.7244444444444444,-0.24655195884561373,0.07629216461754507,-0.048707835382454934
1588960378.8435965,0.33,-2.2031238357263634,-9.56,-0.4577777777777778,0.23555555555555555,0.7244444444444444,-0.20898801335511422,0.22654794657954316,0.10154794657954316
1588960378.8535964,0.33,-2.21,-9.506144614461446,-0.4450619228589526,0.23555555555555555,0.725940427376071,-0.1875,0.2704254800480048,0.1033509600960096
1588960378.8635964,0.3498305135320622,-2.2199152567660314,-9.499830513532062,-0.4388888888888889,0.23555555555555555,0.7266666666666667,-0.001588935636917005,0.18802964521230567,0.0005296452123056683
1588960378.8735964,0.36194851615532947,-2.2361029676893414,-9.520257419223352,-0.4388888888888889,0.23555555555555555,0.7266666666666667,-0.1753217740291909,-0.19806935582485458,-0.0625
1588960378.8835964,0.3685239939172559,-2.2229520121654884,-9.487380030413721,-0.4388888888888889,0.23555555555555555,0.7266666666666667,-0.13422503801715083,-0.444649771897095,-0.0625
1588960378.8935964,0.37,-2.22,-9.435091672189088,-0.4388888888888889,0.23555555555555555,0.7266666666666667,-0.125,-0.7245416390545616,-0.11863540976364038
1588960378.9035964,0.3274660885034467,-2.22,-9.327918612408272,-0.44456007708842926,0.23555555555555555,0.7209954784671262,-0.01866522125861686,-0.8563347787413831,-0.125
1588960378.9135964,0.32376175473195606,-2.2179205849106522,-9.542873565982827,-0.4455555555555555,0.23555555555555555,0.72,0.12251827845787537,0.08601096707472522,-0.012996344308424926
1588960378.9235964,0.306777153745863,-2.21,-9.609668538762412,-0.4455555555555555,0.23555555555555555,0.72,-0.1532381406077625,-0.0625,-0.04838092969611875
1588960378.9335964,0.3338971921485785,-2.21,-9.524411231405686,-0.4455555555555555,0.23555555555555555,0.72,-0.25,-0.025963823607076844,0.01217872546430772
1588960378.9435964,0.34866455417656894,-2.21,-9.465341783293725,-0.4455555555555555,0.23555555555555555,0.72,-0.25,0.11248019540533405,0.05832673180177801
1588960378.9535964,0.38417879286346956,-2.21,-9.42860706904551,-0.4388888888888889,0.2411111111111111,0.7333333333333333,-0.0450883630688768,0.11785345227550718,-0.07120581846556161
1588960378.9635963,0.4090609418282548,-2.211252077562327,-9.420939058171745,-0.4388888888888889,0.2411111111111111,0.7333333333333333,0.06054362880886427,-0.37119113573407203,-0.1308691135734072
1588960378.9735963,0.3661026407573493,-2.2444410563029398,-9.454169207772795,-0.4388888888888889,0.2411111111111111,0.7333333333333333,0.034743398106626806,-2.5001905829596414,-0.3385575485799701
1588960378.9835963,0.2825092177379173,-2.211003687095167,-9.479247234678626,-0.4388888888888889,0.2411111111111111,0.7333333333333333,0.24372695565520677,-4.381042600896861,-0.4952952167414051
1588960378.9935963,0.30058247187979564,-2.196278352080136,-9.493721647919864,-0.4388888888888889,0.2411111111111111,0.7333333333333333,0.3357602994991484,-2.808054309516181,-0.37135955075127747
1588960379.0035963,0.2847759956748964,-2.2068160028834023,-9.516816002883402,-0.4547706693898801,0.2411111111111111,0.6959644380368835,0.375,0.4073504234997296,0.0028000540637952986
1588960379.0135963,0.3021911682504192,-2.2043823365008386,-9.553147009502515,-0.4577777777777778,0.2411111111111111,0.6888888888888889,0.19522079373951928,1.7738960313024035,0.16608440469536054
1588960379.0235963,0.3305831760016782,-2.2218711978183348,-9.581288021816656,-0.4577777777777778,0.2411111111111111,0.6888888888888889,0.01169498636458989,2.7032200545416405,0.33588997272917975
1588960379.0335963,0.4185693308160268,-2.229869939165093,-9.501300608349066,-0.4577777777777778,0.2411111111111111,0.6888888888888889,0.061687119781833444,2.5032515208726664,0.4358742395636669
1588960379.0435963,0.38651028773182905,-2.2216275719329572,-9.466510287731829,-0.4577777777777778,0.2411111111111111,0.6888888888888889,0.0625,1.1394804391055557,0.2805169737429487
1588960379.0535963,0.3665798947659928,-2.2334201052340075,-9.426449736914982,-0.4577777777777778,0.23738330410166467,0.709764608141789,-0.1471891442813625,0.3298082248684575,0.08224868457491
1588960379.0635962,0.36992899733249646,-2.2300710026675037,-9.390142005335008,-0.4577777777777778,0.23555555555555555,0.72,-0.18794376667189705,-0.7442310332653381,-0.12411246665620589
1588960379.0735962,0.3618605285725423,-2.23,-9.536510485694238,-0.4577777777777778,0.23555555555555555,0.72,-0.1875,-2.0217924105402667,-0.277615089264832
1588960379.0835962,0.3082145005011694,-2.2008927497494155,-9.54821450050117,-0.4577777777777778,0.23555555555555555,0.72,-0.05134062813230872,-4.107137487470765,-0.6305796859338456
1588960379.0935962,0.29420080187103237,-2.2078995990644836,-9.534200801871032,-0.4577777777777778,0.23555555555555555,0.72,0.03624498830604744,-4.4574799532241896,-0.6743724941530237
1588960379.1035962,0.2839353879371805,-2.22,-9.499016153015704,-0.4511111111111111,0.2411111111111111,0.7122222222222222,0.125,-3.634177734096511,-0.46310573808893324
1588960379.1135962,0.3181097101419754,-2.22,-9.490472572464506,-0.4511111111111111,0.2411111111111111,0.7122222222222222,0.125,-2.0856537591917386,-0.14272146741898034
1588960379.1235962,0.36084448499594485,-2.15,-9.483244120032442,-0.4511111111111111,0.2411111111111111,0.7122222222222222,-0.125,-1.0369462185725873,-0.2605560624493106
1588960379.1335962,0.3632968552010137,-2.1604271141317564,-9.410744793866554,-0.4511111111111111,0.2411111111111111,0.7122222222222222,-0.125,-1.5678389266469557,-0.40292976999577623
1588960379.1435962,0.3149809929731598,-2.2355851220417513,-9.416113223002982,-0.4511111111111111,0.2411111111111111,0.7122222222222222,-0.125,-2.507314025521893,-0.6042458626118343
1588960379.1535962,0.25381883976026237,-2.276909419880131,-9.415636473293377,-0.4486869296074317,0.2328688939986011,0.7185250941317887,-0.015911832334426473,-3.3784042934147536,-0.7227279580836066
1588960379.1635962,0.2307957840843183,-2.2492042159156815,-9.431591568168637,-0.4455555555555555,0.2222222222222222,0.7266666666666667,0.19247365052698945,-2.5116847663046737,-0.45134222315553685
1588960379.1735961,0.2749556868537666,-2.212035450516987,-9.596813884785819,-0.4455555555555555,0.2222222222222222,0.7266666666666667,0.25,-0.12057791728212708,-0.03152695716395862
1588960379.1835961,0.3,-2.2,-9.59763017925082,-0.4455555555555555,0.2222222222222222,0.7266666666666667,0.11315089625409325,0.16972634438113987,0.11907544812704662
1588960379.1935961,0.3,-2.2,-9.557934735287994,-0.4455555555555555,0.2222222222222222,0.7266666666666667,-0.08532632356003103,-0.12798948534004656,0.019836838219984484
1588960379.203596,0.36787444489301574,-2.1908502220427937,-9.487874444893016,-0.4455555555555555,0.23555555555555555,0.7266666666666667,-0.37234305611626967,-1.320347194186516,-0.3231277755349213
1588960379.213596,0.3255419862737182,-2.2077832054905127,-9.445541986273717,-0.4455555555555555,0.23555555555555555,0.7266666666666667,-0.3194274828421477,-3.966125857892612,-0.534790068631409
1588960379.223596,0.2773870145659442,-2.2355677912604337,-9.491135582520867,-0.4455555555555555,0.23555555555555555,0.7266666666666667,-0.046168841037151354,-6.869279126043347,-0.9353636225479882
1588960379.233596,0.2005577280499591,-2.25,-9.41,-0.4455555555555555,0.23555555555555555,0.7266666666666667,0.11802839937551111,-7.891695784700023,-1.0971135975020445
1588960379.243596,0.2067941416995019,-2.25,-9.41,-0.4455555555555555,0.23555555555555555,0.7266666666666667,0.04007322875622629,-5.981794104527545,-0.7852929150249052
1588960379.253596,0.23380055272274336,-2.210332412128761,-9.473468140593983,-0.44026654383939035,0.24613357898788596,0.7213776549505014,-0.04958448483904869,-1.1819946673932504,-0.17873963644856172
1588960379.263596,0.23280161911498862,-2.2071983808850115,-9.504396761770023,-0.4388888888888889,0.2488888888888889,0.72,0.07246964159396369,0.7122976106264246,0.07246964159396369
1588960379.273596,0.28,-2.21,-9.597123265643663,-0.4388888888888889,0.2488888888888889,0.72,-0.18493148718184324,1.5445204102729027,0.23972594872737296
1588960379.283596,0.28,-2.2100376222723854,-9.529811888638074,-0.4388888888888889,0.2488888888888889,0.72,-0.125,1.122178329571106,0.00023513920240782543
1588960379.293596,0.28,-2.2179275771256584,-9.490362114371708,-0.4388888888888889,0.2488888888888889,0.72,-0.125,0.5304317155756209,0.04954735703536493
1588960379.303596,0.27111181364870884,-2.2244440931756455,-9.444447254594836,-0.4364199482357525,0.24000070253759775,0.7229627287837637,0.013877911738924248,0.3194488353044303,0.006948835304430294
1588960379.313596,0.25845897249171934,-2.2307705137541403,-9.408475651295545,-0.43333333333333335,0.2288888888888889,0.7266666666666667,0.1875,0.25481571096337713,-0.05768428903662289
1588960379.323596,0.2374738244812488,-2.2393684561203124,-9.51,-0.43333333333333335,0.2288888888888889,0.7266666666666667,0.18355285075195127,0.34407719398438985,0.003947149248048734
1588960379.333596,0.19909246424351446,-2.2295462321217574,-9.509092464243514,-0.43333333333333335,0.2288888888888889,0.7266666666666667,0.125,0.9543024619508668,0.08802444315115603
1588960379.343596,0.18429853799622595,-2.222149268998113,-9.494298537996226,-0.43333333333333335,0.2288888888888889,0.7266666666666667,0.125,3.2658534380896955,0.5041036188561452
1588960379.353596,0.31400971607029865,-2.2093317139882838,-9.490668286011717,-0.4455555555555555,0.2488888888888889,0.7333333333333333,0.0625,8.891858963891327,1.2167375130125941
1588960379.363596,0.3653779265579392,-2.200770345573677,-9.499229654426323,-0.4455555555555555,0.2488888888888889,0.7333333333333333,0.0625,9.90852146312588,1.5912973811516402
1588960379.373596,0.37665394069347835,-2.2066539406934784,-9.57984728832174,-0.4455555555555555,0.2488888888888889,0.7333333333333333,0.14567425866847966,8.669211861304325,1.2923029653260814
1588960379.383596,0.3711910939012585,-2.1835732817037754,-9.55833765730881,-0.4455555555555555,0.2488888888888889,0.7333333333333333,-0.08777831558567284,5.137105517909003,0.8497216844143272
1588960379.393596,0.33248359073359074,-2.2175164092664095,-9.512483590733591,-0.4455555555555555,0.2488888888888889,0.7333333333333333,-0.17189551158301158,2.499015444015444,0.4373359073359073
1588960379.403596,0.3411860074490616,-2.237062002483021,-9.478813992550938,-0.4408475539002085,0.24339622029098404,0.7121473258842718,-0.4081875775943913,-0.0596381362740086,-0.040600124151026096
1588960379.413596,0.3841651418115279,-2.245694190301921,-9.458611619396157,-0.4388888888888889,0.2411111111111111,0.7033333333333334,-0.5711773787740164,-1.41750771957914,-0.32985475754803295
1588960379.423596,0.3683388346727899,-2.215282362227325,-9.568039968427094,-0.4388888888888889,0.2411111111111111,0.7033333333333334,-0.49480885835246846,-4.609013974598163,-0.741279330510907
1588960379.433596,0.31475005273149126,-2.2,-9.570650073824089,-0.4388888888888889,0.2411111111111111,0.7033333333333334,-0.21718782957182028,-9.029057688251424,-1.3156243408563595
1588960379.443596,0.27137752751471717,-2.2,-9.507066291272077,-0.4388888888888889,0.2411111111111111,0.7033333333333334,-0.08027738674174559,-12.029736690555414,-1.813058292807781
1588960379.4535959,0.24613260165527168,-2.1791989024829075,-9.469198902482908,-0.44736341009955616,0.2411111111111111,0.7195119647355164,-0.10583561982727599,-12.860842479309104,-1.894164380172724
1588960379.4635959,0.5980028820886666,-1.5864840213613631,-9.535020428922607,-0.4511111111111111,0.2411111111111111,0.7266666666666667,-0.25,-11.584730228024075,-1.9541726710180554
1588960379.4735959,0.9179884716453336,-1.0460639145545478,-9.33591828430957,-0.4511111111111111,0.2411111111111111,0.7266666666666667,-0.25,-12.473579087903705,-2.6208093159277785
1588960379.4835958,0.7882031193847481,-0.31775461798318116,-8.905619205060017,-0.4511111111111111,0.2411111111111111,0.7266666666666667,0.39114946452957666,-22.837746172644287,-7.7127641414504415
1588960379.4935958,0.5212164002724031,-0.2398736129471618,-8.976303328926813,-0.4511111111111111,0.2411111111111111,0.7266666666666667,0.8889218543444297,-21.50602266354204,-11.473242899491247
1588960379.5035958,0.3490356295600018,-0.3777149635199857,-9.213857481759993,-0.4388888888888889,0.2411111111111111,0.7333333333333333,0.3531175865001567,7.393497381495905,-12.489518989749788
1588960379.5135958,0.33782458085076905,-0.4561636875894878,-9.256888827305898,-0.4388888888888889,0.2411111111111111,0.7333333333333333,-0.4307018151586532,28.37974862592952,-13.648610341323726
1588960379.5235958,0.2810673227260186,-0.6209702933872896,-9.44,-0.4388888888888889,0.2411111111111111,0.7333333333333333,-0.25,36.79582308240596,-15.951751184125817
1588960379.5335958,0.49323185873264047,-0.8138471443024005,-9.44,-0.4388888888888889,0.2411111111111111,0.7333333333333333,-0.25,33.480752207302494,-18.784629931941506
1588960379.5435958,0.5289932167083184,-0.7910067832916815,-9.144269189575152,-0.4388888888888889,0.2411111111111111,0.7333333333333333,0.29362281328097106,28.047496429846483,-20.7595590860407
1588960379.5535958,0.5409502818326348,-0.7880994363347305,-9.142668376933083,-0.4388888888888889,0.23558072778661013,0.7333333333333333,0.772341107819049,19.436397962133256,-23.680420310015897
1588960379.5635958,0.5508085750902948,-0.8360107188628685,-9.228329255505068,-0.4388888888888889,0.2288888888888889,0.7333333333333333,1.1351071886286848,8.192735640219038,-27.090629733193524
1588960379.5735958,0.6290158882344884,-1.0311460758800164,-9.22344130940967,-0.4388888888888889,0.2288888888888889,0.7333333333333333,1.7438493014655525,-1.3011916175866327,-29.975397205862212
1588960379.5835958,0.6519048577293034,-1.1138097154586066,-9.323968285909768,-0.4388888888888889,0.2288888888888889,0.7333333333333333,2.188491065319757,-5.9583249486859575,-32.017851752726685
1588960379.5935957,0.6663946790189441,-1.0240133024526397,-9.30680266049053,-0.4388888888888889,0.2288888888888889,0.7333333333333333,2.0238081982302987,-5.762749420986994,-33.512333719342
1588960379.6035957,0.6921500019925876,-0.9960750009962938,-9.269624995018532,-0.4463138901065813,0.22011388744979787,0.7333333333333333,1.7610937313194914,-2.467187064121468,-34.962656418124574
1588960379.6135957,0.7,-1.1140544271346873,-9.355281009662788,-0.4511111111111111,0.21444444444444444,0.7333333333333333,1.797167718398738,4.568884342338789,-37.434517353579174
1588960379.6235957,0.7323129025279169,-1.2592516101116678,-9.434625805055834,-0.4511111111111111,0.21444444444444444,0.7333333333333333,1.6913266155203115,9.472786200469304,-39.14158061375626
1588960379.6335957,0.7202088133640553,-0.950162370391705,-9.194431523617512,-0.4511111111111111,0.21444444444444444,0.7333333333333333,1.857743645593318,16.26522672451037,-41.70635170650922
1588960379.6435957,0.716458750277963,-0.7812474983322215,-9.074164998888147,-0.4511111111111111,0.21444444444444444,0.7333333333333333,1.4934609183900378,19.669390704914388,-44.290492272626196
1588960379.6535957,0.7359939759036145,-0.7440060240963855,-9.075993975903614,-0.46266231593038826,0.21444444444444444,0.7395532128514056,1.8997552710843375,19.188064759036145,-47.87405873493976
1588960379.6635957,0.7679398380254532,-0.74,-9.28489214551999,-0.4655555555555556,0.21444444444444444,0.7411111111111112,2.5281639670908858,14.970772271500193,-51.468607790204395
1588960379.6735957,0.8661794670846394,-0.8169435736677115,-9.309617946708464,-0.4655555555555556,0.21444444444444444,0.7411111111111112,2.8630608346394983,10.419536148119121,-54.87344484717868
1588960379.6835957,0.9138726289029399,-0.8638726289029398,-9.39774525780588,-0.4655555555555556,0.21444444444444444,0.7411111111111112,3.149203930643374,8.385413271625056,-57.24847223127567
1588960379.6935956,0.9376453719155555,-0.8758817906385185,-9.315891349783705,-0.4655555555555556,0.21444444444444444,0.7411111111111112,3.2242611914907404,8.566134297888887,-59.21675361708333
1588960379.7035956,0.9557707081994692,-0.9261656655957535,-9.25,-0.4726086433549068,0.19584994024615482,0.7366227825115239,3.4303346312334124,9.993074713647157,-61.96194475485403
1588960379.7135956,0.9140650406504065,-0.9967479674796748,-9.24081300813008,-0.4777777777777778,0.18222222222222226,0.7333333333333333,3.4476626016260163,12.879573170731707,-65.2494918699187
1588960379.7235956,0.9428037558685446,-1.057406572769953,-9.363014084507043,-0.4777777777777778,0.18222222222222226,0.7333333333333333,3.693779342723005,13.165011737089202,-67.33396713615024
1588960379.7335956,1.0082928048384274,-1.0783275435483468,-9.356689825806612,-0.4777777777777778,0.18222222222222226,0.7333333333333333,3.9061414415315023,11.313802701621974,-69.62369729837803
1588960379.7435956,1.0637721959093893,-1.08,-9.324987316623206,-0.4777777777777778,0.18222222222222226,0.7333333333333333,3.9375,10.351265233356393,-71.13338721551096
1588960379.7535956,1.0810300706531106,-1.0665451059796658,-9.274120282612442,-0.4842560600838647,0.18471386926302488,0.735824980374136,3.9935620584180596,11.177303226779252,-72.59736881785284
1588960379.7635956,1.0762409288824384,-1.0812046444121917,-9.279927431059507,-0.4922222222222222,0.18777777777777774,0.7388888888888889,4.140511611030479,13.990203193033382,-74.38162191582003
1588960379.7735956,1.1128370982865912,-1.1109456994288638,-9.364728497144318,-0.4922222222222222,0.18777777777777774,0.7388888888888889,4.221705310715199,14.949321242860796,-75.59331152501917
1588960379.7835956,1.156984713867888,-1.0393226091275316,-9.363292036863308,-0.4922222222222222,0.18777777777777774,0.7388888888888889,4.276538615418575,14.664420768721373,-76.95711984713869
1588960379.7935956,1.2017752997920261,-1.0046581707155184,-9.284446214434267,-0.5005175745239465,0.17568038900442987,0.7371606904926964,4.409711159785831,13.852808752599673,-79.03043829372982
1588960379.8035955,1.2450811982831098,-1.1531355369706624,-9.25351342979778,-0.5170150596634069,0.1516215565093834,0.7337237144219754,4.603041063763883,13.311485021461127,-81.07973527589716
1588960379.8135955,1.2773631529558962,-1.1084329058492337,-9.208955270566156,-0.5188888888888888,0.14888888888888888,0.7333333333333333,4.667754926493588,14.062343603378167,-81.91106897091022
1588960379.8235955,1.3480350815543647,-1.1017631555828868,-9.32057893349732,-0.5188888888888888,0.14888888888888888,0.7333333333333333,4.6875,14.80021925971478,-83.32099768660869
1588960379.8335955,1.3930486682865837,-1.0869513317134163,-9.316219773997972,-0.5188888888888888,0.14888888888888888,0.7333333333333333,4.879572235721532,15.41768058930383,-85.04648759112034
1588960379.8435955,1.4357996720110815,-1.1157996720110817,-9.305114238858726,-0.5188888888888888,0.14888888888888888,0.7333333333333333,4.969463992867037,15.722319964335185,-86.42838377887816
1588960379.8535955,1.4833024776460393,-1.1544341592153464,-9.283395044707921,-0.5154400983880638,0.11982051181050668,0.7431870204785476,5.083140485287745,16.12442145586324,-88.15097786268562
1588960379.8635955,1.5530218687872763,-1.1751491053677932,-9.29544731610338,-0.5111111111111111,0.08333333333333333,0.7555555555555555,5.282181908548708,16.342818091451292,-90.68725149105367
1588960379.8735955,1.6030231302852802,-1.173395373942944,-9.349627756342336,-0.5111111111111111,0.08333333333333333,0.7555555555555555,5.436336738569801,15.858431958577398,-92.3020306471282
1588960379.8835955,1.6742926285450146,-1.1496402642956194,-9.329280528591239,-0.5111111111111111,0.08333333333333333,0.7555555555555555,5.5848322321015855,15.667416116050793,-94.10506736547299
1588960379.8935955,1.7,-1.1702514510654536,-9.285798839147636,-0.5111111111111111,0.08333333333333333,0.7555555555555555,5.625,16.632857845795424,-95.89755804261814
1588960379.9035954,1.7302889256497995,-1.2000963085499332,-9.259903691450067,-0.5212074196610442,0.08221152127222965,0.7510683073111408,5.751203856874165,18.07032506968207,-97.53937603390061
1588960379.9135954,1.787715546971996,-1.1684266795420057,-9.236142226514001,-0.5311111111111111,0.0811111111111111,0.7466666666666667,5.918305542143744,19.784416385018623,-99.11119421644365
1588960379.9235954,1.826709892313165,-1.139316043074734,-9.304787698476861,-0.5311111111111111,0.0811111111111111,0.7466666666666667,6.037662096174369,20.154112634608545,-100.07185994243767
1588960379.9335954,1.8751811663663203,-1.1451086998197921,-9.33474636708715,-0.5311111111111111,0.0811111111111111,0.7466666666666667,6.187952915915801,19.621376672673595,-101.44338790690541
1588960379.9435954,1.965453708848451,-1.1952443047645507,-9.310069801361301,-0.5311111111111111,0.0811111111111111,0.7466666666666667,6.281468129254063,18.369764897902485,-102.87936258508127
1588960379.9535954,2.06452961972924,-1.2472648098646202,-9.296980253513839,-0.5279139240991444,0.06256742644170427,0.7588159773121401,6.348468353884625,17.373221522807622,-104.11146201603863
1588960379.9635954,2.208064444934893,-1.3308386669609358,-9.295741925991319,-0.5255555555555556,0.048888888888888885,0.7677777777777778,6.571774074891488,17.925402780843083,-105.54637037445744
1588960379.9735954,2.2077853324035335,-1.2533559972105996,-9.325771734077174,-0.5255555555555556,0.048888888888888885,0.7677777777777778,6.786073337982334,19.252513365876336,-106.57759835541609
1588960379.9835954,2.2504563712503205,-1.2470216220835826,-9.252674130416205,-0.5255555555555556,0.048888888888888885,0.7677777777777778,7.000950773438167,20.462770276044782,-107.92363900521323
1588960379.9935954,2.261100503241038,-1.1881021807111645,-9.247798993517923,-0.5255555555555556,0.048888888888888885,0.7677777777777778,7.259369757905855,17.71820572824984,-110.30432362747737
1588960380.0035954,2.3892711346169735,-1.2444533509627305,-9.220260309065367,-0.5255555555555556,0.02788768604982141,0.785463001221203,7.281738079497562,14.414221965126849,-111.74837306834146
1588960380.0135953,2.600221247757624,-1.2680752109494386,-9.246073018404093,-0.5255555555555556,0.006666666666666667,0.8033333333333333,7.333794266161717,16.239768121719486,-111.80648503421699
1588960380.0235953,2.6213980541044415,-1.1299145514924358,-9.385805837686675,-0.5255555555555556,0.006666666666666667,0.8033333333333333,7.3659951352611035,23.451578369875516,-112.16128648554172
1588960380.0335953,2.53211409083863,-1.0267998759882189,-9.252513718803286,-0.5255555555555556,0.006666666666666667,0.8033333333333333,7.582500775073632,29.608221593551388,-113.98964695396063
1588960380.0435953,2.459455453719759,-0.9694554537197588,-9.16665345553629,-0.5255555555555556,0.006666666666666667,0.8033333333333333,8.246348877053919,28.056684006275287,-116.63131141111387
1588960380.0535953,2.5237006161652773,-0.969694262627124,-9.135840777775408,-0.5140672356897332,-0.0031804646468953654,0.8066157104378541,8.5625,22.40059804276912,-118.7347131313562
1588960380.0635953,2.6689786957228816,-1.0194893478614409,-9.109489347861441,-0.5022222222222222,-0.013333333333333334,0.81,8.673085054480403,17.482287770369165,-120.15547853309481
1588960380.0735953,2.7890326709329742,-1.0153022903334457,-9.204093128999663,-0.5022222222222222,-0.013333333333333334,0.81,8.688255725833613,18.045874031660492,-120.4375
1588960380.0835953,2.857504114866048,-0.9691735247767466,-9.250842934687446,-0.5022222222222222,-0.013333333333333334,0.81,8.651033094029067,20.661055419366136,-120.5155992820872
1588960380.0935953,2.8708712375602907,-0.9361410953049637,-9.202282190609928,-0.5022222222222222,-0.013333333333333334,0.81,8.759854463031932,22.254409228280114,-120.74559077171989
1588960380.1035953,2.9265437141033823,-0.9314541586896405,-9.186364603275898,-0.49697109362074265,-0.017776595996123756,0.8108886525325582,8.897721229525633,22.026146032758987,-120.97839821314614
1588960380.1135952,3.01,-0.9208840349319735,-9.173275388649174,-0.43,-0.07444444444444444,0.8222222222222222,9.1095108078535,21.92644956335033,-121.16204683403184
1588960380.1235952,2.9643038304202305,-0.8546132391223503,-9.164149126069171,-0.43,-0.07444444444444444,0.8222222222222222,9.063466902194124,22.247099293417627,-119.89416372257345
1588960380.1335952,2.9447499655124845,-0.8003000413850186,-9.154549937922472,-0.43,-0.07444444444444444,0.8222222222222222,9.063125086218788,21.474688319078492,-118.07312646571941
1588960380.1435952,2.9800219066722975,-0.7499561866554054,-9.149890466638514,-0.43,-0.07444444444444444,0.8222222222222222,9.041757944467905,20.35302569415118,-116.37363083298142
1588960380.1535952,3.0433571150603194,-0.7063869070783066,-9.078904743373547,-0.40791998770076343,-0.10053900443445131,0.8218207674531451,9.147581830760583,19.515736476845245,-114.17656310805552
1588960380.1635952,3.0971671085579615,-0.6589007954043306,-9.11173368684637,-0.3688888888888889,-0.14666666666666667,0.8211111111111111,9.1875,20.53144562895861,-111.32981431359552
1588960380.1735952,3.1946384119925733,-0.5975361588007426,-9.164783047195545,-0.3688888888888889,-0.14666666666666667,0.8211111111111111,9.304348511243038,21.195651488756962,-108.57426736883123
1588960380.1835952,3.2876616421596916,-0.5723383578403084,-9.192338357840308,-0.3688888888888889,-0.14666666666666667,0.8211111111111111,9.33820491216731,21.125,-106.79332771635003
1588960380.1935952,3.2321022795802676,-0.5212013026172959,-9.073303582197564,-0.3688888888888889,-0.14666666666666667,0.8211111111111111,9.251877035339525,20.76126221203715,-105.33690145941382
1588960380.2035952,3.1500862435469177,-0.45521560886729423,-8.974870634679624,-0.38320875932111886,-0.212758376353882,0.7886160205148969,9.094558533252354,19.259702399028242,-103.35372191011236
1588960380.2135952,3.1346002855864112,-0.38140257027770086,-8.973800856759235,-0.3977777777777778,-0.28,0.7555555555555555,8.83125892457535,16.60633032117815,-100.6013338910083
1588960380.2235951,3.189334317802044,-0.3479112423736059,-9.062846150856878,-0.3977777777777778,-0.28,0.7555555555555555,8.53916420549489,15.188886837912408,-97.56886099560874
1588960380.2335951,3.2587909434947147,-0.33172125799295316,-9.163442515985906,-0.3977777777777778,-0.28,0.7555555555555555,8.113665095262952,15.441855343860107,-93.3872279949106
1588960380.2435951,3.1958546433378197,-0.2437819650067295,-9.04792732166891,-0.3977777777777778,-0.28,0.7555555555555555,7.599091520861373,16.0739401076716,-88.85296096904442
1588960380.253595,3.1764756862602894,-0.18011458824382637,-9.016819450991768,-0.4212098649035227,-0.3550559040746516,0.754823302832876,7.272026960873191,15.256445588715234,-84.97599902092324
1588960380.263595,3.1980317411716674,-0.14204761175750152,-8.972047611757501,-0.4688888888888889,-0.5077777777777778,0.7533333333333333,6.725892720453154,13.189979779036538,-78.7707328664013
1588960380.273595,3.1381644943622655,-0.055126491856605925,-9.04063300876981,-0.4688888888888889,-0.5077777777777778,0.7533333333333333,6.212024968679254,11.950553058443413,-73.73575592896235
1588960380.283595,3.2005114910313903,-0.058190863228699555,-9.105290078475337,-0.4688888888888889,-0.5077777777777778,0.7533333333333333,5.867748038116592,11.929818876121077,-68.28926394338565
1588960380.293595,3.2371773932729626,-0.01756043822768434,-9.017560438227685,-0.4688888888888889,-0.5077777777777778,0.7533333333333333,5.419858707956015,12.367523548673997,-62.568799017626134
1588960380.303595,3.1871980365333545,0.07420294519996781,-8.897133660577774,-0.42876013697772775,-0.5201985819407562,0.7208481532147742,4.964170757222178,11.470110444998793,-57.76389112416513
1588960380.313595,3.243925165392216,0.00442993384311367,-8.926205430019762,-0.3288888888888889,-0.5511111111111111,0.64,4.718341889337572,8.818809605636224,-52.94685432597302
1588960380.323595,3.1591238269626913,0.06482810711833373,-8.979707942320896,-0.3288888888888889,-0.5511111111111111,0.64,3.952749485008011,8.475300411993592,-44.26439402609293
1588960380.333595,3.0958243577293194,0.12516487154586386,-9.006813587004503,-0.3288888888888889,-0.5511111111111111,0.64,3.461536869868456,7.686806137988876,-37.70121170654189
1588960380.343595,3.1404228079832017,0.1177463152100789,-9.039577192016798,-0.3288888888888889,-0.5511111111111111,0.64,2.8670723503149653,6.341543840335963,-31.348550292540722
1588960380.353595,3.072156619873383,0.11778970547756676,-8.965525736306082,-0.3540909716487751,-0.510590115301098,0.6034322720738906,2.0345358519130197,5.194071703826039,-22.705537778695295
1588960380.363595,2.9966984866650077,0.14583731083312598,-8.991722351663764,-0.3855555555555555,-0.46,0.5577777777777778,1.2132184948085145,3.332537833374805,-11.443790010631801
1588960380.373595,3.188503905197953,0.09716536493401562,-9.065850390519795,-0.3855555555555555,-0.46,0.5577777777777778,0.3466536493401562,1.9056103555076758,-2.039666374899003
1588960380.383595,3.3339607857980997,0.03019607100950074,-9.0562352852114,-0.3855555555555555,-0.46,0.5577777777777778,-0.34779420114311665,1.4740196449524963,6.287501419432983
1588960380.393595,3.36958919556581,0.0,-8.99911350901237,-0.3855555555555555,-0.46,0.5577777777777778,-0.8180405686726923,1.2333782939819233,13.552838159013238
1588960380.403595,3.493286955918325,0.0,-8.911797442881182,-0.3855555555555555,-0.46,0.5577777777777778,-1.3637659819926098,-0.4037979459778289,19.783203294415628
1588960380.413595,3.3614255296113176,-0.02,-8.933261395214553,-0.4155555555555556,-0.42777777777777776,0.5433333333333333,-2.11865503987874,-4.635391479302753,31.462063318777293
1588960380.423595,3.3148464735313103,-0.07153526468689476,-9.008838161717238,-0.4155555555555556,-0.42777777777777776,0.5433333333333333,-2.852385863863783,-7.992738510732731,40.382416579244676
1588960380.433595,3.291508616241874,-0.12924569187906304,-9.093017232483747,-0.4155555555555556,-0.42777777777777776,0.5433333333333333,-3.41392787122072,-8.769261858081382,47.509564286451344
1588960380.443595,3.2510343685050755,-0.1505171842525377,-9.008965631494924,-0.4155555555555556,-0.42777777777777776,0.5433333333333333,-4.110986023675412,-8.877148031567216,54.64541665411609
1588960380.453595,3.2614581419560293,-0.16427092902198542,-8.994270929021985,-0.42457196126863594,-0.42469321792856607,0.5449942501752165,-5.146813185130749,-10.623059434135588,66.17615132586197
1588960380.463595,3.247907361122309,-0.20203982907361123,-9.023774893171007,-0.4577777777777778,-0.4133333333333333,0.5511111111111111,-5.7649837740869145,-12.919951322260744,74.73974038539063
1588960380.473595,3.3766881825193846,-0.37337636503876914,-9.135032273779077,-0.4577777777777778,-0.4133333333333333,0.5511111111111111,-6.6150539926115375,-14.401075285186538,86.17661521130191
1588960380.483595,3.3817784939128517,-0.4090670963477111,-9.129912686608273,-0.4577777777777778,-0.4133333333333333,0.5511111111111111,-7.398322591307222,-14.642491943480417,94.18238720872583
1588960380.493595,3.2940472895496424,-0.4086509034834526,-9.06,-0.4577777777777778,-0.4133333333333333,0.5511111111111111,-8.038195405480211,-16.911717607053895,101.63543108220316
1588960380.5035949,3.2068150171558014,-0.4570375428895033,-9.087260068623205,-0.46875752763990214,-0.39478134218698524,0.5556544558816453,-8.482875428895033,-21.722269645890936,107.94358364702356
1588960380.5135949,3.130158591248666,-0.5183709711846318,-9.121086019210246,-0.49,-0.3588888888888889,0.5644444444444444,-8.98981856990395,-24.487415955176093,114.9359378335112
1588960380.5235949,3.1572022992013835,-0.5763177170761483,-9.14386286179358,-0.49,-0.3588888888888889,0.5644444444444444,-9.434228597588891,-23.0010141665395,120.63177170761483
1588960380.5335948,3.257790370045708,-0.6763569386179116,-9.175116148018283,-0.49,-0.3588888888888889,0.5644444444444444,-9.957365433180973,-20.266466042618912,126.0218129735145
1588960380.5435948,3.194033540802213,-0.7880251556016598,-9.127983229598893,-0.49,-0.3588888888888889,0.5644444444444444,-10.350139753342555,-18.512604815006917,129.87639753342555
1588960380.5535948,3.266549100968188,-0.842411825726141,-9.091725449515906,-0.49,-0.3588888888888889,0.5644444444444444,-10.652287920700784,-18.73921594052559,132.89787920700783
1588960380.5635948,3.0822937298438884,-0.8899394959901824,-9.172354233853705,-0.5044444444444445,-0.2933333333333333,0.5788888888888889,-11.139335811524301,-20.89775856902309,138.09883808042466
1588960380.5735948,3.058613442778477,-1.0179056241879267,-9.123480933033596,-0.5044444444444445,-0.2933333333333333,0.5788888888888889,-11.349557613380906,-23.758665982634522,143.14012003217357
1588960380.5835948,2.863122469908782,-1.056561234954391,-9.290978301937713,-0.5044444444444445,-0.2933333333333333,0.5788888888888889,-11.520503859232472,-25.221404909051653,146.848565606952
1588960380.5935948,3.0473723761195686,-1.1673723761195685,-9.214182125724426,-0.5044444444444445,-0.2933333333333333,0.5788888888888889,-11.832439064969636,-26.83512187006073,151.56065080553475
1588960380.6035948,3.133099503021202,-1.3320898137223354,-9.260504844649434,-0.5184323119644368,-0.2787969219890275,0.5775175293281053,-12.09414440988237,-25.58660481247095,154.91576164682326
1588960380.6135948,2.9906351675068827,-1.4295654117058172,-9.140534877900533,-0.5609216751880057,-0.2346413092272795,0.5733519054826575,-12.00041787335979,-23.571484277235513,156.36852296292324
1588960380.6235948,2.832412069661317,-1.4280520286840717,-9.236308012293174,-0.5611111111111111,-0.2344444444444445,0.5733333333333334,-12.07948751280539,-24.48591310185329,158.243275230497
1588960380.6335948,3.053760903982864,-1.5191956663458852,-9.275369571291094,-0.5611111111111111,-0.2344444444444445,0.5733333333333334,-12.120176636761556,-26.398301927793128,158.975679461708
1588960380.6435947,3.0935494663730307,-1.694709893274606,-9.361832754531594,-0.5611111111111111,-0.2344444444444445,0.5733333333333334,-12.10919368329663,-25.966211566152804,158.7981442169236
1588960380.6535947,2.7440766172750273,-1.6440766172750272,-9.211668955547523,-0.5688691322330643,-0.21866088423081562,0.5768110669397262,-12.092595771593784,-25.763936573906758,159.26043097217203
1588960380.6635947,2.762319411354759,-1.750536782223951,-9.293571903210644,-0.5933333333333334,-0.1688888888888889,0.5877777777777777,-12.1875,-27.632828074099287,159.77232439506653
1588960380.6735947,2.657454675005938,-1.82257976407252,-9.326988757818066,-0.5933333333333334,-0.1688888888888889,0.5877777777777777,-12.181676035151611,-28.5,160.00738757818067
1588960380.6835947,2.754835042629433,-2.08,-9.451611680876479,-0.5933333333333334,-0.1688888888888889,0.5877777777777777,-12.085485398904403,-27.626554841632686,161.71332478685284
1588960380.6935947,2.638828735523962,-2.0852928161190096,-9.388243103285943,-0.5933333333333334,-0.1688888888888889,0.5877777777777777,-12.108459949628095,-25.711498740702382,162.1875
1588960380.7035947,2.5913299032374177,-2.1385216710072203,-9.311329903237418,-0.6029008071782639,-0.15881786378896207,0.5905473096802576,-12.034175241906455,-24.590824758093543,162.0883633466726
1588960380.7135947,2.5947143136360675,-2.28587855886377,-9.351764284318197,-0.6355555555555555,-0.12444444444444445,0.6,-11.970580330966186,-24.852901654830934,161.6397322301127
1588960380.7235947,2.437966433967677,-2.3639832169838386,-9.411781820789901,-0.6355555555555555,-0.12444444444444445,0.6,-11.950734256957062,-26.04821680453285,160.90094404465907
1588960380.7335947,2.41422206181508,-2.3837607454557386,-9.49,-0.6355555555555555,-0.12444444444444445,0.6,-11.63589720454098,-26.773504659098364,160.32168695452458
1588960380.7435946,2.3247708182951636,-2.4181650698864754,-9.49,-0.6355555555555555,-0.12444444444444445,0.6,-11.506880987925717,-26.988531686790473,159.71961127698668
1588960380.7535946,2.2148427122107877,-2.5448427122107873,-9.435283008539523,-0.6540741146226147,-0.12881202913007161,0.5989517796754494,-11.523191737829356,-26.66155641011605,158.55345868914677
1588960380.7635946,2.0923903364717904,-2.4223903364717905,-9.412323188088461,-0.7442126689860431,-0.1500711221403142,0.5938495973529913,-11.331859900737172,-26.23105977665864,157.59679950368587
1588960380.7735946,1.9335194020794837,-2.36,-9.436480597920516,-0.7533333333333333,-0.15222222222222226,0.5933333333333334,-11.000317162635483,-26.58227612454839,155.44035446371936
1588960380.7835946,1.8066090963907313,-2.3218636402790938,-9.471863640279095,-0.7533333333333333,-0.15222222222222226,0.5933333333333334,-10.779659100697735,-27.0,153.597443255233
1588960380.7935946,1.6856801558104306,-2.239980090889418,-9.418579961047392,-0.7533333333333333,-0.15222222222222226,0.5933333333333334,-10.607125081151265,-26.660376541874054,151.99062702878166
1588960380.8035946,1.5859740870382948,-2.199350608641137,-9.425974087038295,-0.8660601152848162,-0.1797545698877918,0.5496971596746949,-10.504058695992894,-25.593345109973356,150.52435217595738
1588960380.8135946,1.5179964752482158,-2.218998237624108,-9.386601057425535,-1.2355555555555555,-0.27,0.4066666666666667,-10.28499559406027,-24.751230173271214,149.0174427227835
1588960380.8235946,1.4448090177808022,-2.1824045088904014,-9.40855729466576,-1.2355555555555555,-0.27,0.4066666666666667,-10.193511272226003,-24.339550725017013,147.82814653893803
1588960380.8335946,1.320871668279014,-2.121743336558028,-9.480871668279013,-1.2355555555555555,-0.27,0.4066666666666667,-9.976921890115756,-24.69086716482637,145.19374228575242
1588960380.8435946,1.2928882142976281,-2.0657764285952562,-9.452888214297628,-1.2355555555555555,-0.27,0.4066666666666667,-9.714577009040264,-25.084384486439603,143.48850055876173
1588960380.8535945,1.1745658001371486,-2.0691902001122124,-9.400751200049871,-1.317253288448351,-0.19035755598501064,0.43903746649211395,-9.273841250545477,-25.99097624836357,139.12316875506514
1588960380.8635945,1.09,-2.0,-9.37,-1.5888888888888888,0.07444444444444444,0.5466666666666666,-8.9375,-27.0,136.0
1588960380.8735945,1.058696582092682,-2.0382078003774375,-9.402443908576222,-1.5888888888888888,0.07444444444444444,0.5466666666666666,-8.554353638079261,-27.622963409519816,132.24121933319356
1588960380.8835945,0.988337177605368,-1.9414636192073809,-9.534367791989936,-1.5888888888888888,0.07444444444444444,0.5466666666666666,-8.114607360033549,-27.513026840008386,128.39343940029357
1588960380.8935945,0.9212790595666286,-1.7543604702166857,-9.41,-1.5888888888888888,0.07444444444444444,0.5466666666666666,-7.630329414860952,-26.93053529914905,122.19058826432143
1588960380.9035945,0.7960091141769149,-1.8430551220425744,-9.407733940945128,-1.4144023416637186,0.09081042650741133,0.5788950621137399,-7.122534178163431,-26.298337130907047,117.50613334165678
1588960380.9135945,0.6459597206002248,-2.0921208381993255,-9.42269351959985,-0.8188888888888889,0.14666666666666667,0.6888888888888889,-6.474748253751405,-26.22636091708349,111.96184694709473
1588960380.9235945,0.5621244330106289,-2.340529415747072,-9.494070137431454,-0.8188888888888889,0.14666666666666667,0.6888888888888889,-6.0282098368424615,-26.303648195789044,107.866727878952
1588960380.9335945,0.5042889518413598,-2.483543909348442,-9.559277620396601,-0.8188888888888889,0.14666666666666667,0.6888888888888889,-5.718679178470255,-26.40166430594901,104.17790368271955
1588960380.9435945,0.5196674311926606,-2.348836009174312,-9.519584288990826,-0.8188888888888889,0.14666666666666667,0.6888888888888889,-5.371882167431193,-25.781841313073393,100.90320384174312
1588960380.9535944,0.47684469725891426,-2.2109964113919216,-9.471162479957243,-0.8146080103161878,0.14777379043546868,0.6896269714014236,-4.998962071466748,-22.057534645338627,96.73569328853937
1588960380.9635944,0.29,-2.27,-9.54,-0.5611111111111111,0.21333333333333332,0.7333333333333333,-4.9375,-18.0625,92.1875
1588960380.9735944,0.23684500086640098,-2.2851871426095998,-9.608342141743199,-0.5611111111111111,0.21333333333333332,0.7333333333333333,-4.700200896725004,-16.49632591838503,88.81785273349506
1588960380.9835944,0.1908517322005462,-2.220851732200546,-9.566950577400183,-0.5611111111111111,0.21333333333333332,0.7333333333333333,-4.518029253752655,-15.143029253752655,83.42496921127314
1588960380.9935944,0.1234758241562104,-2.1534758241562106,-9.544491941385402,-0.5611111111111111,0.21333333333333332,0.7333333333333333,-4.190507478537134,-14.815507478537134,80.57085088439503
1588960381.0035944,0.025681550470386824,-2.261207771198819,-9.503110678330794,-0.5611111111111111,0.21333333333333332,0.7333333333333333,-4.092063105652495,-14.618252422609979,78.45196596566726
1588960381.0135944,-0.046467214339059,-2.324073786407767,-9.462934428678118,-0.539129333665256,0.2170623848643266,0.7405951705252676,-3.9962602688573563,-14.87535847647498,76.45530246452577
1588960381.0235944,-0.03393756534727409,-2.161188349514563,-9.437875130694549,-0.46116707327192763,0.2302881254667663,0.7663505601194922,-3.761329350261389,-16.20663368185213,74.30176904406274
1588960381.0335944,-0.0159973061131757,-1.969973061131757,-9.458005387773648,-0.43666666666666665,0.2344444444444445,0.7744444444444445,-3.629155442138232,-16.712516836792652,72.54562567955729
1588960381.0435944,0.00976690177189059,-1.7875361259246516,-9.477303027696543,-0.43666666666666665,0.2344444444444445,0.7744444444444445,-3.5258741183554103,-16.20817295286427,70.69596432564941
1588960381.0535944,0.05486302253569585,-1.6838150481678995,-9.418678070703596,-0.43666666666666665,0.2344444444444445,0.7744444444444445,-3.3567636654911404,-13.41785048060382,67.8492717024342
1588960381.0635943,0.09995914329950112,-1.5800939704111474,-9.360053113710649,-0.43666666666666665,0.2344444444444445,0.7744444444444445,-3.187653212626871,-10.627528008343369,65.00257907921899
1588960381.0735943,0.06856869620656678,-1.5249952183614919,-9.344284348103283,-0.4157124641377112,0.26238338114971843,0.7648404349520066,-2.843720114759324,-6.597864201466369,57.63328817341409
1588960381.0835943,0.027381336639483556,-1.4969525346557935,-9.392189861376826,-0.41,0.27,0.7622222222222222,-2.688840006199032,-5.64270665220226,53.91252017357289
1588960381.0935943,-0.01744728151085366,-1.4790210873956586,-9.463915650417366,-0.41,0.27,0.7622222222222222,-2.6047863471671495,-5.838831856609985,51.55901772068018
1588960381.1035943,-0.0810738255033557,-1.5338926174496643,-9.481744966442953,-0.41,0.27,0.7622222222222222,-2.4056208053691277,-6.992869127516778,48.078859060402685
1588960381.1135943,-0.16373189397505938,-1.6624718350723147,-9.445008047122196,-0.41,0.27,0.7622222222222222,-2.0899129049563703,-9.116722275748053,43.4580434270887
1588960381.1235943,-0.03363281401012874,-1.6102246105075966,-9.388938802335021,-0.38814212016168176,0.2792033178266603,0.7558949412163932,-1.583801271890826,-11.468451598561874,35.3944770363784
1588960381.1335943,0.16593840432204043,-1.4378500929766844,-9.39242300540255,-0.36777777777777776,0.2877777777777778,0.75,-1.3125,-10.630556594742691,28.887384054223563
1588960381.1435943,0.20285884048721983,-1.3778543842082678,-9.438573550609025,-0.36777777777777776,0.2877777777777778,0.75,-1.3125,-8.23649706215684,26.147195432589154
1588960381.1535943,0.04205000565674852,-1.5110023758343705,-9.400683335218917,-0.36777777777777776,0.2877777777777778,0.75,-0.7828869215974658,3.2024550288494176,10.681369498812083
1588960381.1635942,0.036760821975849164,-1.5185913424193207,-9.371267424616907,-0.36480435311379455,0.2856963805129895,0.7428637808064402,-0.6373234587952828,5.162853082409434,5.900506673257539
1588960381.1735942,0.06637949297366005,-1.494896405621072,-9.35053435491844,-0.36151338966959334,0.2833927061020487,0.7349654685403574,-0.5817884506743874,5.273923098651225,3.4384546465645087
1588960381.1835942,0.09599816397147093,-1.4712014688228232,-9.32980128521997,-0.35822242622539213,0.2810890316911078,0.7270671562742744,-0.5262534425534919,5.384993114893016,0.9764026198714779
1588960381.1935942,0.0388506394273305,-1.802406297755972,-8.946465856993486,-0.3566666666666667,0.28,0.7233333333333334,-0.05531649642081554,3.7977295805517572,-11.443551184348106
1588960381.2035942,-0.18327599151297536,-2.580726293455198,-8.826049942875796,-0.3571862611754892,0.2888331066499828,0.7282694811671473,0.6899767422882324,2.3783846091072305,-28.422719112126654
1588960381.2135942,-0.5734752733801208,-3.607566508895055,-9.839198955443122,-0.35870750593910383,0.314694267631431,0.7427213064214859,1.2461818589848215,4.218139995103639,-36.97972090745879
1588960381.2235942,-8.172553509829184,1.9720015793192305,0.42186276547109425,-0.3588888888888889,0.31777777777777777,0.7444444444444445,-5.258060242716429,-38.14036459415652,19.09175377166369
1588960381.2335942,2.2203961349010135,-0.3040815671768547,-1.3180597127597335,-0.3588888888888889,0.31777777777777777,0.7444444444444445,39.198613575027835,3.031465265065016,-220.3703644290109
1588960381.2435942,-2.4340443882461735,-3.50203049804669,-1.1359982637250647,-0.3588888888888889,0.31777777777777777,0.7444444444444445,28.512398088210315,129.13870265348106,-413.46434148942194
1588960381.2535942,-7.531420302483351,-0.7202421111595196,-20.41421298313313,-0.3588888888888889,0.31777777777777777,0.7444444444444445,18.618352057011265,122.10282722350158,-404.39197967884485
1588960381.2635942,-3.0191855050545255,0.8277708349916421,-13.267177425774097,-0.3379595947535532,0.3086780846754579,0.7326148434114286,-32.031672868741545,73.06155849518427,-338.4946109110085
1588960381.2735941,-0.8983733516274106,0.511557283329522,-6.053089031176157,-0.3333333333333333,0.30666666666666664,0.73,-8.526945651345379,15.414942068755238,-258.4888353723607
1588960381.2835941,-0.5981407241508025,0.2216173945502053,-9.621304591265398,-0.3333333333333333,0.30666666666666664,0.73,18.017697835013067,-10.709397163120567,-171.86919792833146
1588960381.2935941,-0.33656362381488614,-0.4608968723891169,-9.516548367176432,-0.3333333333333333,0.30666666666666664,0.73,4.216887191688764,-11.545874350684732,-139.83402048748593
1588960381.303594,-0.06665166795965864,-0.8183370830100853,-8.895565554693562,-0.3333333333333333,0.30666666666666664,0.73,5.629589313421258,5.8808548293250595,-86.21305517843288
1588960381.313594,0.21679447020005846,-1.255011276782358,-9.741512550641106,-0.4844444444444445,0.19,0.7244444444444444,1.7911968007350791,29.804174236728898,-46.09594401286388
1588960381.323594,0.4586354411167781,-1.3297100400614157,-9.40145138803099,-0.4844444444444445,0.19,0.7244444444444444,0.7658745565889558,34.4783202883716,-27.428244621710817
1588960381.333594,-0.38521363147027166,-2.3438093641353266,-9.43106012742001,-0.4844444444444445,0.19,0.7244444444444444,1.0897201436563542,35.31106608368777,-18.314304528528318
1588960381.343594,-1.3565461762675461,-6.664195367032293,-9.862809311958273,-0.4844444444444445,0.19,0.7244444444444444,1.382707630206336,13.1010129822812,-4.91067250901281
1588960381.353594,-1.0267803175577204,-8.578445961494209,-10.87623609726164,-0.4844444444444445,0.19,0.7244444444444444,0.22651635729078778,-19.17180428779627,21.229304096034365
1588960381.363594,4.185083313776109,-1.6146374090589064,-9.396695611358837,-0.5044444444444445,0.1511111111111111,0.6888888888888889,-4.076991903309082,-48.23333724477822,73.71268481577094
1588960381.373594,1.840549166862239,-2.151553625909411,-9.477233043886413,-0.5044444444444445,0.1511111111111111,0.6888888888888889,-5.754855080966909,-40.51516662755222,66.49787315184228
1588960381.383594,0.7453418938272204,-2.9834786513581086,-9.79347865135811,-0.5044444444444445,0.1511111111111111,0.6888888888888889,-1.9693378765444085,-17.66073834259776,29.870782459887856
1588960381.393594,0.6442394230580283,-2.820673426477235,-9.64952622374187,-0.5044444444444445,0.1511111111111111,0.6888888888888889,-0.0625,-9.064371720804104,11.462595059836113
1588960381.403594,0.5535768044174576,-2.3591182770343297,-9.484685098940833,-0.5044444444444445,0.1511111111111111,0.6888888888888889,-0.0625,-3.19190664976714,4.97197577079526
1588960381.413594,0.5807184124591811,-2.1515573976387845,-9.402994222557147,-0.4881570794607721,0.16106450082335538,0.7124150827541935,-0.16429603114795277,-0.48017143933685014,1.098813112283346
1588960381.423594,0.54,-2.2086443148688044,-9.580968346522283,-0.4844444444444445,0.16333333333333333,0.7177777777777777,-0.6753956684714703,-0.12015826738858809,0.125
1588960381.433594,0.54,-2.153061224489796,-9.620670553935861,-0.4844444444444445,0.16333333333333333,0.7177777777777777,-0.17911807580174932,0.0783527696793003,0.125
1588960381.443594,0.5405667030476031,-2.2588665939047936,-9.53818655024767,-0.4844444444444445,0.16333333333333333,0.7177777777777777,0.06887540928553439,-0.12216648476198472,0.06320837880950382
1588960381.453594,0.5845837880950382,-2.170832423809924,-9.397331878095878,-0.4844444444444445,0.16333333333333333,0.7177777777777777,0.5640676160691798,0.09791894047519098,0.11822973511879775
1588960381.463594,0.5654937788363843,-2.2151389976181357,-9.459645218781752,-0.48036007425050853,0.16333333333333333,0.7034824820990019,0.20379932375035392,0.16329097056814965,0.125
1588960381.473594,0.5706946956553837,-2.1810176811487207,-9.54449115942564,-0.4777777777777778,0.16333333333333333,0.6944444444444444,-0.19184184784614816,0.14438605071795063,-0.004341847846148161
1588960381.483594,0.5640589353612168,-2.1818821292775663,-9.583911596958174,-0.4777777777777778,0.16333333333333333,0.6944444444444444,-0.5488949619771863,0.07518417300380228,-0.11231582699619772
1588960381.493594,0.5898267702473435,-2.1402887162544277,-9.560173229752657,-0.4777777777777778,0.16333333333333333,0.6944444444444444,0.24494746554751912,0.1867782093639313,-0.0007217906360686976
1588960381.503594,0.5740707390591018,-2.155929260940898,-9.440530542943264,-0.4777777777777778,0.16333333333333333,0.6944444444444444,0.20022105955969322,0.08794211911938646,0.0
1588960381.513594,0.5603125484000868,-2.208437257999566,-9.477812161199394,-0.4777777777777778,0.16333333333333333,0.7235067992441843,0.3085931449989158,0.12304657249945791,0.0
1588960381.523594,0.56,-2.196447266045326,-9.439341798135978,-0.4777777777777778,0.16333333333333333,0.7244444444444444,-0.11102293608356645,-0.044409174433426596,0.04235229360835665
1588960381.533594,0.5508754974417283,-2.126128482092098,-9.602490051165434,-0.4777777777777778,0.16333333333333333,0.7244444444444444,-0.4265562819783968,0.16014070494599203,0.17655628197839682
1588960381.543594,0.55,-2.127468511253355,-9.537846376213091,-0.4777777777777778,0.16333333333333333,0.7244444444444444,-0.25078721866611603,-0.09256917200082593,0.1875
1588960381.5535939,0.5431950356305897,-2.2116595724329238,-9.49639007126118,-0.4777777777777778,0.16333333333333333,0.7244444444444444,0.23781027308814384,-0.01737589076474247,0.05990691807355683
1588960381.5635939,0.5664097944097944,-2.216987756987757,-9.423975513975515,-0.4697081183747851,0.16333333333333333,0.7339813146479813,0.27243878493878493,0.0625,0.04126530376530377
1588960381.5735939,0.5620153861392677,-2.1910076930696336,-9.443953841582196,-0.4655555555555556,0.16333333333333333,0.7388888888888889,0.018894245055634418,0.17490383662957704,0.0625
1588960381.5835938,0.56,-2.122774140576046,-9.584451718847907,-0.4655555555555556,0.16333333333333333,0.7388888888888889,-0.3151212160497829,-0.022580810699855236,0.009979797325036191
1588960381.5935938,0.5412058743540931,-2.166382376937721,-9.53482349741637,-0.4655555555555556,0.16333333333333333,0.7388888888888889,-0.375,0.054963285286918684,0.05873164264345934
1588960381.6035938,0.562988696423749,-2.17,-9.468696809536668,-0.4655555555555556,0.16333333333333333,0.7388888888888889,0.008144940395818034,0.0625,0.0625
1588960381.6135938,0.5868219502566127,-2.17,-9.399534149230162,-0.47583563626793,0.16894065008553757,0.7267397025924464,0.28270578365574417,0.11506859455191473,0.009931405448085275
1588960381.6235938,0.5650848620705431,-2.1783050459764857,-9.464745413788371,-0.4777777777777778,0.17,0.7244444444444444,0.2086869252939293,0.07309346264696465,0.05190653735303536
1588960381.6335938,0.5465381541760063,-2.1665381541760063,-9.554040152031966,-0.4777777777777778,0.17,0.7244444444444444,-0.14904614559984408,-0.02163653639996102,-0.02163653639996102
1588960381.6435938,0.548523008160363,-2.151476991839637,-9.564430975518912,-0.4777777777777778,0.17,0.7244444444444444,-0.2059623979954627,-0.0625,-0.009231198997731352
1588960381.6535938,0.5703727864112758,-2.1567909288037588,-9.471717925551138,-0.4777777777777778,0.17,0.7244444444444444,-0.06017008492952655,0.10727322009396459,0.04244330502349115
1588960381.6635938,0.5576329500262047,-2.189822733298394,-9.444911366649196,-0.48274823332751016,0.1559170426090918,0.7178171703781346,0.23299010389370164,0.0011079168850386956,0.10909802077874033
1588960381.6735938,0.55,-2.2,-9.439111710809106,-0.4844444444444445,0.1511111111111111,0.7155555555555555,0.2104222888353829,0.0395777111646171,0.09097409627846097
1588960381.6835938,0.5399930861322368,-2.1799861722644738,-9.510055310942105,-0.4844444444444445,0.1511111111111111,0.7155555555555555,-0.06262963502055965,0.15627160583675995,0.0625
1588960381.6935937,0.553860450364732,-2.16,-9.554209324452902,-0.4844444444444445,0.1511111111111111,0.7155555555555555,-0.36184586108468125,0.07565413891531875,-0.04934586108468125
1588960381.7035937,0.57,-2.1722416193638217,-9.52387919031809,-0.4844444444444445,0.1511111111111111,0.7155555555555555,-0.16971457641640786,0.1912753025597087,-0.125
1588960381.7135937,0.5757856028996502,-2.17421439710035,-9.4852863826021,-0.4844444444444445,0.17746774654285086,0.7155555555555555,0.18080009061406838,0.16785992750874532,-0.05267996375437266
1588960381.7235937,0.5468607241288179,-2.1948544569033865,-9.484854456903387,-0.4844444444444445,0.19666666666666666,0.7155555555555555,0.3125,0.0625,0.0
1588960381.7335937,0.5483728843915108,-2.174881346825468,-9.556983075132086,-0.4844444444444445,0.19666666666666666,0.7155555555555555,-0.21080527446941877,0.0625,0.05233052744694189
1588960381.7435937,0.5672521020946315,-2.161373948952684,-9.561373948952685,-0.4844444444444445,0.19666666666666666,0.7155555555555555,-0.25858718095427635,0.11641281904572368,-0.04532563809144734
1588960381.7535937,0.5496634776458326,-2.16,-9.512548114506943,-0.4844444444444445,0.19666666666666666,0.7155555555555555,0.004206529427093042,0.0826322450954845,0.02223550980903101
1588960381.7635937,0.5474882222424851,-2.182464666727455,-9.452558888787575,-0.4844444444444445,0.17170592585838323,0.7222117531044311,0.21860277803106287,0.0625,0.015698610984468557
1588960381.7735937,0.541921757693507,-2.1738435153870137,-9.431921757693507,-0.4844444444444445,0.16333333333333333,0.7244444444444444,0.0985329567532561,0.0625,-0.0504890144155813
1588960381.7835937,0.5568454759836168,-2.1952682139754254,-9.514227379918083,-0.4844444444444445,0.16333333333333333,0.7244444444444444,-0.14806844979520914,0.16778422489760458,-0.009857887551197715
1588960381.7935936,0.56,-2.149027499283873,-9.513009166427958,-0.4844444444444445,0.16333333333333333,0.7244444444444444,-0.3998854196505299,0.13440364508736752,0.0
1588960381.8035936,0.56,-2.1527835865062146,-9.490824620240678,-0.4844444444444445,0.16333333333333333,0.7244444444444444,-0.1179103373446439,0.125,0.07989741566383902
1588960381.8135936,0.5533988687577509,-2.166601131242249,-9.466797737515503,-0.4895786576328605,0.16333333333333333,0.7156429361214456,0.2275282810562294,0.08374292973594265,0.08374292973594265
1588960381.8235936,0.5551495941503992,-2.1802991883007983,-9.449700811699202,-0.4922222222222222,0.16333333333333333,0.7111111111111111,0.24813007312001073,0.09468496343999463,0.030315036560005365
1588960381.8335936,0.549822970807769,-2.1849114854038847,-9.501062175153386,-0.4922222222222222,0.16333333333333333,0.7111111111111111,-0.035122513580053916,0.09319678377427801,0.03180321622572199
1588960381.8435936,0.5472685208096205,-2.1654629583807594,-9.523657395951897,-0.4922222222222222,0.16333333333333333,0.7111111111111111,-0.29542825506012765,0.0625,0.0625
1588960381.8535936,0.5561765999120598,-2.1476468001758806,-9.485293600351762,-0.4922222222222222,0.16333333333333333,0.7111111111111111,-0.15808500219850502,0.0625,-0.053311248351121235
1588960381.8635936,0.5647230906192419,-2.1588923624769674,-9.460553818761516,-0.48854870729614525,0.15965981840725635,0.7174085652701002,0.08509658185130742,0.0625,-0.09548068362973852
1588960381.8735936,0.5507768691588785,-2.18,-9.469223130841122,-0.4844444444444445,0.15555555555555556,0.7244444444444444,0.29004818925233644,0.02245181074766355,0.017596378504672897
1588960381.8835936,0.54,-2.185597413262164,-9.507987066310818,-0.4844444444444445,0.15555555555555556,0.7244444444444444,0.1375808355573804,0.034983832888523914,0.027516167111476086
1588960381.8935935,0.5511917420423946,-2.184404128978803,-9.541191742042395,-0.4844444444444445,0.15555555555555556,0.7244444444444444,-0.13989677552993163,-0.07739677552993163,0.06994838776496581
1588960381.9035935,0.56,-2.168651528112606,-9.515954584337818,-0.4844444444444445,0.15555555555555556,0.7244444444444444,-0.25,-0.11657205070378723,0.16046397464810638
1588960381.9135935,0.56,-2.16,-9.477639730111408,-0.48032435448158034,0.17203591540701224,0.7244444444444444,-0.1341224697944453,0.014751686803703118,0.14887415659814845
1588960381.9235935,0.553008876573361,-2.166991123426639,-9.442035506293443,-0.4777777777777778,0.18222222222222226,0.7244444444444444,0.024889042832988914,0.14988904283298893,-0.006083564249483364
1588960381.9335935,0.5642682210031348,-2.184268221003135,-9.529877547021943,-0.4777777777777778,0.18222222222222226,0.7244444444444444,0.017911809365203764,0.09832361873040753,0.11585276253918494
1588960381.9435935,0.57,-2.1824969606748543,-9.509975685398834,-0.4777777777777778,0.18222222222222226,0.7244444444444444,-0.14068198734648307,0.0625,0.09371200843567795
1588960381.9535935,0.5660039861112852,-2.176003986111285,-9.486003986111285,-0.4777777777777778,0.18222222222222226,0.7244444444444444,-0.2374501736089349,0.08747508680446744,0.03752491319553255
1588960381.9635935,0.5607464557453903,-2.17074645574539,-9.480746455745392,-0.4777777777777778,0.18222222222222226,0.7244444444444444,-0.3031693031826216,0.12033465159131078,0.004665348408689221
1588960381.9735935,0.5508045037345324,-2.155402251867266,-9.463793244398202,-0.4777777777777778,0.17,0.6944444444444444,0.0,0.005028148340827168,-0.03879222251124076
1588960381.9835935,0.5456162390359865,-2.178081195179933,-9.519313673251906,-0.4777777777777778,0.17,0.6944444444444444,0.10530448192474792,0.11300746987457988,0.0625
1588960381.9935935,0.55,-2.18846850890728,-9.53270276336092,-0.4777777777777778,0.17,0.6944444444444444,-0.0287154579884977,0.10585636134100154,-0.009571819329499229
1588960382.0035934,0.5554272027166334,-2.174572797283367,-9.5037183918501,-0.4777777777777778,0.17,0.6944444444444444,-0.22142001697895822,0.0,0.005340033957916435
1588960382.0135934,0.5444750693077264,-2.1661187673269318,-9.486118767326932,-0.4756215374038509,0.16741251155128772,0.7009131655662252,-0.22574229579332236,-0.02425770420667765,0.03824229579332235
1588960382.0235934,0.5293529866851256,-2.16,-9.475323506657437,-0.4722222222222222,0.16333333333333333,0.7111111111111111,-0.0705876664359298,-0.0625,0.08768425017305265
1588960382.0335934,0.5449031896463875,-2.169806379292775,-9.504322327524712,-0.4722222222222222,0.16333333333333333,0.7111111111111111,0.1544348058697646,-0.0012101294201569343,0.12621012942015694
1588960382.0435934,0.55,-2.1847606510292006,-9.520957395883197,-0.4722222222222222,0.16333333333333333,0.7111111111111111,0.13098372426998564,0.0625,0.03274593106749641
1588960382.0535934,0.5448635156096778,-2.184863515609678,-9.489727031219356,-0.4722222222222222,0.16333333333333333,0.7111111111111111,-0.19261816463708167,0.030396972560486388,0.06420605487902722
1588960382.0635934,0.5450250137061404,-2.164924958881579,-9.48502501370614,-0.48227224963450294,0.16333333333333333,0.7178111293859649,-0.3121873286732456,-0.031406335663377194,0.06218732867324561
1588960382.0735934,0.5564283537657345,-2.182141768828673,-9.496428353765735,-0.4922222222222222,0.16333333333333333,0.7244444444444444,-0.04911394482079651,0.0580316331075221,0.0
1588960382.0835934,0.5530529108787264,-2.1930529108787264,-9.541682534727641,-0.4922222222222222,0.16333333333333333,0.7244444444444444,0.14933861401592008,0.03816138598407992,0.04341930700796004
1588960382.0935934,0.5388221580817052,-2.19,-9.526466474245115,-0.4922222222222222,0.16333333333333333,0.7244444444444444,0.047776976021314393,0.0349307559946714,0.0625
1588960382.1035933,0.5364820152901366,-2.183517984709863,-9.5,-0.4922222222222222,0.16333333333333333,0.7244444444444444,-0.0827562977816769,0.042243702218323104,0.0219874044366462
1588960382.1135933,0.552580486303478,-2.168709756848261,-9.494839027393045,-0.4912186997708697,0.16232981088198079,0.7205737149892274,-0.13306401969836873,0.024192059095106185,-0.05443598030163127
1588960382.1235933,0.560006957413307,-2.16,-9.469993042586694,-0.4844444444444445,0.15555555555555556,0.6944444444444444,-0.12504348383316854,0.24995651616683146,0.0
1588960382.1335933,0.55,-2.16,-9.530518261214768,-0.4844444444444445,0.15555555555555556,0.6944444444444444,0.007664251687177451,0.20725362246923384,0.035082125843588725
1588960382.1435933,0.5442762360814631,-2.1771712917556107,-9.547104944325852,-0.4844444444444445,0.15555555555555556,0.6944444444444444,0.0625,0.0892264755091444,-0.009047048981711187
1588960382.1535933,0.5499097420156399,-2.18009025798436,-9.495315902945261,-0.4844444444444445,0.15555555555555556,0.6944444444444444,-0.061371775195498066,0.09346794379887452,-0.0625
1588960382.1635933,0.56,-2.1671000121423076,-9.462899987857693,-0.48251111920598305,0.1578111016670939,0.7031444080175209,-0.1875,0.10687507588942405,-0.04437507588942405
1588960382.1735933,0.56,-2.16,-9.47,-0.4777777777777778,0.16333333333333333,0.7244444444444444,-0.1704228578257579,0.09665428434848425,0.03415428434848425
1588960382.1835933,0.5689211368341803,-2.16,-9.510145115753811,-0.4777777777777778,0.16333333333333333,0.7244444444444444,-0.09712144739318652,0.10386434217955957,0.1528785526068135
1588960382.1935933,0.5716617240345206,-2.1725074139482192,-9.530816034120823,-0.4777777777777778,0.16333333333333333,0.7244444444444444,0.06778556196061444,0.02605711239212289,0.10932866282363134
1588960382.2035933,0.5635577678805345,-2.182884464238931,-9.482884464238932,-0.4777777777777778,0.16333333333333333,0.7244444444444444,0.16105580298663874,-0.004208147760020958,0.0
1588960382.2135932,0.5696624748930224,-2.170675050213955,-9.470675050213956,-0.4777777777777778,0.16333333333333333,0.7244444444444444,0.008438127674438911,-0.1186714042441708,0.0
1588960382.2235932,0.5570897036370862,-2.1712691109112585,-9.488730889088743,-0.4777777777777778,0.16333333333333333,0.7388888888888889,-0.08862129546357686,0.007931943195365276,0.0
1588960382.2335932,0.5470351943983786,-2.155929611203243,-9.530753639211351,-0.4777777777777778,0.16333333333333333,0.7388888888888889,0.0,-0.06940989496959646,0.0
1588960382.2435932,0.5512910079051383,-2.17,-9.568708992094862,-0.4777777777777778,0.16333333333333333,0.7388888888888889,0.04704586627140975,-0.008068799407114621,-0.04704586627140975
1588960382.2535932,0.57,-2.172570878930272,-9.53714560534864,-0.4777777777777778,0.16333333333333333,0.7388888888888889,0.125,-0.1169660033428995,-0.10893200668579898
1588960382.2635932,0.5602809535668198,-2.183520635711213,-9.45,-0.48245731865301267,0.1654931214295956,0.7360091714272059,0.06425595979262413,-0.10299602680491725,-0.04049602680491725
1588960382.2735932,0.5444032216917527,-2.1655967783082475,-9.458806443383505,-0.4922222222222222,0.17,0.73,-0.11754027114690768,-0.13245972885309232,-0.04243959327963848
1588960382.2835932,0.5563535990823057,-2.16,-9.533535990823058,-0.4922222222222222,0.17,0.73,0.011049971322053348,0.056629982793232,-0.016919988528821345
1588960382.2935932,0.56,-2.1714611519134133,-9.529885968303054,-0.4922222222222222,0.17,0.73,0.08918390027058368,0.05336780054116737,-0.13413219945883265
1588960382.3035932,0.564195493011315,-2.1883909860226303,-9.487413520966054,-0.4922222222222222,0.17,0.73,0.08872183132071884,-0.026221831320718834,-0.13505633735856232
1588960382.3135931,0.5645502266762109,-2.1918253400143164,-9.459100453352422,-0.48677244889843313,0.1681834088920703,0.7227336355682812,0.0568778334526366,-0.0625,-0.045469458363159146
1588960382.3235931,0.5539486295466299,-2.16605137045337,-9.473434925012928,-0.4722222222222222,0.16333333333333333,0.7033333333333334,-0.14967893466643684,-0.0625,0.024678934666436822
1588960382.3335931,0.56,-2.16,-9.547426770598623,-0.4722222222222222,0.16333333333333333,0.7033333333333334,-0.1642913418793009,-0.0625,0.039291341879300896
1588960382.3435931,0.5597730367680436,-2.16,-9.559092147072175,-0.4722222222222222,0.16333333333333333,0.7033333333333334,-0.11932591920108943,-0.05824443940081707,-0.001418520199727644
1588960382.353593,0.5523030963227042,-2.16,-9.510787614709184,-0.4722222222222222,0.16333333333333333,0.7033333333333334,0.13939435201690104,0.125,-0.03371129596619793
1588960382.363593,0.559225754274774,-2.16,-9.483096982900905,-0.4722222222222222,0.16333333333333333,0.7033333333333334,0.18266096421733677,0.125,0.052821928434673524
1588960382.373593,0.5579743611878454,-2.17,-9.457974361187846,-0.4922222222222222,0.17,0.7155555555555555,0.03637830196823205,0.08701927227209945,-0.0996795148480663
1588960382.383593,0.5541696939329409,-2.165830306067059,-9.475018163597644,-0.4922222222222222,0.17,0.7155555555555555,-0.2864394129191198,-0.0625,0.0
1588960382.393593,0.5659627307374818,-2.158074538525036,-9.553850922949927,-0.4922222222222222,0.17,0.7155555555555555,-0.11180120132778334,-0.012034134218522223,-0.02523293289073889
1588960382.403593,0.56,-2.172078965849091,-9.515447239056362,-0.4922222222222222,0.17,0.7155555555555555,0.038980609670455434,0.04950646344318152,-0.04950646344318152
1588960382.413593,0.5655010773282261,-2.177249461335887,-9.457249461335888,-0.4867211448939962,0.168166307557258,0.7143330939270609,0.17030913334929376,0.0,-0.01719086665070625
1588960382.423593,0.5691724436741767,-2.17,-9.446390814558058,-0.4722222222222222,0.16333333333333333,0.7111111111111111,0.05732777296360486,-0.022557409012131716,-0.0625
1588960382.433593,0.5549887540415164,-2.1650112459584836,-9.504853802539712,-0.4722222222222222,0.16333333333333333,0.7111111111111111,-0.09367971275947706,-0.00014057448104586728,-0.09367971275947706
1588960382.443593,0.5649952608938683,-2.1649952608938685,-9.545023695530658,-0.4722222222222222,0.16333333333333333,0.7111111111111111,-0.125,0.12494076117335406,-0.125
1588960382.453593,0.5739832089552238,-2.162033582089552,-9.504067164179105,-0.4722222222222222,0.16333333333333333,0.7111111111111111,-0.0005247201492537268,0.11281483208955224,-0.0752098880597015
1588960382.463593,0.58,-2.1529976805319313,-9.471006958404207,-0.47588605398347167,0.16766331632390083,0.7167733965603148,0.1687644966754291,0.0,-0.018735503324570902
1588960382.473593,0.5720035629945727,-2.16,-9.47398931101628,-0.4844444444444445,0.17777777777777778,0.73,0.050033403074118576,-0.024988865641960477,-0.03751113435803952
1588960382.483593,0.56,-2.1624679377402294,-9.529743501921832,-0.4844444444444445,0.17777777777777778,0.73,-0.09334922175286373,-0.03165077824713628,0.01542461087643186
1588960382.493593,0.5617073788586111,-2.1682926211413887,-9.585731552853472,-0.4844444444444445,0.17777777777777778,0.73,-0.18216444106684038,0.0625,0.04649332320052112
1588960382.503593,0.5701589597508597,-2.1549205201245702,-9.522778179564003,-0.4844444444444445,0.17777777777777778,0.73,-0.04811687305359172,0.03174674922143669,-0.10962337461071835
1588960382.513593,0.5453966614024471,-2.1673016692987765,-9.479444157454283,-0.4844444444444445,0.17777777777777778,0.73,0.14533858279338185,-0.04563543311735274,-0.07093228344132363
1588960382.523593,0.5483503894913702,-2.17,-9.46164961050863,-0.48769181813553286,0.168499567231811,0.7239691631451216,0.21359496716053153,-0.03640503283946846,0.015784901481594615
1588960382.533593,0.5590277989919047,-2.17,-9.450972201008094,-0.4918441440524074,0.1566357788978837,0.7162577007280688,0.24696187184970214,-0.0030381281502978516,0.11588561554910645
1588960382.543593,0.5647315936270202,-2.16763420318649,-9.525268406372978,-0.4922222222222222,0.15555555555555556,0.7155555555555555,-0.032927539831123676,0.1431413097466855,0.0
1588960382.553593,0.579463216366346,-2.160536783633654,-9.508926432732691,-0.4922222222222222,0.15555555555555556,0.7155555555555555,0.06920979542067471,-0.0033548977103373527,-0.006709795420674705
1588960382.563593,0.5679662146499768,-2.17,-9.481864858599907,-0.48815465152217585,0.15713738860557358,0.7189451978055942,0.1875,-0.011655366249420492,-0.08686652468706538
1588960382.573593,0.5635751397892028,-2.173575139789203,-9.471450838735217,-0.4722222222222222,0.16333333333333333,0.7322222222222222,0.12046612895244693,0.23218924736503538,-0.0045338710475530675
1588960382.583593,0.5659836580766813,-2.18,-9.526065367693274,-0.4722222222222222,0.16333333333333333,0.7322222222222222,0.0,0.18698931489629164,-0.04969358893777499
1588960382.593593,0.56,-2.1758666332528365,-9.529333166264182,-0.4722222222222222,0.16333333333333333,0.7322222222222222,-0.025833542169772634,-0.025833542169772634,0.010832915660454731
1588960382.6035929,0.56,-2.1667463730257603,-9.496746373025761,-0.4722222222222222,0.16333333333333333,0.7322222222222222,-0.042164831411003495,-0.0625,-0.0625
1588960382.6135929,0.5646682471064008,-2.164668247106401,-9.4829976293404,-0.47351895752955575,0.1677422333782674,0.7283320163002216,0.04376481662250732,-0.0625,-0.07708827220750245
1588960382.6235929,0.5659282151113274,-2.176482053777832,-9.456482053777831,-0.4777777777777778,0.18222222222222226,0.7155555555555555,0.16551283611144907,-0.10647432777710183,-0.08102567222289817
1588960382.6335928,0.5425987808398282,-2.1751975616796564,-9.481185370077938,-0.4777777777777778,0.18222222222222226,0.7155555555555555,0.10875761975107398,-0.15501523950214796,-0.03248476049785203
1588960382.6435928,0.5497206798770652,-2.1894413597541305,-9.566648158524783,-0.4777777777777778,0.18222222222222226,0.7155555555555555,0.06424575076834259,-0.06599150153668518,-0.12150849846331482
1588960382.6535928,0.5515960467487646,-2.1784039532512356,-9.53042371950741,-0.4777777777777778,0.18222222222222226,0.7155555555555555,-0.05252470782022119,0.09507412346066357,0.0625
1588960382.6635928,0.5581758569299553,-2.1718241430700447,-9.490944858420269,-0.4777777777777778,0.18222222222222226,0.7155555555555555,-0.011400894187779433,-0.028297317436661695,0.0625
1588960382.6735928,0.5683816543344945,-2.163236691331011,-9.448381654334494,-0.4722222222222222,0.15555555555555556,0.7244444444444444,0.04045864163763568,0.04227067918118216,-0.11488533959059108
1588960382.6835928,0.56,-2.1826197476417986,-9.466197476417983,-0.4722222222222222,0.15555555555555556,0.7244444444444444,0.20087973171628076,-0.046126577238760263,-0.07887342276123974
1588960382.6935928,0.56,-2.1888747379047913,-9.538874737904791,-0.4722222222222222,0.15555555555555556,0.7244444444444444,0.055467111904946804,0.0070328880950531955,-0.1179671119049468
1588960382.7035928,0.56,-2.180731730993244,-9.530731730993244,-0.4722222222222222,0.15555555555555556,0.7244444444444444,0.004573318707773548,0.05792668129222645,-0.06707331870777355
1588960382.7135928,0.5324763313609467,-2.167523668639053,-9.480825443786983,-0.472680802103879,0.15619756738987509,0.7237107166337936,0.0625,-0.23452292899408284,0.005159023668639053
1588960382.7235928,0.559067413355875,-2.140932586644125,-9.489689137785291,-0.47760507654738427,0.16309155161078237,0.7158318775241852,0.0625,-0.0683286665257819,0.0605571111580727
1588960382.7335927,0.56,-2.1767026523330077,-9.509676129002932,-0.4777777777777778,0.16333333333333333,0.7155555555555555,0.0,-0.125,-0.0418915770812973
1588960382.7435927,0.556731501168071,-2.17,-9.560194503504214,-0.4777777777777778,0.16333333333333333,0.7155555555555555,0.0,-0.08414376460088721,0.0
1588960382.7535927,0.55,-2.17,-9.519536877600803,-0.4777777777777778,0.16333333333333333,0.7155555555555555,-0.036541289998565075,0.018270644999282538,0.0
1588960382.7635927,0.5525770491803279,-2.17,-9.47,-0.4777777777777778,0.16333333333333333,0.7155555555555555,-0.10889344262295082,0.07323770491803279,-0.021475409836065575
1588960382.7735927,0.5732989400212429,-2.1666494700106216,-9.459948410031865,-0.4777777777777778,0.16333333333333333,0.7155555555555555,-0.00032243730084755007,0.1456183751327683,-0.16623675026553658
1588960382.7835927,0.5574222700130409,-2.1651554599739185,-9.463199569882633,-0.4777777777777778,0.16333333333333333,0.7155555555555555,-0.028335125489029722,0.0625,-0.03222162483699009
1588960382.7935927,0.5518886039716143,-2.1818886039716143,-9.524334188085156,-0.4777777777777778,0.16333333333333333,0.7155555555555555,0.16737357624187488,0.02708867553223209,-0.07778490070964279
1588960382.8035927,0.5593913167615411,-2.189391316761541,-9.49979710558718,-0.4777777777777778,0.16333333333333333,0.7155555555555555,-0.1875,-0.12246381983975446,0.12119572975963168
1588960382.8135927,0.5369374899623477,-2.166937489962348,-9.492312496654115,-0.4777777777777778,0.16333333333333333,0.7155555555555555,-0.1875,-0.02890620817644854,-0.019140687735327178
1588960382.8235927,0.56,-2.17,-9.462787196396977,-0.4844444444444445,0.16333333333333333,0.73,-0.24419334083963326,0.005806659160366736,0.0625
1588960382.8335927,0.5550089256734827,-2.17,-9.532477685816293,-0.4844444444444445,0.16333333333333333,0.73,-0.09380578545926647,0.0782086781888997,0.031305785459266475
1588960382.8435926,0.5421957983006855,-2.17,-9.56560840339863,-0.4844444444444445,0.16333333333333333,0.73,0.006861869689642168,-0.05563813031035783,-0.0625
