time,acc_x,acc_y,acc_z,mag_x,mag_y,mag_z,gyr_x,gyr_y,gyr_z
1588960398.5637267,0.82,-2.19,-9.55,-0.5111111111111111,0.15222222222222226,0.6488888888888888,0.0625,0.875,0.1875
1588960398.5737267,0.8011343078835684,-2.1977313842328634,-9.451134307883567,-0.5103549058553988,0.15512100903578593,0.6488888888888888,0.048321151455395034,0.6037317271830925,0.39626827281690746
1588960398.5837266,0.81,-2.18,-9.460405570486197,-0.5044444444444445,0.17777777777777778,0.6488888888888888,-0.0625,0.4286281456144637,0.5650348155387247
1588960398.5937266,0.8133108995012053,-2.1866217990024106,-9.509798095510847,-0.5044444444444445,0.17777777777777778,0.6488888888888888,-0.0625,-0.08277248753013054,0.6875
1588960398.6037266,0.8443317845723421,-2.20347596922462,-9.556096123101518,-0.5044444444444445,0.17777777777777778,0.6488888888888888,-0.0842248076538769,-0.2282751923461231,0.7092248076538769
1588960398.6137266,0.8867999838240052,-2.2003999514720154,-9.520399951472015,-0.5044444444444445,0.17777777777777778,0.6488888888888888,-0.14500010109996764,-0.3475008087997412,0.6299993934001942
1588960398.6237266,0.8780582093387214,-2.18,-9.492232837354885,-0.5031499173369254,0.18187711361825493,0.6583820876773623,-0.1753638083670085,-0.8816790661278644,0.33859142510102547
1588960398.6337266,0.8634518748717347,-2.184365416752177,-9.47527895863262,-0.4977777777777778,0.1988888888888889,0.6977777777777778,-0.11135807264944736,-1.7420677094022106,0.14657421794834208
1588960398.6437266,0.8376278159884488,-2.197627815988449,-9.537116552034654,-0.4977777777777778,0.1988888888888889,0.6977777777777778,-0.09215230014438976,-1.8485430995668306,-0.029652300144389757
1588960398.6537266,0.8311158378487478,-2.1911158378487476,-9.556652486453757,-0.4977777777777778,0.1988888888888889,0.6977777777777778,-0.1735520268906519,-1.6043439193280442,-0.11105202689065191
1588960398.6637266,0.8112724939481436,-2.197455012103713,-9.524910024207426,-0.4977777777777778,0.1988888888888889,0.6977777777777778,-0.17159382564820486,-1.1863753025928194,-0.11704691282410243
1588960398.6737266,0.8173889520809636,-2.185222095838073,-9.500444191676145,-0.4977777777777778,0.1988888888888889,0.6977777777777778,-0.09513809898795463,-0.8805523959518184,-0.0788190494939773
1588960398.6837265,0.7943275186899252,-2.1885574937700247,-9.447212531149875,-0.5139419326767138,0.18652806455440846,0.7101386021122582,-0.009015663937344251,-0.75,0.151437344250623
1588960398.6937265,0.7814775078722448,-2.181477507872245,-9.482612460638776,-0.5166666666666667,0.18444444444444444,0.7122222222222222,-0.10653115159694107,-0.21734424201529468,0.24076557579847052
1588960398.7037265,0.7928342710418005,-2.1971657289581996,-9.584331457916399,-0.5166666666666667,0.18444444444444444,0.7122222222222222,0.11614290299437374,0.160428388022505,0.34792838802250503
1588960398.7137265,0.8086719782501983,-2.181328021749802,-9.552656043499605,-0.5166666666666667,0.18444444444444444,0.7122222222222222,0.0666500679681305,0.358399728127478,0.545899728127478
1588960398.7237265,0.8301942608772785,-2.190097130438639,-9.489708608684083,-0.516483198060348,0.18425018356716585,0.7118768695515048,0.0,0.31128586951700893,0.6862858695170089
1588960398.7337265,0.8487967357076329,-2.1993983678538167,-9.46180489643855,-0.49891419405390225,0.1656477087368115,0.6788058031864302,0.0,0.1950204018272941,0.5700204018272941
1588960398.7437265,0.8450040660129156,-2.1775060990193733,-9.482518297058121,-0.4977777777777778,0.16444444444444445,0.6766666666666666,0.0,-0.4219639440325281,0.3749491748385554
1588960398.7537265,0.8520361832214092,-2.1973453944071366,-9.54203618322141,-0.4977777777777778,0.16444444444444445,0.6766666666666666,-0.016591284955397415,-0.8495477097323845,0.1709087150446026
1588960398.7637265,0.8252637401788895,-2.1923681299105553,-9.517631870089444,-0.4977777777777778,0.16444444444444445,0.6766666666666666,-0.0328983761180596,-1.0361951283541788,0.0953983761180596
1588960398.7737265,0.8096961400249346,-2.1993922800498695,-9.50939228004987,-0.4981829244111983,0.1652547377112855,0.6764978555694081,0.0587017503116826,-0.7348070012467304,0.0018991248441587014
1588960398.7837265,0.8006420080004508,-2.1806420080004507,-9.491284016000902,-0.5111111111111111,0.19111111111111112,0.6711111111111111,-0.05848744999718294,-0.25,0.05848744999718294
1588960398.7937264,0.81,-2.187878456263223,-9.524850806157438,-0.5111111111111111,0.19111111111111112,0.6711111111111111,-0.03977894506456555,-0.22348070329028963,0.03977894506456555
1588960398.8037264,0.81,-2.181974435343758,-9.574076693968728,-0.5111111111111111,0.19111111111111112,0.6711111111111111,-0.16281955820302804,-0.10031955820302804,0.17515977910151403
1588960398.8137264,0.8094905026845529,-2.189490502684553,-9.545414524160977,-0.5111111111111111,0.19111111111111112,0.6711111111111111,-0.0497625671138218,0.031843582215445504,0.13455307466463365
1588960398.8237264,0.802686986001395,-2.182686986001395,-9.484182874012555,-0.5111111111111111,0.19111111111111112,0.6711111111111111,0.12032534996512514,0.45706337491281285,0.26211901247384384
1588960398.8337264,0.7900320334261839,-2.1999359331476325,-9.47,-0.5044444444444445,0.17777777777777778,0.6844444444444444,-0.062299791086350975,0.4991991643454039,0.500200208913649
1588960398.8437264,0.7984389971862405,-2.1831220056275193,-9.482488022510077,-0.5044444444444445,0.17777777777777778,0.6844444444444444,-0.00975626758599711,0.1426810565540318,0.5722562675859971
1588960398.8537264,0.79,-2.198574018525233,-9.548574018525233,-0.5044444444444445,0.17777777777777778,0.6844444444444444,-0.0625,-0.5355362263902166,0.5982628473481227
1588960398.8637264,0.79,-2.191661172825263,-9.541661172825263,-0.5044444444444445,0.17777777777777778,0.6844444444444444,-0.0625,-1.010794368263177,0.468646990473679
1588960398.8737264,0.8109258364212448,-2.1813887546318673,-9.489537081789377,-0.5037757848068788,0.17808638991819273,0.6850616687252743,-0.3067135223672198,-1.8269661940819504,0.5086797164491703
1588960398.8837264,0.8259422157778852,-2.2039133236668276,-9.482028892111058,-0.49293062193819404,0.1830918497037395,0.695072588296368,-0.2128611513882176,-2.061597121529456,0.6494582729176737
1588960398.8937263,0.8327030706398426,-2.21,-9.515406141279685,-0.49,0.18444444444444444,0.6977777777777778,-0.1790529042504916,-1.9121587127514748,0.5540529042504916
1588960398.9037263,0.85,-2.21,-9.54401254246146,-0.49,0.18444444444444444,0.6977777777777778,-0.11252613012803762,-1.6377351711523387,0.4750522602560753
1588960398.9137263,0.8479477083862539,-2.207947708386254,-9.511790833545016,-0.49,0.18444444444444444,0.6977777777777778,-0.0625,-1.1233658870704357,0.32369270965634866
1588960398.9237263,0.8403374823093951,-2.2003374823093953,-9.481349929237581,-0.49,0.18444444444444444,0.6977777777777778,-0.0625,-0.885546322168596,0.1334370577348768
1588960398.9337263,0.8,-2.19,-9.49144040174799,-0.4844444444444445,0.18444444444444444,0.6911111111111111,-0.125,-0.8840025109249379,-0.125
1588960398.9437263,0.7983439230396285,-2.186687846079257,-9.514904692643343,-0.4844444444444445,0.18444444444444444,0.6911111111111111,-0.10429903799535584,-0.8960980759907117,-0.11464951899767792
1588960398.9537263,0.7863005502751376,-2.1755491745872937,-9.586300550275137,-0.4844444444444445,0.18444444444444444,0.6911111111111111,-0.011560780390195098,-0.6759392196098049,-0.027817658829414706
1588960398.9637263,0.7698256742179073,-2.199477022653722,-9.568605393743258,-0.4844444444444445,0.18444444444444444,0.6911111111111111,-0.0625,-0.618462783171521,0.12391046386192017
1588960398.9737263,0.7637928802588997,-2.181378640776699,-9.520343042071199,-0.4844444444444445,0.18444444444444444,0.6911111111111111,-0.0625,-0.39223300970873787,0.08620550161812299
1588960398.9837263,0.7662411830714972,-2.176241183071497,-9.458794084642513,-0.48791176837305406,0.17196207830144988,0.700819618111218,0.015514788393715936,-0.3670221825905739,0.1795221825905739
1588960398.9937263,0.77,-2.189926535589087,-9.430073464410913,-0.49,0.16444444444444445,0.7066666666666667,-0.06158169486358786,-0.8097450845907637,0.43612254229538183
1588960399.0037262,0.8366729095767763,-2.1804752986318894,-9.563345819153554,-0.49,0.16444444444444445,0.7066666666666667,-0.0625,-0.9910881506520796,0.4970293835506932
1588960399.0137262,0.84,-2.18,-9.531233540155213,-0.49,0.16444444444444445,0.7066666666666667,-0.0625,-1.0,0.2577096259700854
1588960399.0237262,0.8148292521326229,-2.1967804985782515,-9.486439002843497,-0.49,0.16444444444444445,0.7066666666666667,-0.0625,-1.1573171741711068,-0.022256232228142353
1588960399.0337262,0.7961438109124396,-2.18614381091244,-9.473071905456221,-0.5000072476743492,0.18291936322785837,0.7005083604055288,-0.10580059089862635,-1.057598227304121,-0.0625
1588960399.0437262,0.7796819974231836,-2.19,-9.530318002576816,-0.5044444444444445,0.19111111111111112,0.6977777777777778,-0.06183749463163237,-0.23807490336938272,0.0026500214734705035
1588960399.0537262,0.7551184945145044,-2.19,-9.554881505485495,-0.5044444444444445,0.19111111111111112,0.6977777777777778,-0.010663530238550732,0.6830564557060869,0.20734587904579707
1588960399.0637262,0.7734448287846941,-2.177703447476871,-9.531962066169047,-0.5044444444444445,0.19111111111111112,0.6977777777777778,0.11782327336522071,1.2018534532695586,0.3821767266347793
1588960399.0737262,0.7942702040681221,-2.1638198639545854,-9.483369523841048,-0.5044444444444445,0.19111111111111112,0.6977777777777778,0.07443707485807916,1.2886258502838417,0.42556292514192084
1588960399.0837262,0.7928791464743229,-2.1621593598557425,-9.46,-0.5044444444444445,0.1988888888888889,0.6911111111111111,0.125,1.0490040009016117,0.44199866636612944
1588960399.0937262,0.8243927269995116,-2.185794545249634,-9.46,-0.5044444444444445,0.1988888888888889,0.6911111111111111,0.125,0.9012840921897892,0.4912386359367369
1588960399.1037261,0.8134006829823562,-2.19,-9.560101024473534,-0.5044444444444445,0.1988888888888889,0.6911111111111111,0.1146885671599317,0.6043771343198634,0.5212542686397268
1588960399.1137261,0.78,-2.1912341876581234,-9.508765812341876,-0.5044444444444445,0.1988888888888889,0.6911111111111111,0.05478632713672863,0.48457265427345725,0.29707265427345725
1588960399.1237261,0.78,-2.1989236607633926,-9.501076339236608,-0.5044444444444445,0.1988888888888889,0.6911111111111111,0.006727120228797713,0.3884542404575954,0.2009542404575954
1588960399.1337261,0.771531400399108,-2.183062800798216,-9.483062800798216,-0.49879871137718307,0.18665646724315582,0.6911111111111111,0.10585749501115153,0.5337862425167273,0.1875
1588960399.143726,0.8013828863812874,-2.1906914431906435,-9.52207432957193,-0.4977777777777778,0.18444444444444444,0.6911111111111111,0.10771392023390744,0.7716075997076157,0.37932151994152313
1588960399.153726,0.8202927739843788,-2.1994144520312426,-9.548536130078107,-0.4977777777777778,0.18444444444444444,0.6911111111111111,-0.11951048779289679,1.0460314633786905,0.4375
1588960399.163726,0.8304747524267084,-2.18,-9.498575742719874,-0.4977777777777778,0.18444444444444444,0.6911111111111111,0.06546720266692813,0.49406559466614375,0.42266398666535937
1588960399.173726,0.8386996764388666,-2.18,-9.4739009706834,-0.4977777777777778,0.18444444444444444,0.6911111111111111,0.11687297774291597,0.39125404451416806,0.16563511128542013
1588960399.183726,0.7898536084914967,-2.1801463915085035,-9.460439174525511,-0.4977777777777778,0.17222222222222222,0.6911111111111111,0.06341494692814584,-0.25091494692814587,0.12225515921556249
1588960399.193726,0.7815785423982954,-2.1884214576017045,-9.485264372805114,-0.4977777777777778,0.17222222222222222,0.6911111111111111,0.11513411001065382,-0.3026341100106538,-0.03290233003196147
1588960399.203726,0.7795250281013082,-2.190474971898692,-9.58,-0.4977777777777778,0.17222222222222222,0.6911111111111111,0.0625,0.208280020567766,0.0625
1588960399.213726,0.7708266755220441,-2.1995866622389784,-9.57586662238978,-0.4977777777777778,0.17222222222222222,0.6911111111111111,0.06766672201277518,0.6327500830191628,0.06508336100638759
1588960399.223726,0.7872129002011994,-2.1913935498994004,-9.493935498994004,-0.4977777777777778,0.17222222222222222,0.6911111111111111,0.17008062625749615,0.7863709393862442,0.11629031312874807
1588960399.233726,0.8205073152517057,-2.170507315251706,-9.460507315251707,-0.5311111111111111,0.17222222222222222,0.6855555555555556,0.05932927967683899,0.427987839030517,0.184329279676839
1588960399.243726,0.8276261923351098,-2.17762619233511,-9.46762619233511,-0.5311111111111111,0.17222222222222222,0.6855555555555556,0.014836297905563664,0.294508893716691,0.13983629790556368
1588960399.253726,0.83,-2.170065031982942,-9.569349680170577,-0.5311111111111111,0.17222222222222222,0.6855555555555556,-0.06209355010660981,-0.3709355010660981,-0.061280650319829405
1588960399.263726,0.8048549866527508,-2.1867633422314996,-9.52809164442125,-0.5311111111111111,0.17222222222222222,0.6855555555555556,-0.0625,-0.6369272223671798,-0.16727088894687192
1588960399.273726,0.8,-2.19,-9.496400659406998,-0.5311111111111111,0.17222222222222222,0.6855555555555556,-0.0625,-0.9333264645104367,-0.13833470709791265
1588960399.283726,0.7868724073665859,-2.183436203683293,-9.476872407366587,-0.5136076542665589,0.18972567906677443,0.6892021090648373,-0.10352372697941925,-1.1230711809382576,-0.125
1588960399.293726,0.7703962198381037,-2.1607924396762077,-9.489207560323793,-0.5044444444444445,0.1988888888888889,0.6911111111111111,-0.004952747976296523,-0.947405495952593,-0.125
1588960399.303726,0.77977100694859,-2.18931302084577,-9.57793906253731,-0.5044444444444445,0.1988888888888889,0.6911111111111111,0.0,-0.38788085914181336,-0.125
1588960399.313726,0.7881469407227767,-2.1818530592772234,-9.547412237108892,-0.5044444444444445,0.1988888888888889,0.6911111111111111,0.0,-0.018571343378523453,-0.125
1588960399.323726,0.8129235670281793,-2.1723588109906067,-9.478870487924857,-0.5044444444444445,0.1988888888888889,0.6911111111111111,0.0,0.3012871565435338,0.01827229392612026
1588960399.333726,0.8142084892975252,-2.175791510702475,-9.465791510702475,-0.49607892898531414,0.19052337342975856,0.6878936051652917,-0.03619694189046771,0.3026061162190646,0.0625
1588960399.343726,0.816575639813745,-2.18,-9.47,-0.49,0.18444444444444444,0.6855555555555556,-0.02140225116409341,0.16780450232818683,0.10359774883590658
1588960399.353726,0.799923731723627,-2.1999618658618134,-9.549809329309069,-0.49,0.18444444444444444,0.6855555555555556,-0.062261661636334065,-0.12643003018199564,-0.0625
1588960399.363726,0.7847629719325514,-2.192381485966276,-9.511907429831378,-0.49,0.18444444444444444,0.6855555555555556,-0.014884287289223037,-0.41069427626466176,-0.0625
1588960399.373726,0.7874716883116883,-2.1825283116883116,-9.5,-0.49,0.18444444444444444,0.6855555555555556,0.046698051948051954,-0.546698051948052,0.030896103896103908
1588960399.383726,0.79,-2.18,-9.45190627988524,-0.4977777777777778,0.19111111111111112,0.6911111111111111,0.0,-0.6845214376793114,-0.12351071883965573
1588960399.3937259,0.79,-2.18,-9.50538795027096,-0.4977777777777778,0.19111111111111112,0.6911111111111111,0.0,-0.6009563277016258,-0.08172816385081288
1588960399.4037259,0.7814046543411413,-2.18,-9.572976728294295,-0.4977777777777778,0.19111111111111112,0.6911111111111111,0.0,-0.4013372688963972,-0.0625
1588960399.4137259,0.78,-2.1873860980744344,-9.543069509627827,-0.4977777777777778,0.19111111111111112,0.6911111111111111,0.0,-0.375,-0.01633688703478378
1588960399.4237258,0.78,-2.19,-9.496149941615233,-0.4977777777777778,0.19111111111111112,0.6911111111111111,0.04231257298095942,-0.20574970807616233,0.0
1588960399.4337258,0.78,-2.1776049512083304,-9.473802475604165,-0.5094842127476878,0.1828477452499982,0.6876680420023141,0.0625,0.06867263736983431,0.038734527473966864
1588960399.4437258,0.7887100898533225,-2.1961302695599674,-9.478710089853323,-0.5166666666666667,0.17777777777777778,0.6855555555555556,0.008061938416734735,0.13306193841673475,0.11693806158326527
1588960399.4537258,0.79,-2.185485508619057,-9.530800719833302,-0.5166666666666667,0.17777777777777778,0.6855555555555556,0.0,0.261073356696344,0.079642214434552
1588960399.4637258,0.7802516593901964,-2.1897483406098037,-9.55,-0.5166666666666667,0.17777777777777778,0.6855555555555556,-0.0609271288112732,0.1906457423774536,-0.0593542576225464
1588960399.4737258,0.795337747359024,-2.174662252640976,-9.488649010563904,-0.5166666666666667,0.17777777777777778,0.6855555555555556,0.033360920993899715,0.13956953950305015,0.033360920993899715
1588960399.4837258,0.8,-2.195843463487507,-9.461385512170832,-0.5061378482087935,0.17299195120601724,0.6960843740134288,0.008659451067693842,0.07115945106769384,0.0625
1588960399.4937258,0.8,-2.191325438821418,-9.46,-0.5044444444444445,0.17222222222222222,0.6977777777777778,0.10843201473227813,0.008283992633860933,-0.045932014732278134
1588960399.5037258,0.781240719182512,-2.19,-9.563176044496185,-0.5044444444444445,0.17222222222222222,0.6977777777777778,0.0077544948906997785,-0.3517365153279007,-0.0038772474453498892
1588960399.5137258,0.7894116667063332,-2.1711766665873338,-9.541764999881,-0.5044444444444445,0.17222222222222222,0.6977777777777778,-0.05882291691458219,-0.375,-0.11764583382916438
1588960399.5237257,0.7845451907131011,-2.17,-9.523635572139304,-0.5044444444444445,0.17222222222222222,0.6977777777777778,-0.0625,-0.4431851160862355,-0.125
1588960399.5337257,0.776476494396015,-2.1805705168119554,-9.49590597758406,-0.5044444444444445,0.16948171786356717,0.6954287740417878,-0.0625,-0.5220219100249066,-0.1029780899750934
1588960399.5437257,0.7804571192395123,-2.1790857615209758,-9.480457119239512,-0.5044444444444445,0.16444444444444445,0.6911111111111111,0.002856995246951849,-0.5625,-0.0625
1588960399.5537257,0.7833563550512703,-2.186574579794919,-9.529861869692379,-0.5044444444444445,0.16444444444444445,0.6911111111111111,-0.02054556185912118,-0.5209772190704394,-0.02097721907043941
1588960399.5637257,0.7912640722724115,-2.1943679638637943,-9.538735927727588,-0.5044444444444445,0.16444444444444445,0.6911111111111111,0.007900451702571226,-0.42959954829742875,0.03520022585128561
1588960399.5737257,0.7898255919578514,-2.1849127959789256,-9.509651183915702,-0.5044444444444445,0.16444444444444445,0.6911111111111111,0.0625,-0.3432049748682856,-0.0010900502634288156
1588960399.5837257,0.7721964984677003,-2.1878035015323,-9.466589495403102,-0.49924211008957803,0.17051383452512195,0.6911111111111111,0.1112718845768729,-0.3125,-0.1600437691537458
1588960399.5937257,0.7783461196219428,-2.1816538803780574,-9.46,-0.4977777777777778,0.17222222222222222,0.6911111111111111,-0.031489742911425894,-0.7298059810971358,-0.031010257088574106
1588960399.6037257,0.7736162388494447,-2.1736162388494447,-9.530221372656108,-0.4977777777777778,0.17222222222222222,0.6911111111111111,0.05719552157291098,-0.9720940287638813,-0.07979701438194065
1588960399.6137257,0.77,-2.17,-9.545596124088128,-0.4977777777777778,0.17222222222222222,0.6911111111111111,0.02331718370053791,-1.2150242244491931,-0.17584140814973104
1588960399.6237257,0.7771490879485142,-2.1771490879485143,-9.50425456025743,-0.4977777777777778,0.17222222222222222,0.6911111111111111,0.08936359935642701,-1.071272801287146,-0.1428182003217865
1588960399.6337256,0.78,-2.188093667350153,-9.481906332649848,-0.4914827031721032,0.17222222222222222,0.6794202582720011,0.023829158123086988,-0.898829158123087,-0.1755854209384565
1588960399.6437256,0.78,-2.1811685599940343,-9.515325760023863,-0.49,0.17222222222222222,0.6766666666666666,-0.11039300007457306,-0.875,-0.07710699992542694
1588960399.6537256,0.78,-2.18,-9.57345613741298,-0.49,0.17222222222222222,0.6766666666666666,-0.18068347647185473,-1.2091008588311285,-0.17386695294370946
1588960399.6637256,0.78,-2.18,-9.519461910380086,-0.49,0.17222222222222222,0.6766666666666666,0.0287074629282624,-1.4121555971961968,-0.2956037314641312
1588960399.6737256,0.7738360140695967,-2.186163985930403,-9.49150804220879,-0.49,0.17222222222222222,0.6766666666666666,-0.13012456032510328,-1.668649472390124,-0.2739750879349793
1588960399.6837256,0.7584127550716878,-2.19,-9.462619132607532,-0.48678132085324666,0.16771607141676748,0.6888976474243296,-0.17757971919804866,-1.8125,-0.28621014040097564
1588960399.6937256,0.7550006295303704,-2.1950006295303703,-9.455000629530371,-0.4844444444444445,0.16444444444444445,0.6977777777777778,-0.031238196305556062,-1.7812460654351854,-0.2812460654351854
1588960399.7037256,0.7548690795677088,-2.1948690795677086,-9.521571045187496,-0.4844444444444445,0.16444444444444445,0.6977777777777778,-0.001636505403641117,-1.4934539783854355,-0.21793174729817943
1588960399.7137256,0.742535207580755,-2.182535207580755,-9.527746453065284,-0.4844444444444445,0.16444444444444445,0.6977777777777778,0.030809905240563318,-0.830105426417465,-0.09419009475943668
1588960399.7237256,0.7462395791021103,-2.1737604208978896,-9.491281262693668,-0.4844444444444445,0.16444444444444445,0.6977777777777778,0.0625,-0.3365236755062961,-0.023502630611810675
1588960399.7337255,0.7564959584295612,-2.176495958429561,-9.467008083140879,-0.4880533102386451,0.17310572235052604,0.6840640877598152,0.0625,-0.2467992205542725,-0.081199480369515
1588960399.7437255,0.7523000413351245,-2.1876999586648753,-9.46,-0.49,0.17777777777777778,0.6766666666666666,-0.08187422496641522,-0.40874948331094346,-0.125
1588960399.7537255,0.7558383841953668,-2.1841616158046335,-9.524222226149035,-0.49,0.17777777777777778,0.6766666666666666,-0.125,-0.4375,-0.125
1588960399.7637255,0.76,-2.187066779374472,-9.52759932375317,-0.49,0.17777777777777778,0.6766666666666666,-0.08083262890955198,-0.393332628909552,-0.03666525781910397
1588960399.7737255,0.76,-2.19,-9.486534837992648,-0.49,0.17777777777777778,0.6766666666666666,0.04749294690946397,-0.484992946909464,-0.03666431563648799
1588960399.7837255,0.7664366192080571,-2.1771267615838856,-9.463563380791944,-0.4950062593840444,0.17420187821774605,0.6959765242908379,0.125,-0.6831866101510705,-0.022271129949643156
1588960399.7937255,0.7462797054695003,-2.1779067648435,-9.4995338242175,-0.4977777777777778,0.17222222222222222,0.7066666666666667,0.026165439456251383,-0.7994172802718743,-0.04941728027187431
1588960399.8037255,0.7552700789918269,-2.1723649605040865,-9.571080315967308,-0.4977777777777778,0.17222222222222222,0.7066666666666667,0.0,-0.9556569905483767,-0.20565699054837677
1588960399.8137255,0.7525928705440901,-2.17,-9.54555722326454,-0.4977777777777778,0.17222222222222222,0.7066666666666667,-0.09258911819887429,-1.2777673545966228,-0.25
1588960399.8237255,0.763246842364849,-2.17,-9.503506315270302,-0.4977777777777778,0.17222222222222222,0.7066666666666667,-0.08360361760984711,-1.747567441511376,-0.29139638239015286
1588960399.8337255,0.7473146865258053,-2.1643286716314516,-9.478657343262903,-0.4977777777777778,0.18293473136281416,0.694693862333064,-0.0625,-2.2210664184274336,-0.4542832092137167
1588960399.8437254,0.723619581964592,-2.179141254106224,-9.450858745893775,-0.4977777777777778,0.19111111111111112,0.6855555555555556,0.01725522544260008,-2.4375,-0.48274477455739995
1588960399.8537254,0.72,-2.19,-9.499347204893951,-0.4977777777777778,0.19111111111111112,0.6855555555555556,0.025407996941280632,-1.84402795106049,-0.3262239908238419
1588960399.8637254,0.7465774273402402,-2.18335564316494,-9.52671128632988,-0.4977777777777778,0.19111111111111112,0.6855555555555556,-0.08305446043825067,-0.9807004675896214,-0.125418309342624
1588960399.8737254,0.7539659741980747,-2.18,-9.501897922594225,-0.4977777777777778,0.19111111111111112,0.6855555555555556,-0.0495746774759325,-0.5237240324277974,-0.0625
1588960399.8837254,0.7258970781123545,-2.1739742695280886,-9.483974269528089,-0.49309109852184674,0.18307680381522928,0.6929203372434473,-0.03766081544944604,-0.4879824463483381,-0.0625
1588960399.8937254,0.7222210212859821,-2.17,-9.522773574500938,-0.49,0.17777777777777778,0.6977777777777778,-0.0625,-0.6388813830373883,-0.10069069151869417
1588960399.9037254,0.7390008700964511,-2.1745004350482255,-9.563501305144676,-0.49,0.17777777777777778,0.6977777777777778,-0.09062771905140975,-0.5749891237943611,-0.125
1588960399.9137254,0.75,-2.18,-9.549304759174312,-0.49,0.17777777777777778,0.6977777777777778,-0.04278060493119265,-0.38268706995412843,-0.125
1588960399.9237254,0.7551643146350092,-2.1696713707299815,-9.494507056094973,-0.49,0.17777777777777778,0.6977777777777778,0.0625,-0.44160786587523093,-0.2218308994064232
1588960399.9337254,0.76,-2.16,-9.457119482747245,-0.4868221503815619,0.18540461686202928,0.6977777777777778,0.02674919179257109,-0.8842572738668601,-0.3125
1588960399.9437253,0.76,-2.165526325829836,-9.451052651659673,-0.4844444444444445,0.19111111111111112,0.6977777777777778,-0.06907907287294925,-1.4703953643647463,-0.45065814574589846
1588960399.9537253,0.7430912249687586,-2.1869087750312417,-9.533271358468713,-0.4844444444444445,0.19111111111111112,0.6977777777777778,-0.05454677070316072,-2.172719375781036,-0.7386330732420983
1588960399.9637253,0.72324118021236,-2.2,-9.56972354063708,-0.4844444444444445,0.19111111111111112,0.6977777777777778,0.0,-2.795698365709253,-0.9594852473455008
1588960399.9737253,0.7091759868731257,-2.189175986873126,-9.527527960619377,-0.4844444444444445,0.19111111111111112,0.6977777777777778,-0.0676500820429641,-2.869849917957036,-0.8985248769355538
1588960399.9837253,0.7038093281726382,-2.1838093281726385,-9.484762687309447,-0.4844444444444445,0.18391571345168337,0.6952382256626857,-0.0773833978420222,-2.788691698921011,-0.7886916989210111
1588960399.9937253,0.7058276921148301,-2.19,-9.45165538422966,-0.4844444444444445,0.17222222222222222,0.6911111111111111,-0.026076924282311644,-2.6456923028707533,-0.7239230757176883
1588960400.0037253,0.7061016594799424,-2.19,-9.494914935319482,-0.4844444444444445,0.17222222222222222,0.6911111111111111,0.013770743499281327,-2.1186462825035934,-0.6875
1588960400.0137253,0.6970301139772045,-2.1770301139772044,-9.49757528494301,-0.4844444444444445,0.17222222222222222,0.6911111111111111,0.14356178764247152,-1.5102219556088783,-0.6064382123575285
1588960400.0237253,0.6954101090188305,-2.180820218037661,-9.47458989098117,-0.4844444444444445,0.17222222222222222,0.6911111111111111,0.1536868186323092,-1.0419945490584737,-0.4610604558969277
1588960400.0337253,0.7056199706841365,-2.1731400879475906,-9.47,-0.48756665038007585,0.1790910752806113,0.6948577582338689,0.0898751832241467,-0.6368759161207335,-0.375
1588960400.0437253,0.71,-2.16,-9.491446611284589,-0.49,0.18444444444444444,0.6977777777777778,0.0625,-0.5670206602643414,-0.3079793397356586
1588960400.0537252,0.71,-2.156613818208696,-9.533703272539128,-0.49,0.18444444444444444,0.6977777777777778,-0.0009909085869505008,-0.7096545447826007,-0.27116363619565015
1588960400.0637252,0.71,-2.154854391918554,-9.570291216162891,-0.49,0.18444444444444444,0.6977777777777778,-0.09466005050903639,-0.8294900757635546,-0.3125
1588960400.0737252,0.71,-2.1795194661199555,-9.501922135520177,-0.49,0.18444444444444444,0.6977777777777778,0.0,-0.7172483316248615,-0.3719966632497228
1588960400.0837252,0.7060870874348582,-2.1821741748697163,-9.452174174869716,-0.4878261596860323,0.1818358360676832,0.6929953290870489,0.09782281412854661,-0.7989114070642733,-0.4375
1588960400.0937252,0.7104739188586714,-2.17,-9.433017387427553,-0.4844444444444445,0.17777777777777778,0.6855555555555556,0.18453800713330362,-0.8095380071333036,-0.48114132857779757
1588960400.1037252,0.73,-2.1601243655805664,-9.469378172097167,-0.4844444444444445,0.17777777777777778,0.6855555555555556,0.0625,-0.7800840726821898,-0.5933613575607299
1588960400.1137252,0.7249908062725506,-2.1449908062725505,-9.5099816125451,-0.4844444444444445,0.17777777777777778,0.6855555555555556,0.031192539203441574,-1.0315373039827922,-0.6876149215931169
1588960400.1237252,0.7094166800578499,-2.14352777331405,-9.48941668005785,-0.4844444444444445,0.17777777777777778,0.6855555555555556,0.022048583212812684,-1.0331599175103112,-0.8822914992768761
1588960400.1337252,0.69,-2.15,-9.477735520647492,-0.4844444444444445,0.17777777777777778,0.690282818173467,0.03832649797658935,-0.48409147774248296,-1.1975205060702319
1588960400.1437252,0.680213053530144,-2.189147785879424,-9.514467366174639,-0.4844444444444445,0.17777777777777778,0.6977777777777778,0.12233683087319937,0.5185999466476969,-1.3430842077182998
1588960400.1537251,0.6831923101447427,-2.2168076898552576,-9.561987183574571,-0.4844444444444445,0.17777777777777778,0.6977777777777778,0.14006408212714405,1.5647436714914238,-1.402483979468214
1588960400.1637251,0.7025136834319526,-2.1899452662721894,-9.574917899408284,-0.4844444444444445,0.17777777777777778,0.6977777777777778,0.03142104289940829,2.125,-1.3746579142011834
1588960400.1737251,0.6972625173648477,-2.181229137725254,-9.513016689819796,-0.4844444444444445,0.17777777777777778,0.6977777777777778,0.125,1.8330993562777593,-1.107890733530298
1588960400.183725,0.7052111996138064,-2.1898310403089547,-9.464788800386193,-0.4872456888459785,0.17105479121409606,0.6871330490519484,0.125,1.374472000965484,-0.9369720009654839
1588960400.193725,0.7240756075607561,-2.158151215121512,-9.445924392439244,-0.49,0.16444444444444445,0.6766666666666666,0.08797254725472547,1.2754725472547255,-0.5417529252925293
1588960400.203725,0.7439833194328607,-2.126016680567139,-9.509958298582152,-0.49,0.16444444444444445,0.6766666666666666,-0.01244787322768974,0.8752606338615513,-0.23755212677231025
1588960400.213725,0.8089425981873112,-2.077371601208459,-9.544561933534743,-0.49,0.16444444444444445,0.6766666666666666,0.07345166163141992,0.591012084592145,-0.3234516616314199
1588960400.223725,0.8016818244589555,-2.0871678273392646,-9.521416086330367,-0.49,0.16444444444444445,0.6766666666666666,0.16427010791295943,0.12113205034622898,-1.320235899307542
1588960400.233725,0.72,-2.1641268674993874,-9.486468283125154,-0.49,0.17386235611070291,0.6817680354858899,0.125,-0.8898787656135194,-2.8787196914033797
1588960400.243725,0.731038810278292,-2.1716019828695132,-9.476320396573904,-0.49,0.19111111111111112,0.6911111111111111,0.10200247858689172,-1.5819776927179745,-2.9770024785868916
1588960400.253725,0.7424029107621601,-2.14886327077748,-9.47443163538874,-0.49,0.19111111111111112,0.6911111111111111,0.058543182688625045,-1.9414568173113749,-2.9295863653772503
1588960400.263725,0.6155296259516716,-2.28,-9.525529625951672,-0.49,0.19111111111111112,0.6911111111111111,0.0,-2.090439837802052,-2.511033873993159
1588960400.273725,0.6129367220496028,-2.258438796583995,-9.492751037267196,-0.49,0.19111111111111112,0.6911111111111111,0.02695150427000577,-1.8640819487599307,-1.7832274359499134
1588960400.283725,0.6350208595457254,-2.2249791404542747,-9.472510429772864,-0.49195255649000436,0.18636918820681486,0.6927847309596863,0.04680981391960797,-1.0452453479901993,-1.0774079531156877
1588960400.293725,0.6671114353845606,-2.2071480941025734,-9.482851905897427,-0.4977777777777778,0.17222222222222222,0.6977777777777778,0.05347323557675197,0.2141220592945866,-0.4733779407054134
1588960400.303725,0.7187607711113783,-2.204380385555689,-9.529423470001202,-0.4977777777777778,0.17222222222222222,0.6977777777777778,0.1601225902769428,0.27323554166165687,-0.19524518055388562
1588960400.313725,0.7254652224977163,-2.1873261124885817,-9.566395667493149,-0.4977777777777778,0.17222222222222222,0.6977777777777778,0.06831528122145375,-0.362635390839097,-0.15334235938927313
1588960400.323725,0.7017506112469438,-2.1691246943765283,-9.50437652811736,-0.4977777777777778,0.17222222222222222,0.6977777777777778,0.0,-0.9890586797066014,-0.24452933985330072
1588960400.333725,0.6836708860759494,-2.1763291139240506,-9.4573417721519,-0.4949226441631505,0.18405063291139243,0.7010407876230661,-0.022943037974683545,-0.9185126582278481,-0.22072784810126583
1588960400.343725,0.7058068568050835,-2.17,-9.448924190926556,-0.49,0.20444444444444448,0.7066666666666667,-0.0625,-0.36491428993645636,-0.0625
1588960400.353725,0.715609756097561,-2.183170731707317,-9.47829268292683,-0.49,0.20444444444444448,0.7066666666666667,-0.007621951219512195,-0.050304878048780505,-0.0350609756097561
1588960400.363725,0.7042962045474652,-2.191444306821198,-9.531444306821196,-0.49,0.20444444444444448,0.7066666666666667,0.0625,0.21412180394585506,0.035648721578342035
1588960400.373725,0.6916584247979737,-2.1716584247979736,-9.505024725606079,-0.49,0.20444444444444448,0.7066666666666667,0.08323030997467133,0.5411515498733567,0.125
1588960400.383725,0.6988853662318865,-2.1788853662318868,-9.483343901304341,-0.49,0.20444444444444448,0.7066666666666667,0.17356707789858195,0.9928353894929097,0.125
1588960400.393725,0.685214991952173,-2.1673925040239137,-9.488252471832606,-0.4844444444444445,0.17222222222222222,0.6911111111111111,0.029906300298919296,1.9754684985054036,0.2988905495516211
1588960400.403725,0.6923086358690276,-2.163845682065486,-9.547691364130973,-0.4844444444444445,0.17222222222222222,0.6911111111111111,0.033642051637155015,2.7739971807300425,0.5096065387278663
1588960400.413725,0.6828488800084132,-2.172848880008413,-9.542906719949523,-0.4844444444444445,0.17222222222222222,0.6911111111111111,0.16969449994741823,3.61519350089389,0.6962220002103271
1588960400.423725,0.6867993834530969,-2.1767993834530968,-9.49039815035929,-0.4844444444444445,0.17222222222222222,0.6911111111111111,0.1450038534181447,4.795080921781039,0.875
1588960400.4337249,0.6947864386557964,-2.1763370451381983,-9.467887651620602,-0.48561797132188866,0.17339574909966637,0.6911111111111111,0.17429782262875324,5.806319596341221,0.9410108868562338
1588960400.4437249,0.7392828165749058,-2.2041219936250362,-9.462473196175022,-0.49,0.17777777777777778,0.6911111111111111,0.10439003187481889,6.100577731092437,1.1978049840625906
1588960400.4537249,0.6084571686673731,-2.2442285843336864,-9.513085662665254,-0.49,0.17777777777777778,0.6911111111111111,-0.14303567395722946,3.030717431336101,1.619106457272901
1588960400.4637249,0.5861778762900879,-2.227940707903304,-9.567597492553855,-0.49,0.17777777777777778,0.6911111111111111,-0.19179019186811663,-0.564060660109441,2.441497973955808
1588960400.4737248,0.7876065187512272,-2.14852826319349,-9.484663045138207,-0.49,0.17777777777777778,0.6911111111111111,-0.3316711935772411,-4.259198355040688,4.753437452276545
1588960400.4837248,0.83763222725752,-2.10618388637124,-9.44381611362876,-0.48622095832868667,0.17606003156354444,0.6866449709541045,-0.33635071017975,-3.808838848505125,5.498779616168375
1588960400.4937248,0.81,-2.1284006814905423,-9.438400681490542,-0.4777777777777778,0.17222222222222222,0.6766666666666666,-0.14499148136822332,-1.3374361102616747,4.412457406841117
1588960400.5037248,0.8340146668747075,-2.14,-9.48602200031206,-0.4777777777777778,0.17222222222222222,0.6766666666666666,0.0,-0.37507638997243464,3.2122097181047486
1588960400.5137248,0.7685535280589765,-2.152173576632923,-9.511594987856514,-0.4777777777777778,0.17222222222222222,0.6766666666666666,0.0,-0.33424543813269714,1.891321168353859
1588960400.5237248,0.6013754469261613,-2.1782775791439284,-9.467930605214018,-0.4777777777777778,0.17222222222222222,0.6766666666666666,0.05173486964955199,0.5432161313202959,1.090536021886716
1588960400.5337248,0.5467329154784825,-2.20256314867623,-9.461859212830943,-0.4777777777777778,0.17222222222222222,0.6766666666666666,0.20351967922643777,2.1369566318775965,1.356159438646266
1588960400.5437248,0.5230725610788242,-2.1982251876093213,-9.460648874344072,-0.49,0.17777777777777778,0.6911111111111111,0.23890742255825764,4.773258971393105,3.6230921683687862
1588960400.5537248,0.6247326797924047,-2.1847326797924045,-9.517900980311392,-0.49,0.17777777777777778,0.6911111111111111,0.22042075129747096,6.161509391218387,5.391707512974709
1588960400.5637248,0.6019437506989227,-2.1723017855145934,-9.53654732172811,-0.49,0.17777777777777778,0.6911111111111111,0.34846539866552356,7.7512778637193875,6.521099312260037
1588960400.5737247,0.5472225742721885,-2.1879364073508034,-9.513095388973795,-0.49,0.17777777777777778,0.6911111111111111,0.5927563648563015,10.731627651246878,7.937986916166548
1588960400.5837247,0.949385154880187,-2.123538281706604,-9.491615429573349,-0.49,0.17885473082667705,0.6911111111111111,0.625,14.4375,9.513939216832261
1588960400.5937247,1.0474400935125658,-2.090853302162478,-9.499786674459381,-0.49,0.18430222741736477,0.6911111111111111,0.625,14.4375,8.952166130917592
1588960400.6037247,0.9252071129343461,-2.1308727772080167,-9.48957099897443,-0.49,0.18444444444444444,0.6911111111111111,0.44563611395991587,11.945451424498948,6.557045142449895
1588960400.6137247,0.8085549896573903,-2.1673265657320657,-9.555187818317718,-0.49,0.18444444444444444,0.6911111111111111,0.26336717133967213,9.667089641745902,6.32920896417459
1588960400.6237247,0.8417234140961327,-2.123901519194507,-9.316098480805493,-0.49,0.18444444444444444,0.6911111111111111,0.5578837122425019,8.482955758352013,7.422230227345501
1588960400.6337247,0.5805776141174797,-2.138824136336144,-9.301175863663858,-0.49,0.18444444444444444,0.6911111111111111,1.257381390756751,12.959740900843206,7.84192883445405
1588960400.6437247,0.7080104712041886,-2.17,-9.482460732984293,-0.5044444444444445,0.18444444444444444,0.6855555555555556,3.649214659685864,31.98854712041885,13.881871727748692
1588960400.6537247,1.2242549645221201,-2.180425496452212,-9.59865231677699,-0.5044444444444445,0.18444444444444444,0.6855555555555556,4.934840647173675,39.8949503547788,18.991132018191344
1588960400.6637247,1.4436085803460281,-2.2,-9.653275541683955,-0.5044444444444445,0.18444444444444444,0.6855555555555556,4.123916406574176,32.70754365945624,19.729442169261578
1588960400.6737247,1.5027799977166343,-2.201504167142368,-9.55090250028542,-0.5044444444444445,0.18444444444444444,0.6855555555555556,2.1028905982418085,17.482942544811053,17.363197853636258
1588960400.6837246,1.2226277163133072,-2.246490941949134,-9.578245470974567,-0.509123188512266,0.18444444444444444,0.6830212358521522,-0.6140341935910433,0.8563632256358267,9.9505774231939
1588960400.6937246,0.9876790571169538,-2.24505893019039,-9.548096101541251,-0.5311111111111111,0.18444444444444444,0.6711111111111111,-0.5197189483227561,1.0111627379873074,5.209825475974615
1588960400.7037246,0.8966517055655296,-2.348008976660682,-9.43669658886894,-0.5311111111111111,0.18444444444444444,0.6711111111111111,-0.833987881508079,-1.3648002692998205,5.446824506283662
1588960400.7137246,0.9621335287846482,-2.3249920042643923,-9.484033848614072,-0.5311111111111111,0.18444444444444444,0.6711111111111111,-2.5132346082089554,-7.822261460554371,8.09138459488273
1588960400.7237246,1.3360321437660279,-2.143519957715874,-9.286256093025077,-0.5311111111111111,0.18444444444444444,0.6711111111111111,-2.623600317130944,-12.001399682869057,7.260452352054499
1588960400.7337246,1.1001034269016206,-2.2085862038430886,-9.162620738510583,-0.5273409880260141,0.18727203675826717,0.6711111111111111,-2.045473966173736,-12.54418112990348,3.0411626671389356
1588960400.7437246,1.0481064376162226,-2.2011580625166034,-9.28147099973435,-0.5075326111553864,0.20212831941123807,0.6711111111111111,-1.6276410165589303,-12.77631054635615,0.30203555299743234
1588960400.7537246,0.9977200770583801,-2.164774269201776,-9.45341988441243,-0.5044444444444445,0.20444444444444448,0.6711111111111111,-1.355107211659268,-13.407660817488901,-1.0270175475332943
1588960400.7637246,0.899353044643605,-2.1858529190049416,-9.600970433034593,-0.5044444444444445,0.20444444444444448,0.6711111111111111,-1.2672795041460758,-13.275919256219114,-1.4222422313426586
1588960400.7737246,0.8839648241206031,-2.182643216080402,-9.589427135678392,-0.5044444444444445,0.20444444444444448,0.6711111111111111,-1.1415201005025126,-12.860961055276382,-1.7370603015075377
1588960400.7837245,0.9057684976607174,-2.1971789984404784,-9.531284006238087,-0.5044444444444445,0.20444444444444448,0.6711111111111111,-1.232368740252989,-13.814871772656385,-2.0096062207589673
1588960400.7937245,0.7940188383045526,-2.193711594527921,-9.434432608208118,-0.5111111111111111,0.20444444444444448,0.6844444444444444,-1.1920063355012334,-15.389773491814308,-2.24290760260148
1588960400.8037245,0.6930388446984324,-2.208551239477952,-9.425936365742528,-0.5111111111111111,0.20444444444444448,0.6844444444444444,-0.8560072206347981,-11.414312881303577,-1.7745144412695961
1588960400.8137245,0.773375638446061,-2.1983121807769694,-9.52337563844606,-0.5111111111111111,0.20444444444444448,0.6844444444444444,-0.35390225971211886,-4.921398583810555,-0.738657908992416
1588960400.8237245,0.789604937316205,-2.1901975313418975,-9.539604937316204,-0.5111111111111111,0.20444444444444448,0.6844444444444444,-0.25246914177371926,-2.7405865481349636,-0.38364199620801737
1588960400.8337245,0.8582093631458662,-2.1504476592135333,-9.4906714888203,-0.5109618913732666,0.2043200946629074,0.6839470453182961,-0.19029787008458404,-2.5960744410150083,-0.1333936102537521
1588960400.8437245,0.7791751695484818,-2.17,-9.51972505651616,-0.5044444444444445,0.1988888888888889,0.6622222222222223,-0.3125,-4.078824769352966,-0.5008591983869982
1588960400.8537245,0.713249231199329,-2.17,-9.520252306402012,-0.5044444444444445,0.1988888888888889,0.6622222222222223,-0.21405128832354858,-4.574923119932905,-0.4640512883235486
1588960400.8637245,0.7067597711416362,-2.1720949713927045,-9.56695531468025,-0.5044444444444445,0.1988888888888889,0.6622222222222223,0.16428071361321006,-1.2679821596697487,-0.007157859160369845
1588960400.8737245,0.7681902606984752,-2.1818097393015248,-9.4727610427939,-0.5044444444444445,0.1988888888888889,0.6622222222222223,0.3351217412690605,2.810758730939498,0.4601217412690605
1588960400.8837245,0.76,-2.189913931635571,-9.439655726542284,-0.5043870655348254,0.1988697625856825,0.6625282430735243,0.43642414544464114,4.505917200054474,0.5635758545553589
1588960400.8937244,0.7667360031104199,-2.1826944012441682,-9.41347200622084,-0.4977777777777778,0.19666666666666666,0.6977777777777778,0.3040799961119751,5.3390600699844475,0.7380200233281493
1588960400.9037244,0.8110495708936678,-2.1968512873189967,-9.508396567149342,-0.4977777777777778,0.19666666666666666,0.6977777777777778,0.26311963617084727,6.358418726597965,1.0625
1588960400.9137244,0.8179986083037873,-2.1760041750886376,-9.5639888664303,-0.4977777777777778,0.19666666666666666,0.6977777777777778,0.34998260379734253,6.662439113290699,1.0625
1588960400.9237244,0.82,-2.1988549987116723,-9.551145001288328,-0.4977777777777778,0.19666666666666666,0.6977777777777778,0.3148854193506828,6.088739612857511,0.9422708387013656
1588960400.9337244,0.8334246800942013,-2.179862979858698,-9.543287659952899,-0.4977777777777778,0.19666666666666666,0.6977777777777778,0.5222606264718961,5.810787248233725,0.8116436241168623
1588960400.9437244,0.8863987165414169,-2.1792797433082836,-9.465762053533734,-0.4905601996491129,0.19048017112781107,0.7111818514452982,0.7409967913535422,5.745498395676771,0.9239951870303132
1588960400.9537244,0.8972926583793488,-2.201041808339907,-9.422501700078884,-0.49,0.19,0.7122222222222222,0.5429660936267443,5.009081821396513,0.7239547915023257
1588960400.9637244,0.9421907428759677,-2.211484104760336,-9.516643057156974,-0.49,0.19,0.7122222222222222,0.2636921429747982,2.2047232745840883,0.3701408334705979
1588960400.9737244,0.8592857848789326,-2.2183928512600892,-9.454464338659198,-0.49,0.19,0.7122222222222222,-0.25446384450667103,-1.2064703096689176,-0.23437448525778293
1588960400.9837244,0.84,-2.211049748338478,-9.422099496676955,-0.49,0.19,0.7122222222222222,-0.48687814576902755,-4.2375629153805505,-0.5428172186535414
1588960400.9937243,0.8787050323234884,-2.190647483838256,-9.42,-0.5158033548823256,0.19860111829410854,0.6864188673398967,-0.6209532260109012,-5.4676258080872095,-0.7439298390163519
1588960401.0037243,0.83,-2.1866836716492455,-9.464872462630659,-0.5166666666666667,0.1988888888888889,0.6855555555555556,-0.6564094217116764,-6.970184795405087,-1.1356823695194607
1588960401.0137243,0.83,-2.1717205950554743,-9.577095537083943,-0.5166666666666667,0.1988888888888889,0.6855555555555556,-0.5161305786450715,-5.707675207805644,-0.9018842977417859
1588960401.0237243,0.8850939527180236,-2.189182325453004,-9.528364650906008,-0.5166666666666667,0.1988888888888889,0.6855555555555556,-0.24488953408127453,-2.8419883865370585,-0.510220931837451
1588960401.0337243,0.8354739042135773,-2.1809123173689295,-9.51182463473786,-0.5166666666666667,0.1988888888888889,0.6855555555555556,-0.1932019835558097,-3.7723642959954256,-0.6135960328883806
1588960401.0437243,0.7530818866185282,-2.1824168733402103,-9.497583126659789,-0.49,0.18222222222222226,0.6977777777777778,-0.06042183350525646,-4.4718672497421155,-0.5947890832473718
1588960401.0537243,0.7088266902299811,-2.1917653380459963,-9.507653380459962,-0.49,0.18222222222222226,0.6977777777777778,-0.22793327442504716,-3.9668327442504716,-0.4889666372125236
1588960401.0637243,0.7624985643185298,-2.1982144908116386,-9.579286944869832,-0.49,0.18222222222222226,0.6977777777777778,-0.125,-2.7366302163093414,-0.39286227029096477
1588960401.0737243,0.8189350809215403,-2.1910649190784595,-9.523610485529241,-0.49,0.18222222222222226,0.6977777777777778,-0.13165574424037266,-1.8923689308844718,-0.22077872120186323
1588960401.0837243,0.8130680244513142,-2.196931975548686,-9.488408146707885,-0.49,0.18222222222222226,0.6977777777777778,-0.1683248471792863,-2.332398166151436,-0.40412423589643165
1588960401.0937243,0.8254858182099601,-2.19225709089502,-9.43902836358008,-0.4960222626372068,0.18910480809331565,0.7046603636488712,-0.23589318190612546,-3.240004546685756,-0.5967863638122509
1588960401.1037242,0.757755645775184,-2.2177556457751844,-9.404488708449632,-0.4977777777777778,0.19111111111111112,0.7066666666666667,-0.18282426203163327,-3.939215406411232,-0.5671757379683667
1588960401.1137242,0.7311488200964222,-2.191148820096422,-9.457702359807156,-0.4977777777777778,0.19111111111111112,0.7066666666666667,-0.12739337520087965,-3.2186138776114355,-0.6226066247991203
1588960401.1237242,0.7143185370428259,-2.1743185370428257,-9.475681462957175,-0.4977777777777778,0.19111111111111112,0.7066666666666667,0.02201371522350734,-1.3253262738355736,-0.23296342607064713
1588960401.1337242,0.7260677225559803,-2.1780338612779904,-9.48803386127799,-0.4977777777777778,0.19111111111111112,0.7066666666666667,0.0625,0.995118787547788,0.02563489896231566
1588960401.1437242,0.7372353275394036,-2.1655293449211928,-9.504470655078807,-0.5026013294707136,0.19111111111111112,0.6954117127164833,-0.07316239136381811,1.2113960143936364,0.0625
1588960401.1537242,0.7703552559319787,-2.17,-9.580532883897968,-0.5044444444444445,0.19111111111111112,0.6911111111111111,0.06361017478743348,0.6986017478743348,0.125
1588960401.1637242,0.7862406499138372,-2.17,-9.604360974870755,-0.5044444444444445,0.19111111111111112,0.6911111111111111,0.11325203098074119,1.1950203098074117,0.125
1588960401.1737242,0.8080864570737606,-2.19,-9.526172914147521,-0.5044444444444445,0.19111111111111112,0.6911111111111111,0.05652017835550181,1.5592219619105199,0.30054035671100365
1588960401.1837242,0.7922373790810158,-2.19,-9.494474758162031,-0.5044444444444445,0.19111111111111112,0.6911111111111111,0.0069918096281741254,1.0144099059099154,0.20148361925634825
1588960401.1937242,0.78,-2.2007634983452524,-9.41,-0.5044444444444445,0.19111111111111112,0.6977777777777778,-0.18272813534217408,0.5581938947904372,0.048184406026522256
1588960401.2037241,0.78,-2.210509843260188,-9.41560827586207,-0.5044444444444445,0.19111111111111112,0.6977777777777778,-0.1186269592476489,-0.29779780564263325,-0.1313730407523511
1588960401.2137241,0.7826280038449215,-2.2208760012816406,-9.515619993591796,-0.5044444444444445,0.19111111111111112,0.6977777777777778,0.0,-1.27510012816405,-0.26095001602050627
1588960401.2237241,0.8095059275873118,-2.2298353091957708,-9.470823454021147,-0.5044444444444445,0.19111111111111112,0.6977777777777778,0.0,-2.171030919577059,-0.37294136494713237
1588960401.233724,0.7924121433046648,-2.2006869055077747,-9.49345047559378,-0.5044444444444445,0.19111111111111112,0.6977777777777778,0.03664136811528165,-2.7371205217292247,-0.484924104345845
1588960401.243724,0.7855853161704157,-2.1855853161704157,-9.493244051488753,-0.500720900330834,0.21345237579277365,0.6909512802361587,0.027591773934902267,-3.2297246781952933,-0.5625
1588960401.253724,0.77,-2.18,-9.471916416641074,-0.4977777777777778,0.2311111111111111,0.6855555555555556,-0.06399720050083867,-2.7395195964941292,-0.495508398497484
1588960401.263724,0.7696560411874247,-2.180114652937525,-9.549541388249901,-0.4977777777777778,0.2311111111111111,0.6855555555555556,-0.12356683828093622,-2.3160829042976596,-0.3125
1588960401.273724,0.7466836455252492,-2.18777211815825,-9.518911527366999,-0.4977777777777778,0.2311111111111111,0.6855555555555556,-0.027848523021871685,-2.555378692445321,-0.3125
1588960401.283724,0.74,-2.1659274748401374,-9.477903299786849,-0.4977777777777778,0.2311111111111111,0.6855555555555556,0.050151094083047784,-2.7253021881660957,-0.4128021881660956
1588960401.293724,0.7585259177339374,-2.1229481645321253,-9.44529877635475,-0.4929747620689792,0.20572374236460428,0.6889862810618402,-0.014691323891405955,-2.595617352217188,-0.5146913238914059
1588960401.303724,0.7553501500643133,-2.1292996998713734,-9.47394954980706,-0.49,0.19,0.6911111111111111,-0.108280781049021,-1.9506306274117478,-0.7914039052451051
1588960401.313724,0.7358890982062413,-2.182332705381276,-9.546443607175036,-0.49,0.19,0.6911111111111111,0.007289704316487844,-1.3090343189450406,-1.1395794086329758
1588960401.323724,0.6915417887540114,-2.209614552811497,-9.541156341565507,-0.49,0.19,0.6911111111111111,0.18268191014371427,0.43736483186828523,-1.0697271347844286
1588960401.333724,0.70525371183117,-2.19474628816883,-9.471358296759734,-0.49,0.19,0.6911111111111111,0.28283569894481275,1.8346997852273788,-0.7764929031655616
1588960401.343724,0.7110974382514432,-2.199268374499038,-9.45945128087428,-0.49,0.18222222222222226,0.6766666666666666,0.43521367030949315,3.9649359562860824,-0.24428417577373282
1588960401.353724,0.7555277978849244,-2.169648134743384,-9.437236101057538,-0.49,0.18222222222222226,0.6766666666666666,0.3426504210730743,5.075694947123109,-0.012876052682685685
1588960401.363724,0.7407569020783786,-2.169747699307207,-9.556720090993693,-0.49,0.18222222222222226,0.6766666666666666,0.4343462413400889,5.011038155309689,-0.2421156033502223
1588960401.373724,0.774256145965379,-2.17,-9.517179817543276,-0.49,0.18222222222222226,0.6766666666666666,0.3839747719290954,4.732373859645477,-0.4105756842127138
1588960401.383724,0.7983913134777587,-2.1454782486963215,-9.491608686522241,-0.49,0.18222222222222226,0.6766666666666666,0.260054290764008,5.338859019003955,-0.5907609456479894
1588960401.393724,0.8332337434094903,-2.160978324545987,-9.464510837727007,-0.49,0.18394324025255485,0.6878532838638287,0.09069273579379027,5.7984036321031045,-1.752379906268307
1588960401.403724,0.9375246723831094,-2.1895049344766218,-9.596534541336354,-0.49,0.18444444444444444,0.6911111111111111,-0.12035876071833038,3.435336110661705,-2.611076282154991
1588960401.413724,0.8230363506771204,-2.267975766215253,-9.590253029223094,-0.49,0.18444444444444444,0.6911111111111111,-0.5514299714896651,-0.8892997148966497,-4.147964183891661
1588960401.423724,0.8018871435850854,-2.3062257128298294,-9.544717858962713,-0.49,0.18444444444444444,0.6911111111111111,-0.6191026762966081,-3.0376963466778917,-5.772374936305027
1588960401.433724,0.8,-2.2710630075840545,-9.469913413651298,-0.49,0.18444444444444444,0.6911111111111111,-0.5276575189601372,-3.542027443119588,-6.229527443119588
1588960401.443724,0.8350179372197309,-2.230818385650224,-9.420818385650223,-0.49453936223218736,0.18444444444444444,0.6911111111111111,-0.46352298206278025,-4.062724215246637,-6.166591928251121
1588960401.453724,0.8235323143132744,-2.21,-9.4,-0.4977777777777778,0.18444444444444444,0.6911111111111111,-0.4375,-6.927737998070787,-6.108084607108407
1588960401.463724,0.7974370456317192,-2.197437045631719,-9.487940680577966,-0.4977777777777778,0.18444444444444444,0.6911111111111111,-0.4767592324008775,-9.602406225638608,-6.478333091607897
1588960401.473724,0.7512076455256299,-2.19,-9.50120764552563,-0.4977777777777778,0.18444444444444444,0.6911111111111111,-0.45150955690703737,-11.255375760208514,-6.590519113814075
1588960401.4837239,0.7211509463805557,-2.2151320714925924,-9.471150946380556,-0.4977777777777778,0.18444444444444444,0.6911111111111111,-0.3589622765856488,-10.612853904149311,-6.20908024463542
1588960401.4937239,0.7012072902571042,-2.23,-9.46,-0.4909390035333033,0.19030625093970832,0.6784105303713727,-0.3125,-8.476366923207037,-4.955865718031124
1588960401.5037239,0.739981588503043,-2.1966820095807975,-9.46,-0.49,0.19111111111111112,0.6766666666666666,-0.3957949760480063,-7.708582655687959,-4.021197727543941
1588960401.5137239,0.8116674364896074,-2.0938876058506546,-9.554723633564281,-0.49,0.19111111111111112,0.6766666666666666,-0.38367975365665896,-7.545140492686682,-3.625
1588960401.5237238,0.7842377371867828,-2.1014573576879303,-9.527085284624139,-0.49,0.19111111111111112,0.6766666666666666,-0.2855943429669571,-7.607202828516521,-4.474353741813907
1588960401.5337238,0.7576636767153689,-2.1161681616423156,-9.479159191788423,-0.49,0.19111111111111112,0.6766666666666666,-0.25,-7.04673484603292,-5.776275256611799
1588960401.5437238,0.7224954462659381,-2.1255009107468124,-9.443497267759563,-0.49,0.18744383727990285,0.6846124266342846,-0.07809653916211293,-5.6216985428051,-6.925091074681239
1588960401.5537238,0.6175291828793774,-2.1899787760877256,-9.444994694021931,-0.49,0.18444444444444444,0.6911111111111111,0.0625,-3.156813760169791,-7.749867350548285
1588960401.5637238,0.5270045167118338,-2.2459974190218093,-9.548992902309976,-0.49,0.18444444444444444,0.6911111111111111,0.11874596722157697,-0.5438992128016515,-7.481278229448961
1588960401.5737238,0.5655434804283236,-2.25,-9.529637679714451,-0.49,0.18444444444444444,0.6911111111111111,0.2673233763385112,1.4428216415083053,-6.061707362061058
1588960401.5837238,0.6146106590629854,-2.2084672091244175,-9.47154507731182,-0.49,0.18444444444444444,0.6911111111111111,0.2692366761712683,3.384426362519415,-4.673206875767902
1588960401.5937238,0.7206943166129774,-2.1405303727565577,-9.45,-0.49,0.18994106969371582,0.7039365700260776,0.404592585135757,5.648987574781408,-3.528567936033134
1588960401.6037238,0.74,-2.0961270201304223,-9.441531755032605,-0.49,0.19111111111111112,0.7066666666666667,0.5962795931386448,7.005604089878084,-3.322073468953785
1588960401.6137238,0.7231875400042671,-2.09,-9.524062299978663,-0.49,0.19111111111111112,0.7066666666666667,0.625,7.712889374866652,-3.995506187326648
1588960401.6237237,0.703785276920952,-2.13053680769762,-9.531892638460475,-0.49,0.19111111111111112,0.7066666666666667,0.5743289903779752,8.167197067354174,-4.479697067354174
1588960401.6337237,0.7318463136687023,-2.124076843165649,-9.50346140527608,-0.49,0.19111111111111112,0.7066666666666667,0.5956732434048984,8.216826756595102,-4.429807026380407
1588960401.6437237,0.7757510711039944,-2.104749642965335,-9.464248928896005,-0.49,0.1771101590186716,0.6984994446127436,0.6578147314666551,7.99061161120007,-4.148426342666724
1588960401.6537237,0.79,-2.110873786407767,-9.471747572815534,-0.49,0.16444444444444445,0.6911111111111111,0.6535194174757282,6.7251213592233015,-4.271844660194175
1588960401.6637237,0.7727725980056878,-2.14296986932575,-9.5359397386515,-0.49,0.16444444444444445,0.6911111111111111,0.48143831671406456,4.520444850426581,-4.96657547067929
1588960401.6737237,0.766092533025834,-2.196555198155004,-9.545629867896663,-0.49,0.16444444444444445,0.6911111111111111,0.41307833141146244,2.9151683660051386,-5.6171266512916995
1588960401.6837237,0.7871281507834381,-2.2257093835944795,-9.507162465622082,-0.49,0.16444444444444445,0.6911111111111111,0.4375,2.3929490576035124,-5.705449057603512
1588960401.6937237,0.7773218751420907,-2.2356695312144774,-9.46732187514209,-0.4944096353890379,0.1720038193970809,0.6873314236347928,0.40206542990951666,2.20619628972855,-5.5541308598190335
1588960401.7037237,0.752615707144009,-2.254768585711982,-9.45,-0.4977777777777778,0.17777777777777778,0.6844444444444444,0.3288481696500564,2.217303660699887,-5.4538481696500565
1588960401.7137237,0.7342207867919688,-2.244220786791969,-9.521006459436139,-0.4977777777777778,0.17777777777777778,0.6844444444444444,0.26318995872490264,2.5458602476505843,-4.796469463423734
1588960401.7237236,0.7627709282921119,-2.2072290717078884,-9.490843607561832,-0.4977777777777778,0.17777777777777778,0.6844444444444444,0.19879542454357518,2.829818301825699,-3.3448856135893794
1588960401.7337236,0.77,-2.1377116462818493,-9.459237215427283,-0.4977777777777778,0.17777777777777778,0.6844444444444444,0.14424419880683972,3.5670928190905644,-1.981104970170993
1588960401.7437236,0.7608237859541034,-2.0641189297705167,-9.404118929770517,-0.4977777777777778,0.16554282571658224,0.6905619204750422,0.125,4.047054013360562,-0.8117839465577515
1588960401.7537236,0.7679205205205205,-2.044158958958959,-9.39207947947948,-0.4977777777777778,0.16444444444444445,0.6911111111111111,0.025993493493493502,4.0129967467467464,-0.4529804804804805
1588960401.7637236,0.812829609924265,-1.937208936181764,-9.509922907787942,-0.4977777777777778,0.16444444444444445,0.6911111111111111,0.10707402481066261,3.1969448139200303,-0.375
1588960401.7737236,0.8125425659594377,-1.979659472324498,-9.50017026383775,-0.4977777777777778,0.16444444444444445,0.6911111111111111,0.03178207449297178,1.5244042291340343,-0.7478717020281129
1588960401.7837236,0.8188641358340609,-2.013296203751091,-9.472271728331878,-0.4977777777777778,0.16444444444444445,0.6911111111111111,0.08310127344432068,-0.21881867718337,-1.2074050937772827
1588960401.7937236,0.8386127896361344,-2.0407659870451678,-9.452153197409034,-0.49610306868186277,0.16875083926251166,0.6911111111111111,0.20095748380646003,-2.3959592227100814,-1.7595748380646004
1588960401.8037236,0.896890381152461,-2.160671143457383,-9.477926920768308,-0.49,0.18444444444444444,0.6911111111111111,0.1659675588985594,-5.702367665816326,-2.362043254801921
1588960401.8137236,0.9206109903291102,-2.3116395531898943,-9.52816702901267,-0.49,0.18444444444444444,0.6911111111111111,-0.08420327610765424,-7.285769173101432,-2.6173626208861234
1588960401.8237236,0.9287988973261851,-2.37,-9.536501378342269,-0.49,0.18444444444444444,0.6911111111111111,-0.25,-7.280027566845372,-2.838119831216493
1588960401.8337235,0.9284455361680501,-2.380777231915975,-9.495630357445366,-0.49,0.18444444444444444,0.6911111111111111,-0.1826423005251567,-5.98661273928511,-2.8027846010503135
1588960401.8437235,0.8701272731194857,-2.4198727268805142,-9.460063636559743,-0.4938641413378778,0.18775656559119683,0.6988393937868667,-0.0625,-3.320852298466251,-2.283039778242768
1588960401.8537235,0.85,-2.3861975290802686,-9.45,-0.4977777777777778,0.19111111111111112,0.7066666666666667,-0.020466819593959976,-0.3186727837583989,-1.7057677371577198
1588960401.8637235,0.8801018563025018,-2.2997962873949964,-9.510203712605003,-0.4977777777777778,0.19111111111111112,0.7066666666666667,0.23517075236329513,2.3343318684337016,-0.9980901943280918
1588960401.8737235,0.8821082917184213,-2.264216583436842,-9.53,-0.4977777777777778,0.19111111111111112,0.7066666666666667,0.41114635351973433,3.28276223731907,-0.9604695302796015
1588960401.8837235,0.8733777103806841,-2.2666222896193156,-9.503510841522736,-0.4977777777777778,0.19111111111111112,0.7066666666666667,0.3547213797585521,1.9677634558953858,-1.4138931012072395
1588960401.8937235,0.8293080129993763,-2.2781383974001246,-9.50627679480025,-0.4914479131332363,0.18025991457761145,0.6994325356443336,0.21077003249844073,-0.12335456127105004,-1.625
1588960401.9037235,0.82,-2.245633290381263,-9.523746683847495,-0.49,0.17777777777777778,0.6977777777777778,0.1875,-0.9100422572576367,-1.625
1588960401.9137235,0.8348032,-2.2077952,-9.5596064,-0.49,0.17777777777777778,0.6977777777777778,0.14124,-1.07874,-1.20866
1588960401.9237235,0.7918871911968324,-2.2,-9.521887191196832,-0.49,0.17777777777777778,0.6977777777777778,-0.025352527509898692,-1.6137926008696286,-0.7116774358102363
1588960401.9337234,0.79847529300257,-2.1938415689991433,-9.479207844995717,-0.49,0.17777777777777778,0.6977777777777778,0.052970581266062744,-1.8654705812660628,-0.5095294187339372
1588960401.9437234,0.81,-2.183387730527917,-9.44016319158375,-0.5039592355521755,0.17777777777777778,0.6977777777777778,0.042346631598960655,-1.3175997369922048,-0.31351994739844097
1588960401.9537234,0.799866900118347,-2.1648003501775204,-9.445199649822479,-0.5111111111111111,0.17777777777777778,0.6977777777777778,-0.03166593713016552,-0.5883428173078482,-0.09167031434917236
1588960401.9637234,0.7991054338369058,-2.159105433836906,-9.500974452266076,-0.5111111111111111,0.17777777777777778,0.6977777777777778,-0.005591038519338766,0.1539537688839674,0.005591038519338766
1588960401.9737234,0.8248083831286033,-2.17,-9.525319361452329,-0.5111111111111111,0.17777777777777778,0.6977777777777778,0.0625,0.8401571836613104,-0.03164920181540996
1588960401.9837234,0.8362374895445761,-2.17,-9.484949958178305,-0.5111111111111111,0.17777777777777778,0.6977777777777778,0.086015690346399,1.172031380692798,0.023515690346399006
1588960401.9937234,0.8339026123703419,-2.1660973876296583,-9.467805224740685,-0.5059076279506552,0.1725742946173219,0.6951760361975499,0.07621734537072608,1.0548693814829044,0.0625
1588960402.0037234,0.84,-2.1681168185254447,-9.455649544423666,-0.4977777777777778,0.16444444444444445,0.6911111111111111,0.050730115784028966,0.5470795368638841,0.037134942107985514
1588960402.0137234,0.8288080883419313,-2.18,-9.498343381606482,-0.4977777777777778,0.16444444444444445,0.6911111111111111,0.09002527606853544,0.07512638034267718,-0.034974723931464564
1588960402.0237234,0.8267965567091602,-2.1732034432908396,-9.532813773163358,-0.4977777777777778,0.16444444444444445,0.6911111111111111,0.0625,-0.020021520567748717,-0.020021520567748717
1588960402.0337234,0.83,-2.1650723240115717,-9.505216972034715,-0.4977777777777778,0.16444444444444445,0.6911111111111111,0.03170202507232401,-0.18478784956605593,-0.03079797492767599
1588960402.0437233,0.83,-2.166464045809933,-9.49,-0.4999324597144221,0.16695824003719612,0.6864426335817152,0.020200143156040084,-0.597201574716441,-0.10290028631208017
1588960402.0537233,0.8253490442835094,-2.170698088567019,-9.49465095571649,-0.5044444444444445,0.17222222222222222,0.6766666666666666,0.09156847322806601,-1.0625,-0.21656847322806602
1588960402.0637233,0.8144999815559408,-2.1655000184440594,-9.538500129108414,-0.5044444444444445,0.17222222222222222,0.6766666666666666,0.0906248847246302,-1.1312502305507397,-0.25
1588960402.0737233,0.826874432677761,-2.164375189107413,-9.541875945537065,-0.5044444444444445,0.17222222222222222,0.6766666666666666,0.13281013615733736,-1.1875,-0.3203101361573374
1588960402.0837233,0.9578547556050689,-1.9897653530149004,-9.463255117671633,-0.5044444444444445,0.17222222222222222,0.6766666666666666,0.1875,-1.0238128394374042,-1.1661546093858792
1588960402.0937233,1.0450864570035976,-1.831497040733434,-9.39341650226297,-0.5112774489703816,0.17222222222222222,0.6766666666666666,0.1875,-0.4494966345595915,-3.404628931182546
1588960402.1037233,0.915629135411099,-1.9616556389037358,-9.404370864588902,-0.5244444444444445,0.17222222222222222,0.6766666666666666,0.1875,0.14072838527747572,-5.968543229445048
1588960402.1137233,0.8924378421217539,-2.0234990876753227,-9.427562157878246,-0.5244444444444445,0.17222222222222222,0.6766666666666666,0.1875,-0.4390539469561532,-7.128107893912306
1588960402.1237233,0.888817039534171,-2.0258872203493716,-9.5135350904076,-0.5244444444444445,0.17222222222222222,0.6766666666666666,0.3125,-1.9852129941771377,-8.102905684952498
1588960402.1337233,0.9492525964391691,-1.9725259643916915,-9.46,-0.5244444444444445,0.17222222222222222,0.6766666666666666,0.30782872774480713,-2.7359861832344214,-8.465527633531158
1588960402.1437232,0.9033686349362724,-1.8956991564558832,-9.439067791392157,-0.5139783401405223,0.18210687628703762,0.6842255197750549,0.2172934240502432,-2.6606197278492703,-9.139565759497568
1588960402.1537232,0.8870644509416115,-1.864494797489036,-9.448440751569352,-0.5044444444444445,0.19111111111111112,0.6911111111111111,0.1163981210766188,-3.3188150313870497,-9.721907515693525
1588960402.1637232,0.8696750802484816,-1.8451624598757592,-9.500324919751518,-0.5044444444444445,0.19111111111111112,0.6911111111111111,-0.0322653742234949,-4.350180703415468,-10.379738413042976
1588960402.1737232,0.7831384103958899,-1.8496615291628893,-9.504153822907222,-0.5044444444444445,0.19111111111111112,0.6911111111111111,-0.1573077213659716,-5.874423919613176,-10.84480772136597
1588960402.1837232,0.6935287142674016,-1.8545885142930394,-9.46905861428022,-0.5044444444444445,0.19111111111111112,0.6911111111111111,-0.1875,-7.365452946737598,-10.53308169625689
1588960402.1937232,0.6135212847082043,-1.8727905620598393,-9.441760642354101,-0.5037578313072864,0.18973788483679482,0.6905389334968126,-0.206810994482573,-8.373130018391423,-9.776575045978559
1588960402.2037232,0.45251279905974223,-1.840602601645451,-9.374371800235064,-0.4977777777777778,0.17777777777777778,0.6855555555555556,-0.42964750293830556,-7.129406213271181,-7.254726189764736
1588960402.2137232,0.43981151006951913,-1.899623020139038,-9.453586325521393,-0.4977777777777778,0.17777777777777778,0.6855555555555556,-0.5306609689672472,-5.360831899949831,-4.555400272342865
1588960402.2237232,0.6440223048327137,-1.9624423791821561,-9.493620817843865,-0.4977777777777778,0.17777777777777778,0.6855555555555556,-0.6382899628252788,-4.3617100371747215,-2.2268355018587362
1588960402.2337232,0.9139010776694861,-1.9334674337727018,-9.475139324202482,-0.4977777777777778,0.17777777777777778,0.6855555555555556,-0.6232584474689794,-5.019157077841227,-1.5625
1588960402.2437232,1.1756291034638895,-1.7871437061353859,-9.48,-0.4977777777777778,0.17474325837043744,0.6885900749628959,-0.6990533733303147,-7.633385569956984,-2.9963104199683044
1588960402.2537231,1.3383802785163819,-1.6107535265221506,-9.439133805038534,-0.4977777777777778,0.17222222222222222,0.6911111111111111,-1.0679137185091712,-12.023063229528145,-6.851100207309928
1588960402.2637231,1.7095577442617371,-1.3652345295581698,-9.315127316045864,-0.4977777777777778,0.17222222222222222,0.6911111111111111,-1.1875837605564892,-12.065096577251165,-11.558730774957986
1588960402.2737231,1.7432696850940825,-1.113259401317435,-9.209767920175658,-0.4977777777777778,0.17222222222222222,0.6911111111111111,-0.2616682648211457,-0.2126726701687094,-17.700425942911142
1588960402.283723,1.2717087074545834,-1.187579661724786,-9.317045938609313,-0.4977777777777778,0.17222222222222222,0.6911111111111111,0.944171538943412,15.992863854666943,-22.65613384840259
1588960402.293723,1.3399783556775966,-0.9907436601518333,-8.828861573251494,-0.48984195696261607,0.18346463504370145,0.6911111111111111,2.3540764819899858,23.987966402842837,-26.569750444193183
1588960402.303723,1.51,-0.76,-8.42,-0.4844444444444445,0.19111111111111112,0.6911111111111111,3.0625,25.0,-28.0625
1588960402.313723,1.5958784736435168,-0.6244253422476918,-9.190607631782417,-0.4844444444444445,0.19111111111111112,0.6911111111111111,1.918180345203984,16.55787795060718,-37.375824350752715
1588960402.323723,1.5589990791528205,-0.7680165752492293,-9.375004604235896,-0.4844444444444445,0.19111111111111112,0.6911111111111111,1.7562557552948712,6.999251811666733,-45.744434880089685
1588960402.333723,1.5026516483927703,-1.0829715975002807,-9.43821090446432,-0.4844444444444445,0.19111111111111112,0.6911111111111111,1.8125,-1.2002815926355574,-54.71386305803989
1588960402.343723,1.3955843188786683,-1.3918554533508543,-9.417680683311433,-0.48638219691439144,0.17870949530345062,0.6934364140750475,1.8996988611476129,-1.6164148050810339,-60.366078077091544
1588960402.353723,1.3371252333240362,-1.4610866999935634,-9.3172764916647,-0.49,0.15555555555555556,0.6977777777777778,2.0686897916711366,0.6199272136282692,-63.53559130210903
1588960402.363723,0.4012390310884165,-0.8131654830612114,-9.119300564268704,-0.49,0.15555555555555556,0.6977777777777778,2.518635081207492,9.33761719839516,-66.12277671694308
1588960402.373723,0.31172911787665886,-0.5927697545320496,-9.218408578367596,-0.49,0.15555555555555556,0.6977777777777778,3.1159142163240525,29.08191300199497,-64.74827879694683
1588960402.383723,0.4667681769945654,-0.36580795575135866,-9.190480110621603,-0.49,0.15555555555555556,0.6977777777777778,3.565500691385021,36.03029834067595,-63.368998617229956
1588960402.393723,0.570732675202815,-0.33302805199882707,-9.192661714397419,-0.49905170560062556,0.14914393075511245,0.6955148513776215,3.7488551949956017,32.76441818981527,-63.25686883002639
1588960402.403723,0.7002572182073501,-0.3558413535637223,-9.175841353563722,-0.5166666666666667,0.13666666666666666,0.6911111111111111,3.6075495770113366,24.351622170085967,-64.55841353563723
1588960402.413723,0.8818897547559018,-0.4960084804033922,-9.343949117579648,-0.5166666666666667,0.13666666666666666,0.6911111111111111,3.537553002521201,11.896351421040569,-66.79830391932157
1588960402.423723,1.008767441860465,-0.49,-9.346237924865832,-0.5166666666666667,0.13666666666666666,0.6911111111111111,3.476554114490161,4.0072338998211094,-68.86749776386404
1588960402.433723,1.1125406326258116,-0.48248645579139615,-9.263702595269887,-0.5166666666666667,0.13666666666666666,0.6911111111111111,3.4375,1.9934149439047224,-71.18125354911982
1588960402.443723,1.1534432034867883,-0.4719675448495933,-9.21409736545122,-0.5173771689734643,0.1360654724070687,0.6901273386863145,3.4497971553099585,3.435503171576449,-72.76334299723703
1588960402.453723,1.1851271633705762,-0.555334687618251,-9.120923701977654,-0.5311111111111111,0.12444444444444445,0.6711111111111111,3.7746820915735597,12.161940361673736,-76.26572986994881
1588960402.463723,1.1255085680226495,-0.648262852033974,-9.193051408135895,-0.5311111111111111,0.12444444444444445,0.6711111111111111,3.9891428252123378,18.644356280733124,-78.12235695127403
1588960402.473723,1.1802879341864716,-0.67,-9.312230347349177,-0.5311111111111111,0.12444444444444445,0.6711111111111111,4.200539876599635,22.589479547531994,-79.51663905393053
1588960402.483723,1.2472223068022654,-0.6362959015894282,-9.333518208391693,-0.5311111111111111,0.12444444444444445,0.6711111111111111,4.32754647250472,22.62383818738201,-80.9166730101699
1588960402.493723,1.2663790268558552,-0.5468978746726753,-9.263276901528531,-0.5311111111111111,0.12444444444444445,0.6711111111111111,4.367456305949698,21.626092351257537,-82.35342701418915
1588960402.503723,1.298393686515878,-0.5716063134841218,-9.213212626968245,-0.5511111111111111,0.08333333333333333,0.6911111111111111,4.727657837103047,19.374013518105954,-84.8860259411698
1588960402.513723,1.2904748329116793,-0.5795251670883208,-9.229050334176643,-0.5511111111111111,0.08333333333333333,0.6911111111111111,4.9256291772080205,18.136692642449873,-86.17283965185213
1588960402.523723,1.500797365635658,-0.7559967070445724,-9.267001646477713,-0.5511111111111111,0.08333333333333333,0.6911111111111111,5.189991767611431,17.827450605668588,-88.43620266376573
1588960402.5337229,1.5730634143298294,-0.8352253657319317,-9.23,-0.5511111111111111,0.08333333333333333,0.6911111111111111,5.383164633956143,19.41921340341246,-89.60614024142987
1588960402.5437229,1.6822126635228192,-0.8616702511789428,-9.216117085298238,-0.55234514797349,0.07438656608108671,0.6871004913083799,5.489560930131607,23.45797488210572,-90.93723116157929
1588960402.5537229,1.7263470820535323,-0.7873387450636243,-9.18390083369899,-0.5555555555555556,0.05111111111111112,0.6766666666666666,5.698140631856077,25.66157031592804,-93.24514589732338
1588960402.5637228,1.681128338762215,-0.558871661237785,-9.237094462540716,-0.5555555555555556,0.05111111111111112,0.6766666666666666,6.2086563517915305,24.189617263843648,-97.63901465798045
1588960402.5737228,1.7276689616845224,-0.5550921609188305,-9.297484639846862,-0.5555555555555556,0.05111111111111112,0.6766666666666666,6.59394200191423,20.211261925345024,-101.41297006699806
1588960402.5837228,1.8350433534773734,-0.6214657315520343,-9.272111890373305,-0.5555555555555556,0.05111111111111112,0.6766666666666666,6.776940548133476,16.048216848232514,-106.11854877013562
1588960402.5937228,1.8958680859033585,-0.6663472343613436,-9.211437445373955,-0.5640185347040135,0.0345377769453809,0.6840717734215673,7.076345751654388,16.017579832063927,-109.44123408040954
1588960402.6037228,1.9428930184760966,-0.6885953456507311,-9.15,-0.5822222222222222,-0.0011111111111111113,0.7,7.401860455158535,19.46854594403648,-111.94889502023165
1588960402.6137228,1.9533914695216714,-0.6966957347608357,-9.17312985667415,-0.5822222222222222,-0.0011111111111111113,0.7,7.561409946468658,22.305414652046277,-113.74454973234329
1588960402.6237228,1.9515605651690744,-0.7015605651690744,-9.211329576123195,-0.5822222222222222,-0.0011111111111111113,0.7,7.8666901492300365,24.100070447690108,-115.3432042784569
1588960402.6337228,2.0137355371900827,-0.7377851239669422,-9.202975206611569,-0.5822222222222222,-0.0011111111111111113,0.7,8.016219008264462,24.305371900826447,-116.28481404958677
1588960402.6437228,2.107616219008264,-0.7594498966942149,-9.239083161157025,-0.5822222222222222,-0.0011111111111111113,0.7,8.06135395144628,23.763752582644628,-116.55562370867769
1588960402.6537228,1.9594634485153672,-0.6118926897030734,-9.20135613821844,-0.5966666666666667,-0.045555555555555564,0.7066666666666667,8.163841378711583,22.395120680673728,-116.6823775829137
1588960402.6637228,2.0254194294056815,-0.6002293326844699,-9.255648762090152,-0.5966666666666667,-0.045555555555555564,0.7066666666666667,8.044847618468276,20.310123790984854,-115.68369046170692
1588960402.6737227,2.129588114506583,-0.5796910858799372,-9.277917622901317,-0.5966666666666667,-0.045555555555555564,0.7066666666666667,7.9628861426500785,18.837886142650078,-114.33981685590047
1588960402.6837227,2.265787340377388,-0.6878936701886941,-9.294867087735868,-0.5966666666666667,-0.045555555555555564,0.7066666666666667,7.907080701650828,19.917049121460757,-112.79435122877437
1588960402.6937227,2.21,-0.656324892606828,-9.236724319843244,-0.5970750119325747,-0.05127238927826765,0.7076194722871186,8.125,22.972037738337477,-110.96795868189012
1588960402.7037227,2.21,-0.6326175672620393,-9.086577925992916,-0.5997091591931067,-0.08815045092571658,0.7137658158950269,8.125,24.40435531125179,-108.74539693081618
1588960402.7137227,2.2530784590917126,-0.588131648701184,-9.11868351298816,-0.6,-0.09222222222222222,0.7144444444444444,8.152468413147199,22.693608632267185,-105.2279753490016
1588960402.7237227,2.304960593744478,-0.5807199151793603,-9.192800848206396,-0.6,-0.09222222222222222,0.7144444444444444,8.013498409613005,20.238471903163102,-103.65298197561407
1588960402.7337227,2.53539875781524,-0.5774601242184759,-9.187460124218475,-0.6,-0.09222222222222222,0.7144444444444444,7.795628881827374,16.746012421847595,-101.10214751459877
1588960402.7437227,2.6182165921510183,-0.5823248882265275,-9.17589170392449,-0.6045647734172325,-0.1056883038030579,0.7114773417232434,7.549661574764034,16.256768504719325,-99.35200881768505
1588960402.7537227,2.6419580419580417,-0.6018531468531468,-9.151958041958043,-0.6222222222222222,-0.15777777777777774,0.7,7.5,17.92854020979021,-96.83238636363636
1588960402.7637227,2.6829740262883974,-0.56,-9.15246447677374,-0.6222222222222222,-0.15777777777777774,0.7,7.48052425504103,18.72326680545133,-94.67387318147709
1588960402.7737226,2.8030494964548613,-0.5691484893645847,-9.16170302127083,-0.6222222222222222,-0.15777777777777774,0.7,7.456559352842885,18.078465824414035,-92.59133812039923
1588960402.7837226,2.829758375005532,-0.5974093906270743,-9.115060406248617,-0.6222222222222222,-0.15777777777777774,0.7,7.438255078107713,17.48682900385007,-90.91191308580785
1588960402.7937226,2.910805645656176,-0.6061295695625494,-9.1,-0.6312123160242736,-0.1652267126423346,0.7261997019374068,7.235551634960989,16.643826159375823,-88.87872030332252
1588960402.8037226,2.9977821507382214,-0.5528871397047115,-9.110669290442933,-0.6611111111111111,-0.19,0.8133333333333334,7.209727688422777,15.430446231544463,-85.67888789043839
1588960402.8137226,3.076290712786164,-0.5508919324202739,-9.14906088173548,-0.6611111111111111,-0.19,0.8133333333333334,7.1649067779666105,14.53990677796661,-82.85916100169949
1588960402.8237226,3.1971193394266724,-0.5771193394266722,-9.194238678853344,-0.6611111111111111,-0.19,0.8133333333333334,6.928497935708351,14.420524771499792,-80.45241742833403
1588960402.8337226,3.1779348576160467,-0.5372834337765101,-9.126957721856742,-0.6611111111111111,-0.19,0.8133333333333334,6.86209286010029,14.98505716060174,-77.8091215439113
1588960402.8437226,3.1942543663233316,-0.46212718316166596,-9.0,-0.6675115688908793,-0.19454769368562472,0.847356819425785,6.774602552619794,14.48853840125392,-75.50549988804299
1588960402.8537226,3.3293363975869004,-0.5282935937948866,-8.999146796897444,-0.7033333333333334,-0.22,1.0377777777777777,6.56072249353634,13.3661124676817,-73.42387245044527
1588960402.8637226,3.2511677687221283,-0.35,-8.951953098569891,-0.7033333333333334,-0.22,1.0377777777777777,6.375,12.354697831769952,-71.76539385668153
1588960402.8737226,3.225368599108104,-0.35,-9.074499154236506,-0.7033333333333334,-0.22,1.0377777777777777,6.375,12.112830616638474,-71.08010341380901
1588960402.8837225,3.2676697970312025,-0.313252347773402,-9.050695748763001,-0.7033333333333334,-0.22,1.0377777777777777,6.273260628092498,12.119236594971222,-67.30218115722508
1588960402.8937225,3.177902842841558,-0.24158056856831162,-9.01,-0.6875276476502171,-0.22234158306416538,1.0502467075944584,6.365121446448052,13.197378553551948,-64.04255037540909
1588960402.9037225,3.2796636043058647,-0.22390126206384559,-8.998475315515961,-0.4033333333333333,-0.2644444444444444,1.2744444444444445,6.1334780414810695,13.050868248886415,-59.448148663697104
1588960402.9137225,3.190487679910569,-0.10737808002235782,-8.988353439843495,-0.4033333333333333,-0.2644444444444444,1.2744444444444445,5.934452000558945,11.725616004471563,-56.755342004751036
1588960402.9237225,3.230841960701458,-0.10542098035072893,-9.043613986900485,-0.4033333333333333,-0.2644444444444444,1.2744444444444445,5.648356618423833,9.775664219311219,-54.72445792837524
1588960402.9337225,3.2751510669765476,-0.12757553348827383,-9.058383688992183,-0.4033333333333333,-0.2644444444444444,1.2744444444444445,5.232958747094866,7.837140819776041,-52.83208984787661
1588960402.9437225,3.180666741497362,-0.11012122572679313,-8.989939387136603,-0.4021547498784001,-0.26562976266197724,1.2719997256207831,4.8098481872264,7.814772982377371,-48.46893590750926
1588960402.9537225,3.2833530340856982,-0.13,-8.983323482957152,-0.2088888888888889,-0.46,0.8711111111111111,4.2919129260712285,8.208271768482193,-42.40911276557803
1588960402.9637225,3.237627782041443,-0.12116270145817346,-9.010604758250192,-0.2088888888888889,-0.46,0.8711111111111111,3.7866270145817347,8.168893898695318,-36.402604566385264
1588960402.9737225,3.181296047582502,-0.08092574827321566,-9.058889102072142,-0.2088888888888889,-0.46,0.8711111111111111,3.3842574827321568,7.5150434094397545,-31.121504460859555
1588960402.9837224,3.29,-0.06420008641344908,-9.051775010801682,-0.2088888888888889,-0.46,0.8711111111111111,2.4585927373423937,4.372810204642759,-23.069992438823206
1588960402.9937224,3.290029352839771,-0.12997064716022924,-9.059867912221032,-0.2090535909342693,-0.46007827423938874,0.8707425699006559,1.6864909961328798,2.625,-17.300300225970275
1588960403.0037224,3.3095713553557284,-0.11042864464427155,-8.971928900899222,-0.31870593838492084,-0.5121902809486092,0.6253818716447426,1.014734659646834,2.625,-9.178155430275357
1588960403.0137224,2.88,-0.02,-8.89,-0.3211111111111111,-0.5133333333333333,0.62,0.3125,1.625,-0.3125
1588960403.0237224,2.803957351240772,-0.07530374455216579,-9.06973716979454,-0.3211111111111111,-0.5133333333333333,0.62,-0.20597260517655425,-2.6523989927065728,7.637413279373833
1588960403.0337224,2.7646160603833123,-0.11048944905606253,-9.09804220377575,-0.3211111111111111,-0.5133333333333333,0.62,-1.6922992452085985,-8.382436981192965,27.106535848109434
1588960403.0437224,2.681898632052638,-0.11800921526794197,-9.067963138928233,-0.3211111111111111,-0.5133333333333333,0.62,-2.7262670993420226,-7.536463282356527,40.26612671889847
1588960403.0537224,2.761059796780865,-0.1933525762071756,-9.026647423792824,-0.38222222222222224,-0.4711111111111111,0.5611111111111111,-4.459175209063933,-6.542989614243323,63.288040643826996
1588960403.0637224,2.7007155831310135,-0.21598165632586996,-9.00401834367413,-0.38222222222222224,-0.4711111111111111,0.5611111111111111,-5.4491974642568115,-8.09873887240356,75.35688337379732
1588960403.0737224,2.7864349436121865,-0.34178252819390675,-9.17663356337317,-0.38222222222222224,-0.4711111111111111,0.5611111111111111,-7.303841945800371,-14.516726981989564,93.68756312068675
1588960403.0837224,2.6997496807151977,-0.41722349936143044,-9.152171136653894,-0.38222222222222224,-0.4711111111111111,0.5611111111111111,-8.363649425287356,-18.01044061302682,106.16428799489144
1588960403.0937223,2.8481848791617748,-0.5089725981879805,-9.107431495469951,-0.3869596861332014,-0.4676864384043792,0.5603690986913192,-9.344606306625613,-19.766053153312807,117.35509658197284
1588960403.1037223,2.6344886250359965,-0.49039031522052146,-9.060975788051303,-0.4726446575942622,-0.40574549517951597,0.5469485609925988,-9.925302649358704,-20.056401324679353,127.1688647741621
1588960403.1137223,2.6801076499671206,-0.6941830049441049,-9.126139944957256,-0.4744444444444445,-0.4044444444444445,0.5466666666666666,-10.713307374753404,-20.825740093523954,139.28657237146544
1588960403.1237223,2.7775765005648902,-0.8695471262710031,-9.214620562005722,-0.4744444444444445,-0.4044444444444445,0.5466666666666666,-11.504742974928487,-21.4436582053316,150.1544524170092
1588960403.1337223,2.861798953962871,-1.0517813284288369,-9.167266317987623,-0.4744444444444445,-0.4044444444444445,0.5466666666666666,-12.357804327834932,-22.232473849071784,159.8054461942257
1588960403.1437223,2.95822518535548,-1.236598271931337,-9.199408395118493,-0.4744444444444445,-0.4044444444444445,0.5466666666666666,-13.111134260589688,-24.643129633887007,166.6858595800525
1588960403.1537223,2.8590340587161354,-1.3528978238515939,-9.237954588378487,-0.4955555555555556,-0.32,0.5611111111111111,-14.178977451577026,-29.03018566512077,176.47834081799678
1588960403.1637223,2.774687559174399,-1.5625520734709335,-9.332552073470934,-0.4955555555555556,-0.32,0.5611111111111111,-14.63161865650445,-31.315103673546677,183.0661865650445
1588960403.1737223,2.6555538723726566,-1.5824076879378906,-9.352407687937891,-0.4955555555555556,-0.32,0.5611111111111111,-15.169374881651203,-32.30788439689453,188.44374881651203
1588960403.1837223,2.64939151192784,-1.640135219571591,-9.319898585321306,-0.4955555555555556,-0.32,0.5611111111111111,-15.627746647547944,-32.753803050451,198.52260702212538
1588960403.1937222,2.528435041735425,-1.6670144351699057,-9.29973917362257,-0.4955555555555556,-0.32,0.5611111111111111,-16.173730714388707,-33.5097809891536,203.0164758799686
1588960403.2037222,2.582711203535222,-1.7927112035352222,-9.33696300147301,-0.5686091134024589,-0.21981226352424688,0.5746782004255361,-16.848426262888832,-35.75352005892037,210.17731890650722
1588960403.2137222,2.6209420137762596,-1.838677517220325,-9.37094201377626,-0.5733333333333334,-0.21333333333333332,0.5755555555555556,-16.97169379305081,-36.503509654830275,212.9656917227957
1588960403.2237222,2.4538693131916385,-1.9670249429123483,-9.45509028631653,-0.5733333333333334,-0.21333333333333332,0.5755555555555556,-17.073463024767257,-35.206147900930965,215.23683361145265
1588960403.2337222,1.9823513086246267,-1.6060189706657297,-9.329843316353417,-0.5733333333333334,-0.21333333333333332,0.5755555555555556,-17.165556385034254,-34.83777445986299,215.65125373265414
1588960403.2437222,1.9279328477741848,-1.6455211701774002,-9.3,-0.5733333333333334,-0.21333333333333332,0.5755555555555556,-17.308193432862886,-38.06906940372934,216.65520074647165
1588960403.2537222,2.1784254930526865,-1.827446780751919,-9.397595729413556,-0.5693900715388462,-0.1265815738546174,0.5755555555555556,-17.367952118984974,-42.40186104285807,217.51928178477462
1588960403.2637222,2.1233994371647174,-1.604792454489491,-9.328191891654207,-0.5688888888888889,-0.11555555555555555,0.5755555555555556,-16.732933559053734,-41.474342625978366,215.61064330313957
1588960403.2737222,1.9188739529517982,-2.00092717058735,-9.516092441189747,-0.5688888888888889,-0.11555555555555555,0.5755555555555556,-16.254551838290617,-39.40934882379496,212.27855400762402
1588960403.2837222,1.8030344091650392,-1.9972297501359049,-9.383482795417482,-0.5688888888888889,-0.11555555555555555,0.5755555555555556,-15.665732528640747,-36.520616052912395,209.23153451990254
1588960403.2937222,1.7523653532526626,-1.9043364809632148,-9.408817323373668,-0.5688888888888889,-0.11555555555555555,0.5755555555555556,-15.507391728914572,-35.30666992167838,207.27866465661305
1588960403.3037221,1.51,-1.8857904341144833,-9.35262869765655,-0.57,-0.01,0.5966666666666667,-14.992340568574722,-36.19071744141375,204.0878133403765
1588960403.3137221,1.51,-1.8656487706492508,-9.413053688052248,-0.57,-0.01,0.5966666666666667,-14.656646177487515,-37.70134220130618,202.11560879273915
1588960403.3237221,1.462566560839908,-1.9074334391600918,-9.467946751328075,-0.57,-0.01,0.5966666666666667,-14.32533280419954,-40.97100634960551,198.65720185144437
1588960403.333722,1.3643275316455696,-1.8302729430379747,-9.462027294303798,-0.57,-0.01,0.5966666666666667,-13.614888251582279,-42.819199960443036,195.56006477452533
1588960403.343722,1.2326788798212047,-1.7456073278927229,-9.411705495919541,-0.57,-0.01,0.5966666666666667,-13.068583649385392,-43.7530677508381,192.69961544647998
1588960403.353722,1.1341174571140262,-1.7194127144298688,-9.387647628657922,-0.5667319206189034,0.034445879582912876,0.614314295324588,-12.419106962663976,-43.34188446014127,188.7425782038345
1588960403.363722,1.0359720847117915,-1.7379860423558957,-9.38469923450291,-0.5644444444444444,0.06555555555555556,0.6266666666666667,-11.524738294173046,-40.76923401994639,183.8900382748545
1588960403.373722,0.9764149747174071,-1.716657904096244,-9.450512146468942,-0.5644444444444444,0.06555555555555556,0.6266666666666667,-10.967990845691135,-37.33843591983794,180.44574873587035
1588960403.383722,0.9310143963877592,-1.8009732638513043,-9.456997943373178,-0.5644444444444444,0.06555555555555556,0.6266666666666667,-10.562628539176421,-34.50089977423495,178.17571981938795
1588960403.393722,0.8493659886962205,-1.8486620016148256,-9.425351993540698,-0.5644444444444444,0.06555555555555556,0.6266666666666667,-10.1043124495367,-29.34373678342112,173.38951180360644
1588960403.403722,0.7753502661312914,-1.9146497338687085,-9.41281669623681,-0.5660407341695978,0.09349062574573827,0.6370425498801631,-9.65843916332057,-26.684800168082923,169.1310568213652
1588960403.413722,0.5829193448061372,-1.902870965512475,-9.447129034487524,-0.5666666666666667,0.10444444444444444,0.6411111111111111,-9.20992941806621,-25.991028232773516,162.29218717603152
1588960403.423722,0.5155318733653433,-1.892218839052192,-9.496686965686848,-0.5666666666666667,0.10444444444444444,0.6411111111111111,-8.749809696685794,-27.41033542179022,157.44946471093414
1588960403.433722,0.45872507564225445,-1.8249003025690178,-9.447450151284508,-0.5666666666666667,0.10444444444444444,0.6411111111111111,-8.409611029674316,-29.268674475202495,150.21587994023793
1588960403.443722,0.44296029016556726,-1.761841160662269,-9.415920580331134,-0.5666666666666667,0.10444444444444444,0.6411111111111111,-8.064756347371784,-28.726759974441375,145.9298288887636
1588960403.453722,0.29859276796511725,-1.8157783038953519,-9.419530922655039,-0.75,0.048888888888888885,0.5733333333333334,-7.598614399345949,-25.680571996729743,139.48614399345948
1588960403.463722,0.2771608386844033,-1.7514825160532097,-9.412386946228134,-0.75,0.048888888888888885,0.5733333333333334,-7.196765725332561,-23.671328626662806,135.46765725332563
1588960403.473722,0.21702596974124522,-1.7952415515859923,-9.51345713343074,-0.75,0.048888888888888885,0.5733333333333334,-6.540194773059339,-21.190519394824904,127.322483150304
1588960403.483722,0.17,-1.72,-9.41,-0.75,0.048888888888888885,0.5733333333333334,-6.1875,-20.25,120.5625
1588960403.493722,0.1669235498683882,-1.7138470997367763,-9.400770649605166,-0.75,0.048888888888888885,0.5733333333333334,-6.014449680096836,-20.230772186677427,118.10133989471055
1588960403.503722,0.15492723135706007,-1.68731807839265,-9.38507276864294,-0.9095103917724447,0.07735275738538522,0.3061675181384966,-5.5457379899540635,-20.12409039196325,110.58094974885158
1588960403.513722,0.1582201283525615,-1.6135597432948772,-9.327119486589755,-1.3788888888888888,0.16111111111111112,-0.48,-4.856996791185963,-19.19730728567719,96.77869384575435
1588960403.523722,0.15065794136407662,-1.4698691204611496,-9.441446762267002,-1.3788888888888888,0.16111111111111112,-0.48,-4.287009201729311,-17.139812539866284,87.35859576177089
1588960403.533722,0.12222344387302714,-1.4461117219365136,-9.394446887746053,-1.3788888888888888,0.16111111111111112,-0.48,-3.902793048412839,-15.003560028373826,79.71905923035999
1588960403.543722,0.06252058629776021,-1.3925205862977603,-9.390348320158102,-1.3788888888888888,0.16111111111111112,-0.48,-3.326076663372859,-12.217344985177865,69.96940361495389
1588960403.553722,0.002358167438191519,-1.401368193801507,-9.362358167438192,-0.9571609500019604,0.5626239917704016,0.243559670354763,-2.8505283042368132,-9.704880067672763,61.20543535798061
1588960403.563722,-0.02,-1.3653402187120292,-9.385549817739976,-0.7066666666666667,0.8011111111111111,0.6733333333333333,-2.516688183475091,-6.472509113001215,50.302342800729036
1588960403.573722,-0.03365671127052007,-1.4555969788936405,-9.4241417781763,-0.7066666666666667,0.8011111111111111,0.6733333333333333,-2.1585822182369983,-5.35377832287212,43.459657150986345
1588960403.5837219,-0.0054045319328656916,-1.5691909361342686,-9.44,-0.7066666666666667,0.8011111111111111,0.6733333333333333,-1.6216120680157187,-4.180724136031437,32.84101968489478
1588960403.5937219,-0.007570583463585462,-1.5875705834635856,-9.394576499218488,-0.7066666666666667,0.8011111111111111,0.6733333333333333,-1.2786031201155452,-4.1571322932948185,23.723203509882673
1588960403.6037219,0.04870959229449796,-1.541075339754585,-9.370215067950916,-0.4424735013414258,0.4390686252950404,0.7483511457096362,-0.6982533975458505,-2.658604367330782,10.057139794168096
1588960403.6137218,0.05898431210426684,-1.5759372484170675,-9.37,-0.43666666666666665,0.4311111111111111,0.75,-0.23828439478665764,-0.4350739245849562,-0.12639526534519874
1588960403.6237218,-0.02019003226963069,-1.6423700250986015,-9.476920043026174,-0.43666666666666665,0.4311111111111111,0.75,0.3693752240946576,2.207063463607027,-12.109066869845824
1588960403.6337218,-0.16766208658427123,-1.7360388041151695,-9.429772837119382,-0.43666666666666665,0.4311111111111111,0.75,0.9752425257198094,3.306613788579714,-23.977253504108266
1588960403.6437218,-0.17586545848517682,-1.75,-9.412932729242588,-0.43666666666666665,0.4311111111111111,0.75,1.2833522111691127,3.3049886732985323,-33.019793410814536
1588960403.6537218,-0.159141733389521,-1.75,-9.41542913330524,-0.4028853927673987,0.3635485633125751,0.7578420814409015,1.646456665261975,3.9286416631549375,-41.38983705576626
1588960403.6637218,-0.3217293906810036,-1.901121863799283,-9.468084229390682,-0.3744444444444445,0.30666666666666664,0.7644444444444445,2.218458781362007,6.646617383512545,-52.10019041218638
1588960403.6737218,-0.5258581345248543,-1.9964964493736534,-9.542992898747308,-0.3744444444444445,0.30666666666666664,0.7644444444444445,2.5820035107316683,9.488031596585015,-60.029786363999044
1588960403.6837218,-0.6626831677415606,-2.2086673251602655,-9.560308910967793,-0.3744444444444445,0.30666666666666664,0.7644444444444445,2.8994925725795517,10.982623758061704,-65.19919552418027
1588960403.6937218,-0.6660183397683398,-2.372440361279647,-9.55,-0.3744444444444445,0.30666666666666664,0.7644444444444445,3.0919724731108658,10.505619139547711,-69.7870415057915
1588960403.7037218,-0.5541347526937557,-2.109846812930027,-9.485788653771259,-0.38157903846986024,0.28424365687250275,0.752213711829446,3.0625,7.269237634687784,-73.96008860184344
1588960403.7137218,-0.3948710376058279,-2.253747238082737,-9.488618275688566,-0.38222222222222224,0.2822222222222222,0.7511111111111111,2.954771553892936,7.655006453588852,-74.61841378442826
1588960403.7237217,-0.3144177298571627,-2.3417580779364857,-9.53940646234919,-0.38222222222222224,0.2822222222222222,0.7511111111111111,3.1690927922618224,9.448347143253363,-74.84189519484121
1588960403.7337217,-0.454443427176318,-2.349662012664988,-9.51690852216373,-0.38222222222222224,0.2822222222222222,0.7511111111111111,3.454709315632868,13.154573891813534,-77.21284905012588
1588960403.7437217,-0.5556451798966892,-2.426725841803709,-9.509129035979338,-0.38780107754292864,0.2725860175773656,0.742489243797292,3.414415287693708,12.48800341592217,-78.70776241075663
1588960403.7537217,-0.6094065396003435,-2.5288724252406523,-9.519881307920068,-0.3943719103955975,0.261236397195483,0.7323343202977128,3.313612738249356,10.70715837573862,-79.61498535575579
1588960403.7637217,-0.5719157530294288,-2.5223831506058856,-9.54538949798038,-0.3944444444444444,0.2611111111111111,0.7322222222222222,3.1855525100980957,9.656051644547029,-78.32378822850548
1588960403.7737217,-0.46819058610172287,-2.5016381172203443,-9.614539609265517,-0.3944444444444444,0.2611111111111111,0.7322222222222222,2.8398019536724095,6.846828373588327,-74.7798450251422
1588960403.7837217,-0.40539320541050644,-2.4817977351368357,-9.56903365838314,-0.3944444444444444,0.2611111111111111,0.7322222222222222,2.766994337842089,7.193820776973891,-73.38511127713117
1588960403.7937217,-0.3000002301337077,-2.4200006904011233,-9.494999654799438,-0.3944444444444444,0.2611111111111111,0.7322222222222222,2.7187492808321636,9.437471233286539,-69.93753452005615
1588960403.8037217,-0.2857681438529652,-2.4280867053233135,-9.514231856147035,-0.38362970095757765,0.2540580175327198,0.7289307785523063,2.6706526972430975,10.819745504594838,-67.08859585313266
1588960403.8137217,-0.19059189063228213,-2.4464719589871056,-9.525588006835482,-0.3688888888888889,0.24444444444444444,0.7244444444444444,2.5974250427217647,11.0,-63.71329812024235
1588960403.8237216,-0.15133985756007584,-5.687180150637905,-11.02647819849362,-0.3688888888888889,0.24444444444444444,0.7244444444444444,-0.6558913383204388,13.056678152379977,-66.51541924988472
1588960403.8337216,1.1765496600068264,-25.94359080049358,-23.337050592034444,-0.3688888888888889,0.24444444444444444,0.7244444444444444,86.14857143794796,106.11731405392632,-375.6579294546982
1588960403.8437216,-13.672654086580591,-16.250969211894606,-11.588246966952932,-0.3688888888888889,0.24444444444444444,0.7244444444444444,152.09632845514207,208.49388156997918,-653.3454448306752
1588960403.8537216,-21.511065053939195,-20.168534815299118,-4.085810395554103,-0.3932436889324762,0.23328182775780032,0.6919713777196614,129.21592023537104,53.98416966328864,-638.021963877084
1588960403.8637216,-1.907115284298385,0.3957113980177347,-8.01753781950965,-0.3955555555555556,0.23222222222222225,0.6888888888888889,77.72779733959311,-57.38839984350547,-437.21093342462177
1588960403.8737216,-1.1102035740001313,-0.5923826667539434,-1.4205531190678808,-0.3955555555555556,0.23222222222222225,0.6888888888888889,-63.24783170779605,-75.53670550500753,-324.09901731360867
1588960403.8837216,-0.0028398737833872367,1.136697035687303,-4.6238238300519985,-0.3955555555555556,0.23222222222222225,0.6888888888888889,-145.94612739433802,-41.89132427447669,-246.776859917337
1588960403.8937216,1.2485567203587107,4.929960785539082,-10.912118362054152,-0.3955555555555556,0.23222222222222225,0.6888888888888889,-121.04411138625463,72.0557888199728,-166.93511940100302
1588960403.9037216,1.4576597532561781,6.744228639089416,-14.683575111722242,-0.42404186241931174,0.20452720166023708,0.6857237436818049,-40.291294259195595,201.3534361750888,-78.69548766280892
1588960403.9137216,0.9134037485962127,2.1610643612283624,-11.0782976416373,-0.5155555555555555,0.11555555555555555,0.6755555555555556,36.19681461294195,163.23542239476436,-16.722082784726794
1588960403.9237216,1.1774388521299533,0.5029403018362948,-8.708133224295592,-0.5155555555555555,0.11555555555555555,0.6755555555555556,9.722711136718459,29.07793100884693,-3.2714900379153966
1588960403.9337215,1.900855565777369,-0.5844158233670653,-6.829034038638454,-0.5155555555555555,0.11555555555555555,0.6755555555555556,-19.679852805887766,-97.81278748850046,5.917720791168354
1588960403.9437215,4.898930082952429,-0.06341797866937537,-12.885105806670055,-0.5155555555555555,0.11555555555555555,0.6755555555555556,-10.215549348230912,-138.21747502962586,28.51340570509565
1588960403.9537215,5.0635265304360955,-0.2708309777096865,-12.15718274604579,-0.5573899929750867,0.06664144411118064,0.6414443988903994,3.0567237770537083,-113.4441879032432,51.17949447597264
1588960403.9637215,5.5409080680389176,-2.0072155668806673,-10.296634456284334,-0.5877777777777777,0.031111111111111114,0.6166666666666667,-4.632491395856775,-53.840645476206234,55.977186610629424
1588960403.9737215,6.04,-2.46,-10.77,-0.5877777777777777,0.031111111111111114,0.6166666666666667,-7.6875,-39.5625,55.125
1588960403.9837215,4.281231109880985,-3.260867976750623,-10.134016606698035,-0.5877777777777777,0.031111111111111114,0.6166666666666667,-3.663530999169665,-9.971606006089125,30.686749238859676
1588960403.9937215,2.3829419595314167,-2.7649707135250265,-9.745491214057509,-0.5877777777777777,0.031111111111111114,0.6166666666666667,-0.5717934637912672,-3.540693224174654,14.412107294994675
1588960404.0037215,1.5901874366767985,-2.0222492401215804,-9.369140070921986,-0.5480276933468423,0.02117359000337724,0.6589011313745357,0.12734295845997973,-1.7823185790273555,3.5203979863221884
1588960404.0137215,1.58,-1.9215358226259867,-9.398447024442927,-0.5344444444444445,0.017777777777777778,0.6733333333333333,-0.16824861426552104,-0.5048530486158538,0.7549066515254991
1588960404.0237215,1.6182393111638955,-1.9113205166270784,-9.413961549881236,-0.5344444444444445,0.017777777777777778,0.6733333333333333,-0.04362984337885989,0.11124461846793349,0.03262553815320665
1588960404.0337214,1.5821905901116426,-1.9967141148325358,-9.581217304625198,-0.5344444444444445,0.017777777777777778,0.6733333333333333,-0.20157246810207335,-0.014072468102073354,-0.03473634370015949
1588960404.0437214,1.5722607054570585,-2.0011568007230003,-9.507792190531884,-0.5344444444444445,0.017777777777777778,0.6733333333333333,-0.03989294542941446,-0.11369647271470723,0.06815176364264638
1588960404.0537214,1.573734513653706,-2.0022497535045227,-9.373374630256784,-0.5344444444444445,0.02006249315290341,0.6704774391144264,0.14834071033566254,-0.03564404981352082,0.15537119003729583
1588960404.0637214,1.5691111111111111,-2.0174222222222222,-9.396133333333333,-0.5344444444444445,0.022222222222222227,0.6677777777777778,0.095,0.008055555555555566,0.0761111111111111
1588960404.0737214,1.5827604934719275,-1.9887120094953783,-9.456136028486135,-0.5344444444444445,0.022222222222222227,0.6677777777777778,0.195934341617811,0.07093434161781101,0.02684062870913211
1588960404.0837214,1.5809298341250682,-1.9852202580276717,-9.452430755652468,-0.5344444444444445,0.022222222222222227,0.6677777777777778,-0.125,0.0038743088544506143,0.0201876151909249
1588960404.0937214,1.5704231749621482,-1.9852306571861165,-9.39349981792744,-0.5344444444444445,0.022222222222222227,0.6677777777777778,-0.19567290185330702,0.05432709814669298,-0.03533645092665351
1588960404.1037214,1.5799496415664436,-1.9857574500859057,-9.375807808519461,-0.5388832935073826,0.037441133295153084,0.6627048074201342,-0.07165338586409148,0.07133864565436342,-0.02683067717281829
1588960404.1137214,1.5690049033028848,-2.0214926450456727,-9.456650322323718,-0.5422222222222223,0.048888888888888885,0.6588888888888889,0.01979677427383826,0.125,0.08540645145232348
1588960404.1237214,1.5666185086172573,-2.038920994255162,-9.58647403446903,-0.5422222222222223,0.048888888888888885,0.6588888888888889,-0.06924378590523861,0.05575621409476139,0.125
1588960404.1337214,1.58,-2.007228524620568,-9.50337114772341,-0.5422222222222223,0.048888888888888885,0.6588888888888889,-0.19616086056072457,0.07116086056072456,0.08941956971963771
1588960404.1437213,1.5848193330809732,-1.9948193330809731,-9.44337399772876,-0.5422222222222223,0.048888888888888885,0.6588888888888889,-0.34036249526824736,0.004516672975670183,0.0022583364878350914
1588960404.1537213,1.5849896269952157,-2.0050103730047844,-9.479979253990432,-0.5349850167708672,0.045548640219032696,0.6588888888888889,-0.15566651848088403,-0.031055506160294677,-0.03118516872009823
1588960404.1637213,1.5867529501332318,-2.043764750666159,-9.530776551199088,-0.5277777777777778,0.042222222222222223,0.6588888888888889,-0.0016178149980966838,0.020294061667301105,0.0
1588960404.1737213,1.59,-2.0142742204237085,-9.468548440847417,-0.5277777777777778,0.042222222222222223,0.6588888888888889,0.10080635562961199,0.081653177814806,0.040826588907403
1588960404.1837213,1.5835571559697805,-2.002885688060439,-9.465099908211537,-0.5277777777777778,0.042222222222222223,0.6588888888888889,-0.05410665113323451,0.004196674433382744,0.10276777518887241
1588960404.1937213,1.574856501984241,-1.994569505952723,-9.474569505952724,-0.5277777777777778,0.042222222222222223,0.6588888888888889,-0.05891254960602749,-0.0625,0.09285313740150687
1588960404.2037213,1.57,-1.9948954200013451,-9.467447710000673,-0.530260347778002,0.042222222222222223,0.6675778838896734,-0.007322281256305074,-0.08577409375210168,0.08577409375210168
1588960404.2137213,1.5732750968650935,-2.00034941880944,-9.437423740753786,-0.5344444444444445,0.042222222222222223,0.6822222222222222,-0.02265322296583304,-0.06359193377949982,0.1045306445931666
1588960404.2237213,1.5670351122226915,-1.9902514048137199,-9.445075843700263,-0.5344444444444445,0.042222222222222223,0.6822222222222222,0.10646945139182122,-0.01853054860817878,0.035489817130607074
1588960404.2337213,1.5577707006369428,-2.03,-9.531146496815287,-0.5344444444444445,0.042222222222222223,0.6822222222222222,0.07285031847133758,-0.027866242038216568,0.0
1588960404.2437212,1.5724083001467197,-2.02759169985328,-9.46759169985328,-0.5344444444444445,0.042222222222222223,0.6822222222222222,0.1649221861245022,0.1024221861245022,0.007525937958499266
1588960404.2537212,1.5846430625679044,-1.9778583754074262,-9.428572250271618,-0.5421822429574714,0.03448442370919523,0.6697227015473324,0.0,-0.02901914104940244,0.02901914104940244
1588960404.2637212,1.5864328624395738,-1.9950300370770169,-9.46146289951659,-0.5488888888888889,0.027777777777777776,0.6588888888888889,0.08041078049467312,0.04020539024733656,0.0
1588960404.2737212,1.5714729111819317,-2.0138243037273105,-9.551756962726895,-0.5488888888888889,0.027777777777777776,0.6588888888888889,0.16359810170430927,0.0625,-0.038598101704309266
1588960404.2837212,1.5775531326356553,-2.01,-9.496383292609838,-0.5488888888888889,0.027777777777777776,0.6588888888888889,0.11436194735143608,-0.04720707897284589,-0.02593097367571804
1588960404.2937212,1.59,-1.9862214983713353,-9.43,-0.5488888888888889,0.027777777777777776,0.6588888888888889,-0.026669381107491855,-0.125,0.0
1588960404.3037212,1.5949341123424254,-1.9550658876575746,-9.390527101260597,-0.5384724294993244,0.021747196025924634,0.6561477153653192,-0.03248539357952561,-0.06332359571968374,0.030838202140158127
1588960404.3137212,1.5771379560599064,-1.978577554925117,-9.447163686745398,-0.5277777777777778,0.015555555555555557,0.6533333333333333,0.026778056343603612,-0.03572194365639639,0.0625
1588960404.3237212,1.5705539892867213,-2.0,-9.51472300535664,-0.5277777777777778,0.015555555555555557,0.6533333333333333,0.16490608260501832,0.036443649563010994,0.029518783478996335
1588960404.3337212,1.5748631103584534,-1.9948631103584533,-9.484315551792267,-0.5277777777777778,0.015555555555555557,0.6533333333333333,0.21618331922099915,-0.0034222410386677837,0.032105560259666946
1588960404.3437212,1.583533504443926,-1.9945111681479752,-9.428421822964173,-0.5277777777777778,0.015555555555555557,0.6533333333333333,0.012220796300617273,-0.06861039815030864,0.03430519907515432
1588960404.3537211,1.5868993211977904,-2.003275169700552,-9.41620135760442,-0.5237747925882137,0.019558540745119625,0.6504220713772867,-0.1454698106284526,-0.04093962125690523,0.020469810628452614
1588960404.3637211,1.561657103723995,-2.005028688828015,-9.46005737765603,-0.5155555555555555,0.027777777777777776,0.6444444444444445,-0.1564293051750944,-0.125,0.05214310172503146
1588960404.3737211,1.569420300584882,-1.9817390982453542,-9.41347819649071,-0.5155555555555555,0.027777777777777776,0.6444444444444445,-0.01086936403346414,-0.125,0.0036231213444880422
1588960404.383721,1.5640657114716323,-1.977967144264184,-9.511704298377655,-0.5155555555555555,0.027777777777777776,0.6444444444444445,0.10061604504655182,-0.08688395495344818,0.049794651651149394
1588960404.393721,1.5796547174369553,-1.9701726412815224,-9.441553771533702,-0.5155555555555555,0.027777777777777776,0.6444444444444445,0.24676297597145563,0.059262975971455634,0.0010790080095147841
1588960404.403721,1.5768716810940568,-2.0037433621881138,-9.444358405470284,-0.5238977393047372,0.030210914704622425,0.6583480840264139,-0.10544800683785553,-0.04294800683785553,0.0038440205135665956
1588960404.413721,1.57,-1.99,-9.440820315111537,-0.5422222222222223,0.03555555555555556,0.6888888888888889,-0.15881348472355314,-0.0642089898157021,-0.02868651527644686
1588960404.423721,1.5666454366601088,-1.9866454366601087,-9.483418253359565,-0.5422222222222223,0.03555555555555556,0.6888888888888889,-0.12420387475407649,-0.08306795825135883,0.04153397912567942
1588960404.433721,1.5608130556855406,-1.9840652784277024,-9.51081305568554,-0.5422222222222223,0.03555555555555556,0.6888888888888889,0.13516319606925598,0.0,0.005081598034627983
1588960404.443721,1.5728995930727738,-2.0126024415633577,-9.488104476199489,-0.5422222222222223,0.03555555555555556,0.6888888888888889,0.19563262988549257,-0.03624491340967162,0.0625
1588960404.453721,1.579514999526829,-1.9729100028390272,-9.415335005204883,-0.5422222222222223,0.03555555555555556,0.6888888888888889,0.07159375887195987,-0.11893749408536008,0.0625
1588960404.463721,1.5724587995489636,-1.990164801804146,-9.40737639864689,-0.5344444444444445,0.008888888888888889,0.68,-0.031765005637956464,0.06353001127591293,0.031765005637956464
1588960404.473721,1.577474270407444,-1.970102918370224,-9.460308755110672,-0.5344444444444445,0.008888888888888889,0.68,0.046714190046524745,-0.07764257013957424,-0.015142570139574228
1588960404.483721,1.57465717429874,-2.0,-9.51274260561008,-0.5344444444444445,0.008888888888888889,0.68,0.14553669683562784,0.03339266063287444,0.06678532126574888
1588960404.493721,1.5692392657432472,-1.9964130885810825,-9.452065442905413,-0.5344444444444445,0.008888888888888889,0.68,0.2228272145270604,0.0,-0.0224181963682349
1588960404.503721,1.5541191411762152,-1.9879404294118923,-9.424119141176215,-0.5374193797383777,0.014381077123842468,0.6774827470589797,0.02388305147298265,0.0,-0.0625
1588960404.513721,1.5682292388399486,-1.9817707611600515,-9.434687716519845,-0.5488888888888889,0.03555555555555556,0.6677777777777778,-0.09179822824903494,0.02213451450064337,-0.051432742749678316
1588960404.523721,1.5687889988885155,-1.9943944994442577,-9.462733993331092,-0.5488888888888889,0.03555555555555556,0.6677777777777778,0.089965621526611,0.042603135420166985,0.027465621526611004
1588960404.533721,1.5753217090069285,-2.0,-9.497251963048498,-0.5488888888888889,0.03555555555555556,0.6677777777777778,0.125,0.02521795612009238,0.0625
1588960404.543721,1.57,-2.003640075497862,-9.46,-0.5488888888888889,0.03555555555555556,0.6677777777777778,0.07949905627672278,0.07949905627672278,0.0625
1588960404.553721,1.57,-2.00759015640617,-9.450360625624679,-0.551834253281348,0.0336812327603543,0.6677777777777778,0.0,-0.01506152246143872,0.04743847753856128
1588960404.563721,1.5671372743626326,-1.9971372743626326,-9.43145090254947,-0.5611111111111111,0.027777777777777776,0.6677777777777778,-0.017892035233546304,-0.08039203523354631,-0.017892035233546304
1588960404.573721,1.5628831592435832,-1.9885584203782083,-9.470091057352542,-0.5611111111111111,0.027777777777777776,0.6677777777777778,-0.04448025472760456,-0.10698025472760456,-0.03547038209140682
1588960404.583721,1.5791698054595582,-1.980415097270221,-9.527094319108453,-0.5611111111111111,0.027777777777777776,0.6677777777777778,0.05731128412223818,-0.005188715877761818,0.11721692618335727
1588960404.593721,1.5547252883542106,-1.9923626441771052,-9.504010914051841,-0.5611111111111111,0.027777777777777776,0.6677777777777778,0.10679957832072429,-0.0329669477861838,-0.09546694778618381
1588960404.603721,1.5716096287703016,-1.9983903712296984,-9.42,-0.5557456818767724,0.0301027971126579,0.6686720159835009,0.21981946055684454,0.042379640371229696,0.0
1588960404.613721,1.5743121759342036,-1.99,-9.422843912032898,-0.5277777777777778,0.042222222222222223,0.6733333333333333,0.026951099588771683,-0.04472554979438584,0.0
1588960404.623721,1.562266000157443,-1.9892446666141856,-9.437553333858144,-0.5277777777777778,0.042222222222222223,0.6733333333333333,-0.06722083366133984,-0.00472083366133984,0.00944166732267968
1588960404.6337209,1.5813567180255703,-1.9843216409872149,-9.51271343605114,-0.5277777777777778,0.042222222222222223,0.6733333333333333,-0.0709794876598136,-0.008479487659813607,0.0439692314897204
1588960404.6437209,1.5732056020581948,-1.9932056020581947,-9.470766387650832,-0.5277777777777778,0.042222222222222223,0.6733333333333333,0.0,0.002394961408848789,-0.022429974272565857
1588960404.6537209,1.5780447652793979,-2.001955234720602,-9.4290223826397,-0.5291898917426572,0.040158363350475505,0.6733333333333333,0.0,-0.125,0.0625
1588960404.6637208,1.5606488706365504,-2.0190266940451744,-9.4212977412731,-0.5422222222222223,0.021111111111111112,0.6733333333333333,-0.0020277207392197126,-0.12297227926078029,0.0625
1588960404.6737208,1.5771508065524573,-1.9871508065524572,-9.482793547580343,-0.5422222222222223,0.021111111111111112,0.6733333333333333,-0.044692540952857324,-0.044692540952857324,0.0625
1588960404.6837208,1.5721253724692974,-1.98,-9.529373137653513,-0.5422222222222223,0.021111111111111112,0.6733333333333333,0.01328357793310869,0.01328357793310869,0.07578357793310869
1588960404.6937208,1.58,-1.9771948190570026,-9.481584457171008,-0.5422222222222223,0.021111111111111112,0.6733333333333333,0.08003238089373318,0.0625,0.08993523821253362
1588960404.7037208,1.576017105871475,-1.9759743411927877,-9.446059870550162,-0.5393456875738429,0.020004751630965226,0.6722269738531874,0.10010691169671752,0.037606911696717524,0.012446544151641238
1588960404.7137208,1.5667750845278348,-1.9932249154721653,-9.396775084527835,-0.5277777777777778,0.015555555555555557,0.6677777777777778,0.042344278298966614,-0.04132786085051669,0.0625
1588960404.7237208,1.5737896581945663,-1.98,-9.437946538124452,-0.5277777777777778,0.015555555555555557,0.6677777777777778,0.08618536371603856,0.03881463628396144,0.04309268185801928
1588960404.7337208,1.56,-1.98,-9.497081441029785,-0.5277777777777778,0.015555555555555557,0.6677777777777778,0.0,0.10675900643615391,0.036481987127692184
1588960404.7437208,1.5645285035141319,-1.9845285035141318,-9.471885985943473,-0.5277777777777778,0.015555555555555557,0.6677777777777778,-0.014151573481662122,0.0625,0.09669685303667576
1588960404.7537208,1.5760211532928718,-1.9960211532928718,-9.425915386828514,-0.5277777777777778,0.015555555555555557,0.6677777777777778,-0.05006610404022414,0.0625,0.024867791919551727
1588960404.7637208,1.57,-1.9908113324214431,-9.409188667578556,-0.5344444444444445,0.027777777777777776,0.6677777777777778,0.0025354138170098745,-0.2398583447319605,0.0
1588960404.7737207,1.57,-2.0065294459330323,-9.393470554066969,-0.5344444444444445,0.027777777777777776,0.6677777777777778,0.05165451854072589,-0.043381925837096436,0.0
1588960404.7837207,1.56,-1.9992852101379532,-9.526426050689766,-0.5344444444444445,0.027777777777777776,0.6677777777777778,-0.06696743663779275,0.0714348732755855,-0.008934873275585498
1588960404.7937207,1.56,-1.9903144048764838,-9.48157202438242,-0.5344444444444445,0.027777777777777776,0.6677777777777778,-0.12303496952197626,0.18356993904395252,-0.12106993904395252
1588960404.8037207,1.5875142857142859,-2.008342857142857,-9.446685714285714,-0.5322349206349207,0.027777777777777776,0.6677777777777778,-0.010357142857142858,0.0,0.11464285714285714
1588960404.8137207,1.5616501541623844,-1.9911001027749229,-9.412200205549846,-0.509244581477675,0.027777777777777776,0.6677777777777778,-0.11812435765673177,0.0,0.0068756423432682345
1588960404.8237207,1.5752128410446127,-1.992180738433081,-9.443883466789982,-0.5077777777777778,0.027777777777777776,0.6677777777777778,-0.029919743471170927,0.09508025652882907,-0.016290128264414536
1588960404.8337207,1.5817743426823776,-1.9782256573176225,-9.531774342682377,-0.5077777777777778,0.027777777777777776,0.6677777777777778,0.045363213921619766,0.11895285568647905,-0.011089641764859284
1588960404.8437207,1.5643027782525305,-1.9978486108737348,-9.494940276116143,-0.5077777777777778,0.027777777777777776,0.6677777777777778,-0.0268923640783152,-0.0625,0.0981076359216848
1588960404.8537207,1.58,-1.9901874503088497,-9.439625099382301,-0.5079235724624386,0.027652810905211368,0.6673403937237954,-0.12148530670906978,-0.06367156443031008,0.0011715644303100729
1588960404.8637207,1.582418456252301,-2.002418456252301,-9.4175815437477,-0.5155555555555555,0.021111111111111112,0.6444444444444445,0.0473846484231194,-0.0796539452693582,0.0625
1588960404.8737206,1.5854218963588915,-2.003132844538337,-9.432890518205543,-0.5155555555555555,0.021111111111111112,0.6444444444444445,-0.014306573878464023,0.07680657387846403,0.019580278364607927
1588960404.8837206,1.57,-1.9812327692186968,-9.506301692343909,-0.5155555555555555,0.021111111111111112,0.6444444444444445,-0.0625,0.10959038476628914,-0.10959038476628914
1588960404.8937206,1.5714000365588183,-1.9885999634411817,-9.477199926882363,-0.5155555555555555,0.021111111111111112,0.6444444444444445,-0.07125022849261345,0.0,-0.008750228492613456
1588960404.9037206,1.5783699752397096,-1.9816300247602905,-9.463260049520581,-0.5155555555555555,0.021111111111111112,0.6444444444444445,-0.11481234524818451,0.0,-0.05231234524818452
1588960404.9137206,1.57,-1.9812734182635692,-9.432546836527138,-0.5344444444444445,0.027777777777777776,0.6588888888888889,0.1488765924419227,0.054541135852692435,-0.17158227170538487
1588960404.9237206,1.5735325943021452,-1.99,-9.465896674359653,-0.5344444444444445,0.027777777777777776,0.6588888888888889,0.24626385683477736,0.0,-0.05146064280579622
1588960404.9337206,1.5894014604063411,-1.99,-9.537306571828534,-0.5344444444444445,0.027777777777777776,0.6588888888888889,-0.051277382618894474,0.0,-0.0018704362301842498
1588960404.9437206,1.5778155891058696,-1.9821844108941304,-9.493446767317609,-0.5344444444444445,0.027777777777777776,0.6588888888888889,0.048847431911685314,0.03519486382337063,-0.08404229573505595
1588960404.9537206,1.5700074464322282,-1.9899925535677718,-9.470022339296685,-0.5344444444444445,0.027777777777777776,0.6588888888888889,4.6540201425991634e-05,-0.06240691959714802,0.062360379395722004
1588960404.9637206,1.5969178390184364,-1.99,-9.434109547975417,-0.5174961754328363,0.04073821878665458,0.6459284478800121,0.05607883128840924,0.04965766257681847,-0.04965766257681847
1588960404.9737206,1.5855126776499633,-1.998504225883321,-9.427949289400148,-0.5155555555555555,0.042222222222222223,0.6444444444444445,0.009348588229243456,0.0625,0.0
1588960404.9837205,1.5639411290737344,-1.9913137096912448,-9.514235483705061,-0.5155555555555555,0.042222222222222223,0.6444444444444445,0.05428931442972005,0.0625,0.0
1588960404.9937205,1.5721713875082342,-1.988914306245883,-9.47674291873765,-0.5155555555555555,0.042222222222222223,0.6444444444444445,0.05571441403676867,-0.013571171926462662,-0.11142882807353734
1588960405.0037205,1.5889161027606444,-1.9805419486196778,-9.451625845859033,-0.5155555555555555,0.042222222222222223,0.6444444444444445,0.00338717887298641,-0.11822564225402718,-0.00677435774597282
1588960405.0137205,1.5717596739614952,-1.9917596739614951,-9.401759673961495,-0.5422222222222223,0.021111111111111112,0.6822222222222222,0.05150203774065505,-0.0625,-0.0625
1588960405.0237205,1.5791022802426893,-2.0,-9.41987491733042,-0.5422222222222223,0.021111111111111112,0.6822222222222222,0.016832245449578745,-0.07933224544957874,-0.06811074848319291
1588960405.0337205,1.572341001661092,-1.9976589983389081,-9.510635993355633,-0.5422222222222223,0.021111111111111112,0.6822222222222222,0.1875,-0.13294991694541153,-0.125
1588960405.0437205,1.5812819758894443,-1.99,-9.473590120552778,-0.5422222222222223,0.021111111111111112,0.6822222222222222,0.16346295207291972,0.20993825345486622,-0.10897530138194648
1588960405.0537205,1.5877727912842972,-1.99,-9.441136043578513,-0.5422222222222223,0.021111111111111112,0.6822222222222222,0.04176016341942773,0.007100272365712895,-0.027840108946285136
1588960405.0637205,1.57062381320768,-1.98031190660384,-9.420311906603839,-0.5422222222222223,0.027569840041884487,0.6596166709645154,0.0,-0.12305058372600042,0.0
1588960405.0737205,1.5728630081300814,-2.0,-9.471452032520325,-0.5422222222222223,0.027777777777777776,0.6588888888888889,-0.044606199186991866,0.008946900406504065,-0.05355309959349593
1588960405.0837204,1.5899130081300814,-2.0,-9.539652032520324,-0.5422222222222223,0.027777777777777776,0.6588888888888889,0.061956300813008125,0.06222815040650406,-0.0002718495934959375
1588960405.0937204,1.5613702717504203,-2.024518912998319,-9.48451891299832,-0.5422222222222223,0.027777777777777776,0.6588888888888889,0.0453716031197477,0.0453716031197477,-0.0453716031197477
1588960405.1037204,1.5692910694389364,-1.9928357222442543,-9.452835722244254,-0.5422222222222223,0.027777777777777776,0.6588888888888889,-0.053638367986705196,-0.053638367986705196,0.053638367986705196
1588960405.1137204,1.5623245904934178,-1.9823245904934177,-9.41929836197367,-0.5422222222222223,0.027777777777777776,0.6546247724963432,-0.014528690583860915,0.03344261883227817,0.014528690583860915
1588960405.1237204,1.5710302459057783,-1.9720604918115563,-9.429272213152004,-0.5422222222222223,0.027777777777777776,0.6533333333333333,0.012878073822227458,0.006439036911113729,-0.006439036911113729
1588960405.1337204,1.578089811994008,-1.986179623988016,-9.492808307946072,-0.5422222222222223,0.027777777777777776,0.6533333333333333,0.10112264992510056,0.05056132496255028,-0.05056132496255028
1588960405.1437204,1.5870909689029937,-1.98,-9.473212260773652,-0.5422222222222223,0.027777777777777776,0.6533333333333333,0.0625,-0.05037903709580664,-0.05643951854790332
1588960405.1537204,1.5627418387290284,-1.98,-9.416397623701066,-0.5422222222222223,0.027777777777777776,0.6533333333333333,0.0625,0.051075671962381705,-0.005712164018809147
1588960405.1637204,1.5782810590631364,-1.99,-9.43515682281059,-0.5344444444444445,0.054444444444444434,0.6377777777777778,-0.05175661914460285,-0.0410132382892057,-0.11425661914460285
