time,acc_x,acc_y,acc_z,mag_x,mag_y,mag_z,gyr_x,gyr_y,gyr_z
1588960436.01275,1.12,-1.87,-9.78,-0.548888888888889,0.16111111111111098,0.673333333333333,-42.4375,-13.4375,-21.3125
1588960436.02275,1.5442625070718499,-2.1381629354239067,-8.409963630485734,-0.5480020115484433,0.1646586204728934,0.6721508302127388,-51.82743170613433,-19.07748727067001,-22.787273700800128
1588960436.03275,0.8069633476117353,-1.6805289743796976,-10.384569425361674,-0.542352209560243,0.18725782842569416,0.6646177608951386,-56.700385920956926,-35.49722429887659,-23.42287642447264
1588960436.04275,0.9767958460498556,-1.2467731099322013,-9.82200692325024,-0.542222222222222,0.18777777777777802,0.664444444444444,-81.87371469244792,-36.648232830134575,-15.655289219802954
1588960436.0527499,1.353772122735365,-1.0040506859357001,-9.441071665444898,-0.542222222222222,0.18777777777777802,0.664444444444444,-100.86249869096241,-36.928849443222674,-5.718196931615876
1588960436.0627499,1.7887146670567156,-0.3960463670603723,-10.05065893882327,-0.542222222222222,0.18777777777777802,0.664444444444444,-119.20385919844955,-46.60594626467254,3.605946264672542
1588960436.0727499,2.1126265549412575,-0.12060167588113338,-9.953419143054596,-0.5407630250326345,0.16880821431313858,0.6705730726407123,-138.31895462595025,-53.05002537577747,9.935113597097443
1588960436.0827498,6.019111653022122,0.17412471694826687,-8.226972652847936,-0.5366666666666671,0.11555555555555601,0.6877777777777779,-173.51725526911687,-65.47199965162864,11.846716599895489
1588960436.0927498,8.303080636061601,-1.751847796560587,-5.640999017907516,-0.5366666666666671,0.11555555555555601,0.6877777777777779,-200.77877452619262,-95.7179749044027,1.3073544622521265
1588960436.1027498,3.907987005649718,-3.0019152542372884,-4.4129084745762714,-0.5366666666666671,0.11555555555555601,0.6877777777777779,-201.41801906779662,-142.55799788135593,-21.171899717514123
1588960436.1127498,-4.228508721029457,0.8820800764583405,-7.6078168413148095,-0.5366666666666671,0.11555555555555601,0.6877777777777779,-136.29278168413148,-185.80370217087074,-47.19025625490664
1588960436.1227498,-7.3996096869986685,3.323040413694235,-24.73033040925692,-0.5366666666666671,0.11555555555555601,0.6877777777777779,92.6814669590743,-180.2113260316756,-36.229199022084174
1588960436.1327498,-0.5055539427368727,-0.2977145552854084,-6.252282541640962,-0.497777777777778,0.022222222222222,0.744444444444444,16.787161610480098,-34.06529420836811,63.35973618318395
1588960436.1427498,-2.8594158111418,-2.5946234822033456,-5.603778987961853,-0.497777777777778,0.022222222222222,0.744444444444444,-36.62873912137162,41.51684558861848,87.18552132732295
1588960436.1527498,-4.5125021707670046,-3.3094131693198263,-6.428495658465992,-0.497777777777778,0.022222222222222,0.744444444444444,-3.7656566570188126,29.597277496382056,66.44021798118669
1588960436.1627498,-2.3980559706561606,-3.2666188923606394,-5.769146855046869,-0.497777777777778,0.022222222222222,0.744444444444444,26.016498833944663,15.946000600009057,59.571088337182445
1588960436.1727498,-1.0123108549145934,-2.526328148179545,-5.720838808121052,-0.49315606794859135,0.020810033107748337,0.7452147294159751,44.218004280930785,29.044022591446616,52.763518310515835
1588960436.1827497,-1.0251211205082087,-1.3408820940645212,-6.117758218208259,-0.457777777777778,0.01,0.7511111111111108,67.12445706249282,19.663034327044507,20.430587711913052
1588960436.1927497,0.401892969182506,-0.16860970658793134,-8.357186196715261,-0.457777777777778,0.01,0.7511111111111108,93.67546133973057,-4.917243725779664,-38.37526411699576
1588960436.2027497,2.609723768511711,-0.09774708539019011,-11.714466967755488,-0.457777777777778,0.01,0.7511111111111108,101.1589840878059,-20.097015807163114,-68.55661170045164
1588960436.2127497,4.399427916753461,-0.39694358702444754,-13.419423940007952,-0.457777777777778,0.01,0.7511111111111108,95.41359691896908,-10.713262446266594,-88.2388568276933
1588960436.2227497,4.705563079744648,-0.5401692942545763,-12.85191373046944,-0.4590102556264868,0.023064265196314743,0.7511111111111108,89.48121230557614,23.64574736359468,-86.17167495503121
1588960436.2327497,3.03171153532387,-0.19,-13.011569587208355,-0.46333333333333293,0.06888888888888901,0.7511111111111108,72.14891295480503,29.825104013705335,-69.22394558655571
1588960436.2427497,0.20546836357573572,-0.5418795676216411,-11.442741267679995,-0.46333333333333293,0.06888888888888901,0.7511111111111108,43.829506141106506,23.804807986217245,-45.63393378164337
1588960436.2527497,-0.7533466956820525,-1.3660886496392166,-10.027459626617798,-0.46333333333333293,0.06888888888888901,0.7511111111111108,23.97990278891307,33.08965539457107,-13.08354569923262
1588960436.2627497,-0.9541325719667981,-1.7452181079649143,-10.233007005357038,-0.46333333333333293,0.06888888888888901,0.7511111111111108,18.168040266085832,27.82584108435863,0.022914581738976866
1588960436.2727497,0.23721949137575793,-1.9736120268440571,-9.844120062400659,-0.46333333333333293,0.06888888888888901,0.7511111111111108,19.01680145110967,19.68544971890269,0.1386547433331371
1588960436.2827497,0.7142959368891371,-1.5693776179838035,-9.740969352136275,-0.457777777777778,0.08888888888888902,0.7155555555555559,22.35695118332868,14.462628281206367,-9.307141859815694
1588960436.2927496,0.6478247048138056,-1.0484075083257645,-9.902900393581593,-0.457777777777778,0.08888888888888902,0.7155555555555559,25.358679609445957,9.09783719346049,-16.120468135028762
1588960436.3027496,0.7844418637721003,-0.8867945679480495,-9.69567829549225,-0.457777777777778,0.08888888888888902,0.7155555555555559,27.038565909845,7.875,-16.280838211594066
1588960436.3127496,0.5845459842672623,-1.1996824317762453,-9.624440128192678,-0.457777777777778,0.08888888888888902,0.7155555555555559,25.924025201515004,7.988370399145382,-14.233356802952317
1588960436.3227496,0.17842488945544357,-1.542401904154882,-9.34909472971358,-0.4597069628685374,0.08944008462910602,0.7166579470359898,23.620323019161056,9.007129376966896,-9.38409129386926
1588960436.3327496,0.06146635860255745,-1.667714615782974,-9.440990718240847,-0.47920005134401816,0.09500953847924372,0.7277968547362647,22.941545831175556,6.55308877425009,-4.423796458590607
1588960436.3427496,0.1764282496260655,-2.3356610981961037,-9.284065884557856,-0.48111111111111104,0.095555555555556,0.7288888888888891,24.685088572921735,3.290529094808167,0.9299413418392172
1588960436.3527496,0.2746890486745599,-1.7990059649312502,-9.299182930565317,-0.48111111111111104,0.095555555555556,0.7288888888888891,26.99988624281415,1.1174537312356958,2.0637197923987673
1588960436.3627496,0.37062860672372716,-1.7890105003088326,-9.65351575046325,-0.48111111111111104,0.095555555555556,0.7288888888888891,28.661597767581398,-0.9566354892790965,3.073777905232507
1588960436.3727496,0.22999205858995853,-1.892637430512662,-9.808956145768994,-0.48111111111111104,0.095555555555556,0.7288888888888891,28.569073722756553,-0.3552291979175858,4.230328465543105
1588960436.3827496,1.412460619968107,-0.7279069269962273,-9.654798724281436,-0.46333333333333293,0.08888888888888902,0.7155555555555559,29.405538971646376,6.356558233829879,8.50010938897748
1588960436.3927495,1.5281863583498665,0.0835821303961141,-10.096372716699733,-0.46333333333333293,0.08888888888888902,0.7155555555555559,30.467247041116508,11.74680594513238,8.083041150714921
1588960436.4027495,1.47081697667249,-0.08544582605419104,-10.985812181002295,-0.46333333333333293,0.08888888888888902,0.7155555555555559,26.80833376151817,14.944835876751275,4.283509745486931
1588960436.4127495,0.350153118898366,-2.815268043709108,-11.366550542938375,-0.46333333333333293,0.08888888888888902,0.7155555555555559,20.432762134758335,12.026440413797829,-1.0145004795670198
1588960436.4227495,1.4377711416742016,-1.969694950744777,-10.34145766906201,-0.46333333333333293,0.08888888888888902,0.7155555555555559,9.619809760624374,7.920445081616142,-9.53066702755437
1588960436.4327495,0.8349608133869942,-1.78427451811057,-9.939498929134599,-0.48828201286084505,0.13878624794391228,0.7155555555555559,1.6289627903692718,12.939310762785663,-11.028363223422533
1588960436.4427495,-0.5542064027395839,-1.5890930317023815,-10.178475328179317,-0.48888888888888893,0.14,0.7155555555555559,-4.098709982877601,6.6122457583147405,-12.369722215015825
1588960436.4527495,-0.24714483423850364,-1.583932353372895,-9.616653945354274,-0.48888888888888893,0.14,0.7155555555555559,-4.680529052821405,4.815925842437459,-7.870858583740485
1588960436.4627495,0.39571102757950755,-1.8784149174304177,-9.466596697216708,-0.48888888888888893,0.14,0.7155555555555559,-4.460372935760443,4.371212041221439,-2.6883737382269715
1588960436.4727495,1.009255613985219,-1.8774438601478114,-9.12255613985219,-0.4902949513612533,0.13818038974164618,0.7150592982123685,-4.198823461483798,3.580494510375213,0.615695174815236
1588960436.4827495,1.1329617973947337,-2.011154842050751,-9.042663028323307,-0.507777777777778,0.11555555555555601,0.7088888888888891,-3.146994383141457,2.447859817551687,-0.15293739792056726
1588960436.4927495,1.4237282587453586,-2.077630447527848,-9.07,-0.507777777777778,0.11555555555555601,0.7088888888888891,-1.7839676568301739,3.993477623607583,-2.0168815345905804
1588960436.5027494,1.4148231773667028,-1.9917491838955386,-8.99614798694233,-0.507777777777778,0.11555555555555601,0.7088888888888891,0.80598816648531,9.493930223068553,-4.535007480957563
1588960436.5127494,1.2925736437121094,-2.048798966267682,-8.637549354888854,-0.507777777777778,0.11555555555555601,0.7088888888888891,3.5056653680242498,12.499231258743976,-7.1328100711176745
1588960436.5227494,0.13743859649122814,-1.917012145748988,-8.659552856500225,-0.507777777777778,0.11555555555555601,0.7088888888888891,6.148374943769681,10.623093792172739,-9.080729869545658
1588960436.5327494,-0.3943050315106769,-1.8603587526258898,-8.655381289388346,-0.502222222222222,0.14,0.7088888888888891,10.284196477738574,5.3520145418204805,-9.095287930085048
1588960436.5427494,-0.49695763904468604,-1.8689131365870573,-8.783697048805859,-0.502222222222222,0.14,0.7088888888888891,14.080204360506618,1.8233311578389184,-5.406209846831596
1588960436.5527494,-0.170366330893543,-1.8625364156822959,-8.967853467642582,-0.502222222222222,0.14,0.7088888888888891,21.28094200666715,-4.280560411986376,1.0981683455322848
1588960436.5627494,0.5135364881513154,-2.105701862453801,-9.241414595260526,-0.502222222222222,0.14,0.7088888888888891,25.745307630987753,-9.457324806145373,4.517682440756577
1588960436.5727494,1.2878545317707775,-2.130316363831846,-9.405887270186001,-0.502222222222222,0.14,0.7088888888888891,30.006363563057736,-14.060954467261585,7.239340863885603
1588960436.5827494,1.6086167296786391,-2.0722032136105857,-9.959069470699433,-0.48188631590002096,0.12822658055030478,0.7088888888888891,30.90766481568998,-12.561965382797732,6.7104501417769375
1588960436.5927494,1.8581911898274297,-1.972558583106267,-11.975885558583107,-0.48111111111111104,0.12777777777777802,0.7088888888888891,25.98107970027248,-6.042467075386012,2.0849341507720256
1588960436.6027493,1.8053420646083609,-2.148418686158316,-9.984287855380572,-0.48111111111111104,0.12777777777777802,0.7088888888888891,16.232733922848116,-2.7402104613894718,-3.6314951347736866
1588960436.6127493,1.4113536975526257,-2.33,-9.825432315122368,-0.48111111111111104,0.12777777777777802,0.7088888888888891,6.4961243963075415,4.291448454343529,-10.452947649420251
1588960436.6227493,0.38570619281478624,-2.33,-9.876714690359261,-0.48111111111111104,0.12777777777777802,0.7088888888888891,2.329431408310069,13.532959825158438,-14.138868369571863
1588960436.6327493,-0.4760764621487045,-2.0834808844628236,-9.304786901848257,-0.515555555555556,0.146666666666667,0.7233333333333329,1.160314161532619,17.426502236475653,-12.931966832644104
1588960436.6427493,-0.07387240153172868,-2.166135804157549,-9.48726750547046,-0.515555555555556,0.146666666666667,0.7233333333333329,0.7613682986870898,12.409207467177243,-9.01430012308534
1588960436.6527493,0.37155106656189507,-2.1927000402476184,-9.695149778638099,-0.515555555555556,0.146666666666667,0.7233333333333329,0.5625,6.661238428809629,-4.490305833988156
1588960436.6627493,0.7975968338539969,-2.2087772390133584,-9.606725185426528,-0.515555555555556,0.146666666666667,0.7233333333333329,0.5625,2.0390437836594666,-1.827519788412519
1588960436.6727493,0.7496579247434435,-2.196609654123907,-9.506267578867352,-0.515555555555556,0.146666666666667,0.7233333333333329,0.18589652223489167,0.5576895667046751,-1.2902413530976815
1588960436.6827493,0.727951764567022,-2.1271688240154227,-9.334337648030846,-0.5035877125108741,0.14068274514432602,0.7043842485125876,-0.16829779281583193,-2.636665420781367,-1.349397057087776
1588960436.6927493,0.5796656263932234,-2.170111457868926,-9.495390102541238,-0.502222222222222,0.14,0.7022222222222221,-0.39629774112052313,-3.668292093921831,-1.0096039530390846
1588960436.7027493,0.5635262720701296,-2.179118431982468,-9.767658047754546,-0.502222222222222,0.14,0.7022222222222221,-0.33643139923295806,-1.0240981955073258,-0.37689219879464836
1588960436.7127492,0.5931779219172514,-2.171705519520687,-9.663877273289621,-0.502222222222222,0.14,0.7022222222222221,-0.012116479030063076,0.8754606228239163,0.13274553295275793
1588960436.7227492,0.6491297733150768,-2.177018539045011,-9.50664775814479,-0.502222222222222,0.14,0.7022222222222221,0.41342695225054876,2.935537154158788,0.6009269522505487
1588960436.7327492,0.6977204871341584,-2.1938602435670793,-9.401489147515223,-0.502222222222222,0.15463025709858347,0.7068423034112488,0.3892469554115105,4.751144789825181,0.8799397834413671
1588960436.7427492,0.6650516440822515,-2.223637828105752,-9.219793423670993,-0.502222222222222,0.16111111111111098,0.7088888888888891,-0.8610999241921728,7.349681370226476,1.5574362740452952
1588960436.7527492,0.6094085094285985,-2.1520966549796268,-9.442365962285606,-0.502222222222222,0.16111111111111098,0.7088888888888891,-1.4075949966834076,10.578970434947408,2.2032940869894815
1588960436.7627492,0.814431329888496,-2.064508566766386,-9.643827576828937,-0.502222222222222,0.16111111111111098,0.7088888888888891,-0.32138971988033727,19.263795213489256,4.371121158553168
1588960436.7727492,1.7726070165896108,-1.889603481098722,-9.613409301060647,-0.502222222222222,0.16111111111111098,0.7088888888888891,0.8668241773184662,26.107907261354363,5.8920349469676365
1588960436.7827492,1.2205375126390294,-2.4677955510616787,-9.936469362992922,-0.48888888888888893,0.154444444444444,0.6877777777777779,5.1117821031344794,9.633948432760363,1.367941102123357
1588960436.7927492,0.8642976744186046,-2.0352186046511624,-9.436037209302325,-0.48888888888888893,0.154444444444444,0.6877777777777779,2.0370930232558138,-25.88401162790698,-5.788662790697673
1588960436.8027492,0.283249081875135,-2.253249081875135,-9.603797796500324,-0.48888888888888893,0.154444444444444,0.6877777777777779,0.15532512421689348,-42.72576420393173,-9.491831389068913
1588960436.8127491,0.24206308057895873,-2.2120630805789587,-9.5049513933895,-0.48888888888888893,0.154444444444444,0.6877777777777779,0.7216326420393173,-34.95190645927846,-7.535496327500541
1588960436.8227491,0.30793917033546225,-2.2038237117876855,-9.537057729273888,-0.48888888888888893,0.154444444444444,0.6877777777777779,0.556990993365164,-22.01691456873566,-4.696772105785328
1588960436.8327491,0.4296341923318667,-2.1927605279698303,-9.509323695788812,-0.5025634471680985,0.15927075913122404,0.6982347929324673,-0.014967001885606512,11.404879006913891,1.79615021998743
1588960436.842749,0.7034376502644654,-2.17,-9.439562830581824,-0.507777777777778,0.16111111111111098,0.7022222222222221,-0.2714853141529091,22.144932581343163,3.7929706283058184
1588960436.852749,0.787471549927873,-2.17,-9.624437409841322,-0.507777777777778,0.16111111111111098,0.7022222222222221,-0.7966971870492066,28.132347932360958,4.843394374098413
1588960436.862749,0.8044011186434679,-2.155598881356532,-9.615598881356531,-0.507777777777778,0.16111111111111098,0.7022222222222221,-0.27245805086995767,25.117251800980583,5.4150419491300426
1588960436.872749,0.8175049550455289,-2.15,-9.662534685318702,-0.507777777777778,0.16111111111111098,0.7022222222222221,0.31274775227644847,23.359034340619882,5.765717907103668
1588960436.882749,0.8544439381071731,-2.1431112123785656,-9.514669097085568,-0.507777777777778,0.15116064010237237,0.7068147473031787,0.6527746131698324,23.66110414897363,6.199994303705698
1588960436.892749,0.8352470105531631,-2.1409259430387935,-9.349691352320402,-0.507777777777778,0.146666666666667,0.7088888888888891,0.5557483320087974,21.046873556101797,6.679783808010054
1588960436.902749,1.0988103202912747,-2.1874371153455194,-9.33418762821816,-0.507777777777778,0.146666666666667,0.7088888888888891,0.2166043672722568,17.12249339272183,6.292190705454008
1588960436.912749,1.29427924453998,-2.2192849055674975,-9.349284905567497,-0.507777777777778,0.146666666666667,0.7088888888888891,0.25446934020314066,10.789516433388576,3.986379690858671
1588960436.922749,1.2392205831678782,-2.212402572895985,-9.342402572895985,-0.507777777777778,0.146666666666667,0.7088888888888891,0.29748391940009516,5.154606558587532,2.050723626995717
1588960436.932749,1.028921590995513,-2.1594607954977567,-9.429191193246634,-0.515555555555556,0.154444444444444,0.6877777777777779,0.7491574929652445,-3.923022900981063,-0.6992950984865769
1588960436.942749,0.9651251045706898,-2.127562552285345,-9.381343828428017,-0.515555555555556,0.154444444444444,0.6877777777777779,0.6993164879458514,-6.763960187086471,-1.3970691687580805
1588960436.952749,0.9896383637584183,-2.1027122718118627,-9.330542454362373,-0.515555555555556,0.154444444444444,0.6877777777777779,0.9476710192944845,-8.505650566274713,-2.3215409060395418
1588960436.962749,0.9714729639013404,-2.238952770739947,-9.35779055414799,-0.515555555555556,0.154444444444444,0.6877777777777779,1.4585728902748003,-8.789484939041555,-2.775675902466489
1588960436.972749,1.044881416616939,-2.314184071385948,-8.429330964903759,-0.515555555555556,0.154444444444444,0.6877777777777779,3.9069026769730364,-9.949092930792823,-2.7122123884594567
1588960436.982749,1.1165651174568545,-2.347022088901009,-8.93958860882777,-0.5130024543223347,0.1584564606680776,0.689601421515793,4.0304647629436285,-14.302122696637968,-3.199447777474775
1588960436.992749,0.9157675938439195,-2.1854105734513984,-10.538945075337354,-0.507777777777778,0.166666666666667,0.693333333333333,0.18683058676402364,-20.96953098210864,-4.343861568872663
1588960437.002749,0.7259578675184425,-2.1154262681572744,-9.722026009582478,-0.507777777777778,0.166666666666667,0.693333333333333,-0.23338751996349538,-14.909479808350445,-3.2174024640657084
1588960437.012749,0.7635614859633011,-2.1576711144724756,-9.76808294167432,-0.507777777777778,0.166666666666667,0.693333333333333,-0.41524071272936813,-9.062518007310969,-2.0359628509174725
1588960437.022749,0.7347982168788626,-2.1054260241126608,-9.60605383134646,-0.507777777777778,0.166666666666667,0.693333333333333,-0.23178253014082606,-6.218890361689913,-1.544282530140826
1588960437.032749,0.68,-2.09,-9.56,-0.495555555555556,0.146666666666667,0.7,0.0625,-5.625,-1.0625
1588960437.042749,0.7234754780382431,-2.1823853908312665,-9.473049043923515,-0.495555555555556,0.146666666666667,0.7,-0.14129130330426434,-5.998617389391152,-1.2662913033042644
1588960437.052749,0.813867360666946,-2.3071339405835776,-9.386533159833265,-0.495555555555556,0.146666666666667,0.7,-1.0700097593789284,-7.701267892194703,-1.858338755210516
1588960437.062749,0.9190634976942178,-2.2307023767293366,-9.302809506917347,-0.495555555555556,0.146666666666667,0.7,-1.95944927279177,-14.054984036892515,-2.835912557644555
1588960437.072749,0.8877399600455556,-2.254195029965833,-9.396780119863333,-0.495555555555556,0.146666666666667,0.7,-2.6935946864322924,-20.074976428744797,-3.619000998861112
1588960437.082749,0.9287616194682067,-2.26,-9.410247676106358,-0.5150602033428386,0.146666666666667,0.7,-1.9607196349711251,-23.878676924739818,-3.3858358296531916
1588960437.0927489,0.639631268182679,-2.1750140297120035,-9.502068134478662,-0.515555555555556,0.146666666666667,0.7,-0.6538577404417207,-21.414479007075105,-3.2864729476166703
1588960437.1027489,0.49303689585730726,-2.1759508055235903,-9.69279092347526,-0.515555555555556,0.146666666666667,0.7,-0.125,-14.701513503308401,-2.575922396432681
1588960437.1127489,0.5035478476735566,-2.1794086920544076,-9.479408692054408,-0.515555555555556,0.146666666666667,0.7,0.18565216267002257,-7.9094559708311065,-1.3014129760201354
1588960437.1227489,0.5903159963452687,-2.164947333942455,-9.464947333942456,-0.515555555555556,0.146666666666667,0.7,0.14046041857017258,-5.695060509938456,-1.0302625114210353
1588960437.1327488,0.6549630443045994,-2.1541728259492334,-9.430864129746167,-0.49224685935248974,0.14278188396615576,0.6844608691979556,0.01574048654812686,-5.1560190269037465,-1.0467595134518732
1588960437.1427488,0.6874280069649076,-2.1945680417894455,-9.454568041789447,-0.47555555555555606,0.14,0.673333333333333,-0.1553500870613448,-6.426701044736137,-1.4499753047147066
1588960437.1527488,0.6540529836065574,-2.183039737704918,-9.550880786885246,-0.47555555555555606,0.14,0.673333333333333,-0.1313327868852459,-8.216680327868852,-1.6186672131147541
1588960437.1627488,0.6267208705220687,-2.145081305783103,-9.542540652891551,-0.47555555555555606,0.14,0.673333333333333,-0.125,-8.738736398092676,-1.6613736398092676
1588960437.1727488,0.6055458208681849,-2.1333625373954455,-9.52109164173637,-0.47555555555555606,0.14,0.673333333333333,-0.06932276085231089,-8.638097945540022,-1.7431772391476892
1588960437.1827488,0.49236352661561095,-2.2396970611536577,-9.518969706115366,-0.49349496778628754,0.14,0.7102087918076143,-0.1121213264420719,-7.62689336778964,-2.036742652884144
1588960437.1927488,0.44272410974009924,-2.25745517805198,-9.482724109740099,-0.495555555555556,0.14,0.714444444444444,-0.03181027435024812,-7.329525685875621,-1.6897410974009925
1588960437.2027488,0.46393029702970295,-2.2091045544554455,-9.475655049504951,-0.495555555555556,0.14,0.714444444444444,-0.0353440594059406,-6.61380693069307,-1.4211237623762376
1588960437.2127488,0.49,-2.201738802713532,-9.42445709525132,-0.495555555555556,0.14,0.714444444444444,-0.0625,-5.083570535962233,-1.014948724560638
1588960437.2227488,0.49,-2.21,-9.417012617634146,-0.495555555555556,0.14,0.714444444444444,-0.1939865806402352,-3.848265075304942,-0.8060134193597648
1588960437.2327487,0.4993984129253646,-2.163007935373177,-9.410601587074636,-0.4892899469386459,0.14626560861691004,0.7227985892669904,-0.3674801615670575,-1.6752975764941378,-0.28007935373177006
1588960437.2427487,0.4802223714159393,-2.146814914277293,-9.522073228643011,-0.48888888888888893,0.146666666666667,0.7233333333333329,-0.21018642846616123,-0.07917785619545104,-0.0027796426992418577
1588960437.2527487,0.4617935774472877,-2.1482064225527124,-9.65385780297441,-0.48888888888888893,0.146666666666667,0.7233333333333329,0.028870422863355727,2.6365253562691726,0.48403098668116334
1588960437.2627487,0.48607031431897557,-2.158690104772992,-9.643929685681025,-0.48888888888888893,0.146666666666667,0.7233333333333329,0.2254394644935972,4.1487630966239815,0.508186845168801
1588960437.2727487,0.5282002734826969,-2.1727334244942327,-9.50629904281056,-0.48888888888888893,0.146666666666667,0.7233333333333329,0.44895975772238,3.91458048455524,0.539791951544476
1588960437.2827487,0.5628232556734053,-2.1832058139183514,-9.420382558244945,-0.4931633074466906,0.146666666666667,0.7208399225079488,0.362136630103043,2.4652834436285618,0.4022093040824344
1588960437.2927487,0.5881718188136463,-2.1895429547034118,-9.401371135889766,-0.5016128284934375,0.146666666666667,0.7159110352306802,-0.033934668963224834,0.04924851932432839,0.0853522648294201
1588960437.3027487,0.5373796646836128,-2.1724598882278707,-9.478930502974581,-0.502222222222222,0.146666666666667,0.7155555555555559,-0.11731284928790336,0.03943854786371012,-0.04712569857580674
1588960437.3127487,0.5143830925628678,-2.185616907437132,-9.49,-0.502222222222222,0.146666666666667,0.7155555555555559,-0.22260567148207597,1.1849652220438738,0.23031701444622793
1588960437.3227487,0.5282722714261013,-2.177818485715932,-9.477818485715932,-0.502222222222222,0.146666666666667,0.7155555555555559,-0.09773107144915566,1.9948740177902442,0.35056723213771107
1588960437.3327487,0.505503194888179,-2.152751597444089,-9.478624201277956,-0.4907232871849485,0.15337437877174265,0.7098060880369189,0.053901257987220445,2.3664012579872202,0.2671974840255591
1588960437.3427486,0.5912382983765849,-2.186495319350634,-9.580362128214244,-0.48888888888888893,0.154444444444444,0.7088888888888891,0.11952393648536558,3.0022633013390214,0.4780957459414623
1588960437.3527486,0.5737969306659358,-2.14632821777656,-9.616203069334063,-0.48888888888888893,0.154444444444444,0.7088888888888891,0.17958972777930027,2.1890643555311957,0.28164108888279893
1588960437.3627486,0.57,-2.1659321792405786,-9.542203462278264,-0.48888888888888893,0.154444444444444,0.7088888888888891,0.2415253734178718,0.7118656645532047,0.1959746265821282
1588960437.3727486,0.5751666215117853,-2.1906664860471414,-9.493833649417502,-0.48888888888888893,0.154444444444444,0.7088888888888891,0.2177086155513411,0.14479477106475208,0.1229172311026822
1588960437.3827486,0.5891651480637813,-2.200834851936219,-9.453889901290813,-0.48888888888888893,0.154444444444444,0.7041365898928542,0.1684059415337889,-0.1875,0.0815940584662111
1588960437.3927486,0.614547289892134,-2.175452710107866,-9.449094579784267,-0.48888888888888893,0.154444444444444,0.693333333333333,0.039738314522486495,-0.5001261800842163,-0.04552337095502701
1588960437.4027486,0.6095864157307678,-2.1595864157307676,-9.532895089884626,-0.48888888888888893,0.154444444444444,0.693333333333333,-0.1601273525240523,-2.079070681129978,-0.38016980336540307
1588960437.4127486,0.5570726016660287,-2.1607318495834926,-9.557072601666029,-0.48888888888888893,0.154444444444444,0.693333333333333,-0.14938891015475475,-3.6905554492262262,-0.6341481197936604
1588960437.4227486,0.4799007497707536,-2.174455472247694,-9.49772263876153,-0.48888888888888893,0.154444444444444,0.693333333333333,-0.0068065969038243745,-4.152846701548087,-0.7778467015480878
1588960437.4327486,0.43456456776947705,-2.18,-9.442612593383139,-0.48533866951262894,0.1574874896240955,0.6973907269062016,0.11955709711846318,-3.445757737459979,-0.6128001600853789
1588960437.4427485,0.4960214185542476,-2.172997322680719,-9.417002677319282,-0.48111111111111104,0.16111111111111098,0.7022222222222221,0.01243306701797628,-0.8555974034252689,-0.1123996005269644
1588960437.4527485,0.5452332393143849,-2.17,-9.537755116800463,-0.48111111111111104,0.16111111111111098,0.7022222222222221,-0.009930751428364797,-0.3352769942865408,0.0
1588960437.4627485,0.5366002084715247,-2.17,-9.546600208471524,-0.48111111111111104,0.16111111111111098,0.7022222222222221,0.0,-0.7518691367383682,-0.12562304557945608
1588960437.4727485,0.5161409819393963,-2.174619672686868,-9.512281963878792,-0.48111111111111104,0.16111111111111098,0.7022222222222221,0.08661886287877361,-0.5332786398990566,-0.07200818282830185
1588960437.4827485,0.5212416835789287,-2.184720374128651,-9.4705592517427,-0.48111111111111104,0.1595376530682273,0.7072048393580201,0.21700233830406776,0.2767768904967793,0.04774883084796611
1588960437.4927485,0.5878589958528192,-2.1995242213006265,-9.440951557398746,-0.48111111111111104,0.15460303734423517,0.7228311224839943,0.30952638312891556,1.340803405982529,0.0014868084355422195
1588960437.5027485,1.0953946876169098,-2.17,-9.548020950243172,-0.48111111111111104,0.154444444444444,0.7233333333333329,0.14492143658810325,1.6902356902356903,-3.219018892630004
1588960437.5127485,0.5701027900146842,-2.154505139500734,-9.562252569750367,-0.48111111111111104,0.154444444444444,0.7233333333333329,0.15934287812041115,-1.500422173274596,-6.555671806167401
1588960437.5227485,0.6221645615065765,-2.166403603250759,-9.499853454747218,-0.48111111111111104,0.154444444444444,0.7233333333333329,0.2558483468781618,-4.174534498514965,-7.267545040634485
1588960437.5327485,0.6969924127465857,-2.194335862417805,-9.43088551677626,-0.47845632177448083,0.15072773937316167,0.7164308810580939,0.3722327600741865,-2.784926656550329,-7.646564660259653
1588960437.5427485,0.38787398454527444,-2.218737533848491,-9.427475067696982,-0.47555555555555606,0.146666666666667,0.7088888888888891,0.4921095865530678,5.110253203223037,-8.093438346212272
1588960437.5527484,0.23124857219995432,-2.22,-9.509167618533363,-0.47555555555555606,0.146666666666667,0.7088888888888891,0.40104047683329525,5.664060715249943,-7.283844053083009
1588960437.5627484,0.18544293403886508,-2.1811811574369737,-9.520295289359243,-0.47555555555555606,0.146666666666667,0.7088888888888891,0.4356544415047289,5.291400571723991,-6.061701715171973
1588960437.5727484,0.18849276592965153,-2.137358176295764,-9.512641823704236,-0.47555555555555606,0.146666666666667,0.7088888888888891,0.46697720369705087,5.036568388908847,-4.438612462849864
1588960437.5827484,0.34347232472324724,-2.145918819188192,-9.504081180811808,-0.47290241902419056,0.14976199261992623,0.7062357523575237,0.3501268450184502,5.014022140221402,-2.228297970479705
1588960437.5927484,0.7578223234624146,-2.179548974943052,-9.513421412300683,-0.46888888888888897,0.154444444444444,0.7022222222222221,0.22297835990888382,4.502818906605922,-1.25
1588960437.6027484,1.0763151499530534,-2.179624242870556,-9.570751514258887,-0.46888888888888897,0.154444444444444,0.7022222222222221,0.22227272308853582,4.76174241029512,-2.028181784708287
1588960437.6127484,1.085960149060765,-2.176009962734809,-9.577980074530382,-0.46888888888888897,0.154444444444444,0.7022222222222221,0.1998131987223363,4.16100558977869,-4.252490683702183
1588960437.6227484,1.0527093298147232,-2.1857635567284257,-9.535418659629446,-0.46888888888888897,0.154444444444444,0.7022222222222221,0.16102222955266005,2.0495663587882786,-6.582822493448421
1588960437.6327484,0.8732847411444142,-2.1707636239782016,-9.471527247956402,-0.4817131395700879,0.1587191946715105,0.7022222222222221,0.3077273501362398,0.3363632493188011,-8.764773501362399
1588960437.6427484,0.6060266351989212,-2.16,-9.45,-0.48888888888888893,0.16111111111111098,0.7022222222222221,0.375,-1.18188427174646,-10.33573204652731
1588960437.6527483,0.6045431955958271,-2.1668178994494784,-9.511361095045304,-0.48888888888888893,0.16111111111111098,0.7022222222222221,0.41761187155923996,-2.2016780733886,-10.71022374311848
1588960437.6627483,0.6417422920617719,-2.175871146030886,-9.516515415876455,-0.48888888888888893,0.16111111111111098,0.7022222222222221,0.4741946626930371,-1.3257707938228123,-10.639916011920889
1588960437.6727483,0.6599240314277974,-2.1849620157138987,-9.480151937144406,-0.48888888888888893,0.16111111111111098,0.7022222222222221,0.5310125982118667,0.4924031427797346,-10.4694622053644
1588960437.6827483,0.653026626323752,-2.223946747352496,-9.448684417549169,-0.4995758278702304,0.15293874600773252,0.7097659438561105,0.5978611951588503,3.657032904689864,-10.162832829046899
1588960437.6927483,0.6728585719049207,-2.2762868575239366,-9.453143428761969,-0.507777777777778,0.146666666666667,0.7155555555555559,0.625,7.119721454770637,-9.835707140475396
1588960437.7027483,0.647314843507902,-2.2366435543848775,-9.48134257824605,-0.507777777777778,0.146666666666667,0.7155555555555559,0.558304442981097,7.962456664471645,-9.483217771924387
1588960437.7127483,0.61,-2.1657068184909547,-9.506940909002584,-0.507777777777778,0.146666666666667,0.7155555555555559,0.41323863746769524,6.682031265180809,-8.946335231136933
1588960437.7227483,0.5706035345115038,-2.124634878292764,-9.522317439146383,-0.507777777777778,0.146666666666667,0.7155555555555559,0.2644839946648883,4.4809519839946645,-8.317064021340446
1588960437.7327483,0.4428592287382991,-2.131422313785103,-9.53,-0.5061893173676117,0.14476051417446753,0.7136494030633566,0.25888946115689254,3.8565822765821265,-7.91055784462757
1588960437.7427483,0.45460036113055974,-2.121500902826399,-9.52769981943472,-0.502222222222222,0.14,0.7088888888888891,0.11062387146700077,1.5924729152080186,-7.087477429340016
1588960437.7527483,0.4924197127589696,-2.1562633812068386,-9.549892950345292,-0.502222222222222,0.14,0.7088888888888891,0.0625,0.2506690603419198,-5.774691988141099
1588960437.7627482,0.5370802040527136,-2.152360068017571,-9.576399319824288,-0.502222222222222,0.14,0.7088888888888891,0.03299914978035992,-0.19525382598838034,-4.9367427731330595
1588960437.7727482,0.6114094693465647,-2.1728523673366413,-9.482863510217813,-0.502222222222222,0.14,0.7088888888888891,0.017827295854007233,-0.625,-3.7501392860146328
1588960437.7827482,0.7144494703358917,-2.1856938162080137,-9.429856713456095,-0.502222222222222,0.1428707891946578,0.7021903807680211,0.07117270260016925,-0.3558635130008463,-3.034690810400677
1588960437.7927482,0.815307083507976,-2.1910614167015954,-9.378938583298405,-0.502222222222222,0.146666666666667,0.693333333333333,-0.06913385438497005,0.06913385438497005,-2.784566927192485
1588960437.8027482,0.8143459612297222,-2.1714662257685764,-9.427067548462848,-0.502222222222222,0.146666666666667,0.693333333333333,0.017668871157117877,0.6243410490499125,-2.990836088946397
1588960437.8127482,0.812031107654705,-2.1553385179424507,-9.459322964115099,-0.502222222222222,0.146666666666667,0.693333333333333,0.058268525719364514,1.4337545828241307,-3.458657371403177
1588960437.8227482,0.7965029425079221,-2.1520914440923495,-9.446045722046174,-0.502222222222222,0.146666666666667,0.693333333333333,0.07414271163422363,2.1337850837483026,-4.1207135581711185
1588960437.8327482,0.7637306506138426,-2.1473327501334443,-9.466397900480398,-0.5012445222044296,0.14487421663404723,0.6956146333748491,0.1875,2.5516724986655595,-4.962478130004151
1588960437.8427482,0.9067662060376015,-2.178427436095131,-9.57833876994247,-0.4970985640762051,0.13727329339896777,0.7052885356740408,0.1875,2.240725639048692,-6.1285288535674045
1588960437.8527482,0.941553064798599,-2.1531061295971976,-9.626148978400467,-0.495555555555556,0.134444444444444,0.7088888888888891,0.1875,0.6646176298890834,-7.407984530064215
1588960437.8627481,0.9239979718894444,-2.1239979718894446,-9.611993915668334,-0.495555555555556,0.134444444444444,0.7088888888888891,0.22501267569097255,-2.8008619469861333,-8.875316892274313
1588960437.8727481,0.9936631294215564,-2.1070006242197254,-9.565334997919267,-0.495555555555556,0.134444444444444,0.7088888888888891,0.2229179671244278,-5.258296920516021,-10.095804723262589
1588960437.8827481,1.0497212502224067,-2.1064776703635606,-9.509014886424293,-0.495555555555556,0.13179988006510715,0.7088888888888891,0.16461434671727657,-6.25,-11.161070666034043
1588960437.892748,0.8681347150259068,-2.18,-9.458834196891193,-0.495555555555556,0.12,0.7088888888888891,0.06832901554404144,-6.231055699481865,-12.459358808290155
1588960437.902748,0.767507261578183,-2.1735735033080523,-9.448558980151686,-0.495555555555556,0.12,0.7088888888888891,0.2924171978376634,-4.995678352428595,-13.515579615136357
1588960437.912748,0.7066789756763265,-2.16,-9.503357951352653,-0.495555555555556,0.12,0.7088888888888891,0.29162820101147946,-3.542147487356506,-13.874942301517219
1588960437.922748,0.7736496980155306,-2.168919018858622,-9.436621471712067,-0.495555555555556,0.12,0.7088888888888891,0.375,-2.026177123135708,-13.665536792801676
1588960437.932748,0.9288818108726575,-2.1929606036242193,-9.416759849093944,-0.49087533758014334,0.12252011737137602,0.7088888888888891,0.2737452841857876,-1.1944886820458902,-13.33100377265137
1588960437.942748,1.0004332499702275,-2.2056498749553413,-9.414783375014887,-0.48111111111111104,0.12777777777777802,0.7088888888888891,0.09239609384303918,-0.20916249851137314,-13.978337501488626
1588960437.952748,0.8113314144527369,-2.159371099620469,-9.496572250948827,-0.48111111111111104,0.12777777777777802,0.7088888888888891,0.2845255228100563,0.8867918821162026,-15.201912300364247
1588960437.962748,0.6149162956694507,-2.134180617388425,-9.54491629566945,-0.48111111111111104,0.12777777777777802,0.7088888888888891,0.5942731520659332,2.1429791842966996,-16.05790201074359
1588960437.972748,0.58,-2.1424778888675253,-9.50504422226495,-0.48111111111111104,0.12777777777777802,0.7088888888888891,0.7970131945779658,3.6670381897711977,-16.09568472409152
1588960437.982748,0.5873000960087779,-2.1548667306725187,-9.485133269327482,-0.48760008534113597,0.12480366458901668,0.7102407585201441,0.7195829332967586,5.768756000548621,-15.163746399670828
1588960437.992748,0.5592804646327035,-2.1541501451977196,-9.482679883841824,-0.507777777777778,0.11555555555555601,0.714444444444444,0.625,6.949752177965798,-13.975690585451547
1588960438.002748,0.4009270198170732,-2.130905106707317,-9.559072980182927,-0.507777777777778,0.11555555555555601,0.714444444444444,0.625,5.381067787728659,-12.363960080030488
1588960438.012748,0.2558952164009112,-2.14,-9.559514806378132,-0.507777777777778,0.11555555555555601,0.714444444444444,0.5888525056947608,4.210820045558086,-10.504427676537585
1588960438.022748,0.25681947348667633,-2.14903758511608,-9.475774489303522,-0.507777777777778,0.11555555555555601,0.714444444444444,0.5907424534877487,4.254182081389738,-8.360104686075813
1588960438.032748,0.4523573994394663,-2.16,-9.401099356570482,-0.5053053768251337,0.11555555555555601,0.7050493208243964,0.5971854892827537,4.868459617889709,-5.359274464137686
1588960438.042748,0.7399372884920559,-2.1759937288492055,-9.416656214748675,-0.502222222222222,0.11555555555555601,0.693333333333333,0.5625,5.84976483184521,-2.4921108731812707
1588960438.052748,0.9109994693083319,-2.1831112290425927,-9.470999469308332,-0.502222222222222,0.11555555555555601,0.693333333333333,0.4548629537905144,6.396527409241897,-1.3493081353067202
1588960438.062748,0.9729724211910447,-2.172972421191045,-9.535944842382088,-0.502222222222222,0.11555555555555601,0.693333333333333,0.2128447351119416,5.73154996712689,-1.1925434271082045
1588960438.072748,0.9679697492075849,-2.170977311905689,-9.537969749207585,-0.502222222222222,0.11555555555555601,0.693333333333333,0.04981093254740589,3.5925683284212866,-1.6691754017683367
1588960438.082748,0.9446460546071289,-2.1534845409553465,-9.514646054607129,-0.502222222222222,0.11555555555555601,0.693333333333333,-0.09596215870544403,2.681486508090975,-1.9971648570872491
1588960438.092748,0.85729402783487,-2.13729402783487,-9.486764930412825,-0.522222222222222,0.11555555555555601,0.7088888888888891,0.07941232603206295,2.1165438369839684,-2.375
1588960438.102748,0.8408738035116565,-2.1208738035116568,-9.527815491220858,-0.522222222222222,0.11555555555555601,0.7088888888888891,0.18203872805214635,2.065230635973927,-2.375
1588960438.112748,0.7976953179875174,-2.1376953179875176,-9.551562543900138,-0.522222222222222,0.11555555555555601,0.7088888888888891,0.16821278773405046,1.9855957374219833,-2.177978687109916
1588960438.122748,0.7929277422154715,-2.1319518281436474,-9.484144515569056,-0.522222222222222,0.11555555555555601,0.7088888888888891,0.32469892589779753,1.9375,-1.8948037593577085
1588960438.132748,0.8237191252144082,-2.1537191252144083,-9.424421312178387,-0.5172633886030111,0.1141092290832861,0.7076491804840863,0.4375,1.9142554674099486,-1.4186441359348199
1588960438.1427479,0.8563158110714432,-2.165105256678567,-9.395105256678567,-0.495555555555556,0.10777777777777803,0.7022222222222221,0.4069078542410439,1.822697381919652,-1.01151309040174
1588960438.1527479,0.9612486935258041,-2.1484994774103217,-9.446495296692895,-0.495555555555556,0.10777777777777803,0.7022222222222221,0.25,1.3437826618548976,-0.7765608669072551
1588960438.1627479,1.0400240371177818,-2.16,-9.55,-0.495555555555556,0.10777777777777803,0.7022222222222221,0.138339202862094,0.513339202862094,-0.9018286377103248
1588960438.1727479,1.1155082882435041,-2.152754144121752,-9.539131216182628,-0.495555555555556,0.10777777777777803,0.7022222222222221,0.028073198478098763,0.17664020228285185,-1.288932996195247
1588960438.1827478,1.046368531563262,-2.14,-9.505456177187753,-0.5033122610554204,0.11359530690267643,0.7022222222222221,0.1875,0.046578671091845034,-1.97837645624492
1588960438.1927478,0.8969982690911797,-2.14,-9.462181503471124,-0.522222222222222,0.12777777777777802,0.7022222222222221,0.21193280165273876,0.16590319008356752,-2.8340968099164323
1588960438.2027478,0.8138002811840974,-2.14,-9.466199718815902,-0.522222222222222,0.12777777777777802,0.7022222222222221,0.23875019526673436,0.049998047332656406,-3.0400003905334687
1588960438.2127478,0.7400896274310709,-2.14,-9.539910372568928,-0.522222222222222,0.12777777777777802,0.7022222222222221,0.18756224127157697,0.5618775872842302,-2.937624482543154
1588960438.2227478,0.832199075032788,-2.142199075032788,-9.491203699868848,-0.522222222222222,0.12777777777777802,0.7022222222222221,0.25,0.9924768758197005,-1.8975693725408986
1588960438.2327478,0.8379895078346103,-2.1479895078346103,-9.46804196866156,-0.522222222222222,0.12777777777777802,0.7022222222222221,0.25,1.1372376958652586,-1.4632869124042245
1588960438.2427478,0.84,-2.141157988034567,-9.468842011965434,-0.528888888888889,0.11555555555555601,0.693333333333333,0.3100875249279858,1.5649124750720143,-0.7355251495679149
1588960438.2527478,0.8600156178953403,-2.17,-9.488037482948817,-0.528888888888889,0.11555555555555601,0.693333333333333,0.2249804776308246,1.8751952236917542,-0.1748438210465967
1588960438.2627478,0.8920188160823596,-2.165962367835281,-9.551924735670562,-0.528888888888889,0.11555555555555601,0.693333333333333,0.1875,2.5149696108096826,0.2133232036032276
1588960438.2727478,0.8993127434613245,-2.151374513077351,-9.522749026154703,-0.528888888888889,0.11555555555555601,0.693333333333333,0.1875,3.4722975792988313,0.5324325264329438
1588960438.2827477,0.954992647491324,-2.1424963237456622,-9.445007352508675,-0.5280567809736683,0.11611029416570307,0.6944428105536272,0.16400505852596906,5.452826304335039,1.0234030351155814
1588960438.2927477,0.9878871831068761,-2.158943591553438,-9.412112816893124,-0.522574358371076,0.1197652425674307,0.7017527073570834,0.42099361802246926,6.78916681371684,1.1775961708134814
1588960438.3027477,0.9839020943546634,-2.141951047177332,-9.477559424595986,-0.522222222222222,0.12,0.7022222222222221,0.6006119102833538,7.576223820566708,1.4375
1588960438.3127477,0.9990999347778825,-2.1495499673889413,-9.545949706500473,-0.522222222222222,0.12,0.7022222222222221,0.5056254076382346,7.386250815276469,1.4375
1588960438.3227477,1.0072443731147034,-2.16,-9.512755626885296,-0.522222222222222,0.12,0.7022222222222221,0.34055466393379225,6.810550651635857,1.1938906721324154
1588960438.3327477,1.004608576329331,-2.16,-9.52,-0.5211980941490375,0.11812243186582813,0.7008567181246425,0.27880360205831906,6.245291595197256,1.3269939965694684
1588960438.3427477,1.0378807236887135,-2.1521192763112866,-9.50817891446693,-0.515555555555556,0.10777777777777803,0.693333333333333,0.48675452305445915,5.480963815564326,0.9639909538910817
1588960438.3527477,1.0572698487712666,-2.1472698487712667,-9.493634924385633,-0.515555555555556,0.10777777777777803,0.693333333333333,0.5397817225897921,4.625098948487713,0.6989086129489603
1588960438.3627477,1.0783918352129742,-2.1572027215956755,-9.49440544319135,-0.515555555555556,0.10777777777777803,0.693333333333333,0.4475510299189114,4.0126700997297045,0.4300680398918818
1588960438.3727477,1.0973022845665203,-2.1521581723467835,-9.477302284566521,-0.515555555555556,0.10777777777777803,0.693333333333333,0.3091278557081503,3.4647078155363586,0.22302284566520242
1588960438.3827477,1.0630558322582753,-2.1795553341933798,-9.443055832258276,-0.515555555555556,0.10777777777777803,0.693333333333333,0.26631979032284403,2.2232739193624766,-0.11944167741724776
1588960438.3927476,1.02,-2.1999805376474884,-9.410029193528768,-0.515555555555556,0.14,0.673333333333333,0.1875,1.3125,-0.37475672059360177
1588960438.4027476,1.0236397485686832,-2.1745403771469753,-9.460018617127757,-0.515555555555556,0.14,0.673333333333333,0.1533773571685951,1.3807452856628097,-0.10225157144573008
1588960438.4127476,1.04,-2.1497825211437775,-9.549565042287556,-0.515555555555556,0.14,0.673333333333333,-0.0013592428513894482,1.6820630285944422,0.0013592428513894482
1588960438.4227476,1.04,-2.1413364881192107,-9.532672976238421,-0.515555555555556,0.14,0.673333333333333,-0.054146949254933546,1.4709122029802657,0.054146949254933546
1588960438.4327476,1.0596899224806202,-2.14984496124031,-9.50046511627907,-0.515555555555556,0.14,0.673333333333333,-0.0625,0.8221899224806202,0.0625
1588960438.4427476,1.0512443673443483,-2.141244367344348,-9.45622183672174,-0.5213926439926566,0.12929867119864813,0.6859803582803858,-0.0625,0.8125,-0.0469454081956462
1588960438.4527476,1.09,-2.11552941800251,-9.452078436224173,-0.522222222222222,0.12777777777777802,0.6877777777777779,0.04313727222919355,0.4460784097135081,-0.1897059083437903
1588960438.4627476,1.09,-2.182245630158534,-9.503968823456637,-0.522222222222222,0.12777777777777802,0.6877777777777779,0.22846008377370497,0.21442489528286884,-0.46769012566055745
1588960438.4727476,1.0705771842462652,-2.192355703938434,-9.44,-0.522222222222222,0.12777777777777802,0.6877777777777779,0.3308305511543685,-1.198909291534631,-1.0147231496152105
1588960438.4827476,1.0395085892764186,-2.2,-9.440491410723581,-0.5232050436693849,0.1281053849268323,0.6880507837353231,0.18442868297761583,-2.2745705361790733,-1.0655713170223842
1588960438.4927475,1.0462793821356615,-2.186976494291471,-9.472791134989926,-0.542222222222222,0.134444444444444,0.693333333333333,0.0639523169912693,-2.729650772330423,-1.145349227669577
1588960438.5027475,1.1505071599045347,-2.174101431980907,-9.565124582338902,-0.542222222222222,0.134444444444444,0.693333333333333,-0.0625,-3.004782219570406,-1.1875
1588960438.5127475,1.2671641758096206,-2.1864365659286076,-9.63025497251595,-0.542222222222222,0.134444444444444,0.693333333333333,-0.2097714629462019,-5.874300481246827,-1.596587397072783
1588960438.5227475,1.049425772863137,-2.1295468769733796,-9.476873044161604,-0.542222222222222,0.134444444444444,0.693333333333333,-0.6324584976354528,-12.873401124036992,-2.921545445615414
1588960438.5327475,0.8493076156663533,-2.1766335021961525,-9.412128934480291,-0.542222222222222,0.134444444444444,0.693333333333333,-0.6692449235907438,-18.722442850928278,-3.7676332425871095
1588960438.5427475,0.75,-2.191461650367736,-9.397076699264527,-0.5308377560458706,0.12211127275339667,0.6762566340688054,-0.474041259193405,-17.836107350682937,-3.76058251838681
1588960438.5527475,0.8744161524642662,-2.193489026009529,-9.466277434976178,-0.528888888888889,0.12,0.673333333333333,0.07267339686011091,-6.08151897992658,-1.4331650784972272
1588960438.5627475,0.9972672420526438,-2.1607287354526283,-9.54817816136843,-0.528888888888889,0.12,0.673333333333333,0.1238613508552683,0.11222345348746376,-0.15346622861829262
1588960438.5727475,0.9811790082379127,-2.1505895041189564,-9.512358016475826,-0.528888888888889,0.12,0.673333333333333,-0.051446797769567926,0.7205247940521811,-0.06618440074347737
1588960438.5827475,0.9000216063179854,-2.140086425271942,-9.479978393682016,-0.5288600804649084,0.11995918806602758,0.6734101557972811,-0.12472992102518253,-2.566011026672627,-0.6881751974370437
1588960438.5927474,0.9078339666219639,-2.1713358664878557,-9.472166033378036,-0.518443600059604,0.10520250749184579,0.7011874368780942,-0.027075417225450746,-3.83551957606914,-0.9323114569363731
1588960438.6027474,0.9406250742923126,-2.1693749257076873,-9.531875222876938,-0.515555555555556,0.10111111111111099,0.7088888888888891,-0.125,-3.0351529997113214,-1.1679664283652296
1588960438.6127474,0.9477474570802696,-2.1622525429197306,-9.55324237124081,-0.515555555555556,0.10111111111111099,0.7088888888888891,-0.125,-2.7235487527382025,-0.9453919662415731
1588960438.6227474,0.9192741807680795,-2.1790322410241063,-9.507580602560264,-0.515555555555556,0.10111111111111099,0.7088888888888891,-0.0625,-2.6265121233998343,-0.7515121233998345
1588960438.6327474,0.8971176770967231,-2.149490236128964,-9.43372559032241,-0.515555555555556,0.10111111111111099,0.7088888888888891,-0.0625,-2.6726715060484936,-0.7976715060484936
1588960438.6427474,0.8401077304121947,-2.1602154608243893,-9.48021546082439,-0.515555555555556,0.10111111111111099,0.7,0.0,-0.8125,-0.25
1588960438.6527474,0.8485535933630011,-2.1771071867260026,-9.497107186726002,-0.515555555555556,0.10111111111111099,0.7,0.0,-0.8125,-0.25
1588960438.6627474,0.881136704595287,-2.1644316477023566,-9.579582708241974,-0.515555555555556,0.10111111111111099,0.7,0.0625,3.217805871627392,0.4723022018602719
1588960438.6727474,0.9325832234034298,-2.14258322340343,-9.48225032978971,-0.515555555555556,0.10111111111111099,0.7,0.07864514627143633,3.568491988049973,0.625
1588960438.6827474,0.9488565996740901,-2.1588565996740905,-9.43343020097773,-0.515555555555556,0.10111111111111099,0.7,0.18035374796306355,3.2125118821292777,0.625
1588960438.6927474,0.9796720521470058,-2.169890684049002,-9.410218631901996,-0.5342379587592264,0.10770490047711266,0.6934062106339984,0.3111335506125244,2.878416123468689,0.5013664493874757
1588960438.7027473,0.9741371897596247,-2.151954270080125,-9.421268321282001,-0.5344444444444449,0.10777777777777803,0.693333333333333,-0.125,1.0682162399843658,0.26364324799687316
1588960438.7127473,0.9440127628459374,-2.16,-9.54600850856396,-0.5344444444444449,0.10777777777777803,0.693333333333333,-0.13747341073763045,-0.06223410737630454,0.012606357049478184
1588960438.7227473,0.9223064727099767,-2.1588467636450117,-9.53,-0.5344444444444449,0.10777777777777803,0.693333333333333,-0.17308454556264616,-0.6345772721867692,-0.20191545443735384
1588960438.7327473,0.9389313884815094,-2.1505343057592454,-9.53,-0.5344444444444449,0.10777777777777803,0.693333333333333,-0.06917882199056641,-1.154105890047168,-0.3058211780094336
1588960438.7427473,0.9520114441085161,-2.16,-9.491597711178297,-0.528888888888889,0.10111111111111099,0.7,-0.0625,-1.7048855589148388,-0.3125
1588960438.7527473,0.9105867003598209,-2.159853324910045,-9.501026725629687,-0.528888888888889,0.10111111111111099,0.7,-0.06158328068777982,-2.1231665613755597,-0.31433343862444035
1588960438.7627473,0.9524404953361209,-2.145119009327758,-9.559017770987456,-0.528888888888889,0.10111111111111099,0.7,0.007626547925377935,-2.0,-0.46037964377613383
1588960438.7727473,0.9693040366677388,-2.1113919266645222,-9.483131834995175,-0.528888888888889,0.10111111111111099,0.7,0.06032511458668382,-2.0,-0.6184753437600514
1588960438.7827473,0.893683723578393,-2.1576976727635047,-9.413223258131094,-0.528888888888889,0.10111111111111099,0.7,0.3009883638175219,-2.1788662728631416,-0.8634883638175219
1588960438.7927473,0.8960695904632033,-2.0338309945893633,-9.35194035103154,-0.507777777777778,0.10111111111111099,0.7088888888888891,-0.22481359697356265,-1.3146747019751022,-0.9875621343421458
1588960438.8027472,0.8497061185564423,-2.172773176730412,-9.41802564874768,-0.507777777777778,0.10111111111111099,0.7088888888888891,-0.3403352908698489,0.5414941273904532,-0.9028352908698489
1588960438.8127472,0.9087475969043198,-2.1962620154784007,-9.53375720928704,-0.507777777777778,0.10111111111111099,0.7088888888888891,-0.11717248065199888,1.0935697678239866,-0.7109825580440033
1588960438.8227472,0.9018557649649189,-2.2307211751754057,-9.554432705105244,-0.507777777777778,0.10111111111111099,0.7088888888888891,-0.0740985310307432,0.5766823723689183,-0.8402044069077704
1588960438.8327472,0.9082848570038385,-2.198575714980808,-9.526860571984646,-0.507777777777778,0.10111111111111099,0.7088888888888891,0.09284106882197113,-0.4945464129318268,-0.6678785749040385
1588960438.8427472,0.9023469848435989,-2.1976530151564013,-9.497040954530796,-0.5137301228994235,0.10621312121537871,0.7088888888888891,0.17283134472750727,-0.5440059658174783,-0.43367462108997096
1588960438.8527472,0.9017350804797414,-2.1608675402398707,-9.485205241439225,-0.515555555555556,0.10777777777777803,0.7088888888888891,0.010844252998383165,0.10045488549434108,-0.11415574700161683
1588960438.8627472,0.9219903372259585,-2.1690048313870207,-9.534028988322124,-0.515555555555556,0.10777777777777803,0.7088888888888891,0.11256039233776008,0.5248792153244798,0.01243960766223992
1588960438.8727472,0.9372646312822921,-2.1581764208548617,-9.477264631282292,-0.515555555555556,0.10777777777777803,0.7088888888888891,0.0,0.698711836542978,0.11360263034288398
1588960438.8827472,0.9136236730859558,-2.142415782057304,-9.453623673085955,-0.515555555555556,0.10777777777777803,0.7088888888888891,0.0,0.25544387036167215,0.015098637858149355
1588960438.8927472,0.9209841902259145,-2.15,-9.434920951129572,-0.502222222222222,0.12777777777777802,0.714444444444444,0.0,-0.012302377823930828,0.06865118891196541
1588960438.9027472,0.9298730555673294,-2.15,-9.479365277836648,-0.502222222222222,0.12777777777777802,0.714444444444444,0.0,-0.12341319459161616,0.12420659729580807
1588960438.9127471,0.9163849966245698,-2.15,-9.554882518564867,-0.502222222222222,0.12777777777777802,0.714444444444444,0.08509377109643852,0.2579219699339733,0.16754688554821925
1588960438.9227471,0.91,-2.158428251121076,-9.505717488789237,-0.502222222222222,0.12777777777777802,0.714444444444444,-0.03302970852017936,1.2803251121076233,0.2928531390134529
1588960438.9327471,0.8931516206804179,-2.176848379319582,-9.447879051701044,-0.502222222222222,0.12777777777777802,0.714444444444444,0.04280237074738816,2.016663039110635,0.3125
1588960438.942747,0.8969832245666013,-2.1660335508667976,-9.419050326300196,-0.5061017914258897,0.11381132864457548,0.710564875240777,0.0625,2.6487418424950953,0.44343546062377387
1588960438.952747,0.9117239273171477,-2.154138036341426,-9.421723927317148,-0.507777777777778,0.10777777777777803,0.7088888888888891,-0.04741181859825927,3.204735455794778,0.5732745457321728
1588960438.962747,0.9287353131297769,-2.1325293737404465,-9.534823757557323,-0.507777777777778,0.10777777777777803,0.7088888888888891,-0.17959570706110498,4.20183989885547,0.679595707061105
1588960438.972747,0.9650343839021647,-2.115986246439134,-9.528979369658702,-0.507777777777778,0.10777777777777803,0.7088888888888891,-0.09991404024458839,4.6628438390216465,0.7750859597554116
1588960438.982747,0.98,-2.0800394419261785,-9.490039441926179,-0.507777777777778,0.10777777777777803,0.7088888888888891,-0.0625,4.765686628009655,0.7188732560193088
1588960438.992747,0.9858397892779671,-2.0535745274248525,-9.445546947629376,-0.522222222222222,0.12777777777777802,0.693333333333333,-0.04516578865819647,4.014157886581964,0.3229973659745894
1588960439.002747,0.9614694375581034,-2.191673187170747,-9.47804074992253,-0.522222222222222,0.12777777777777802,0.693333333333333,0.05637734350790208,2.9987265649209793,0.018367969476293766
1588960439.012747,0.96,-2.2247508006614614,-9.529501601322922,-0.522222222222222,0.12777777777777802,0.693333333333333,-0.09219250413413435,1.9577808071504825,0.1031283360894229
1588960439.022747,0.96,-2.245540854492429,-9.507027236328286,-0.522222222222222,0.12777777777777802,0.693333333333333,0.0,0.9659370829282761,0.0625
1588960439.032747,0.96,-2.183342670247648,-9.465561780165098,-0.522222222222222,0.12777777777777802,0.693333333333333,0.0,0.49081206439175495,0.0625
1588960439.042747,0.9505489828307603,-2.1410979656615208,-9.46890203433848,-0.5159215441093962,0.1340784558906038,0.693333333333333,0.1181377146154956,0.607844286538739,0.0625
1588960439.052747,0.95,-2.131777330241263,-9.437109320965051,-0.515555555555556,0.134444444444444,0.693333333333333,-0.02917505797632125,0.9847418019447496,0.0625
1588960439.062747,0.9691003738855335,-2.1204498130572333,-9.525501869427666,-0.515555555555556,0.134444444444444,0.693333333333333,-0.0625,1.7787640207075066,0.360943341961461
1588960439.072747,1.0079616049939832,-2.1503692839951865,-9.499630716004814,-0.515555555555556,0.134444444444444,0.693333333333333,-0.015047993757521055,1.5277879625451263,0.4224520062424789
1588960439.082747,1.024774607960411,-2.169549215920822,-9.48522539203959,-0.515555555555556,0.134444444444444,0.693333333333333,-0.08952389925770561,0.8108327051960608,0.31813480098972585
1588960439.092747,1.0186034912718205,-2.1913965087281797,-9.48,-0.5206206705458579,0.13191188694929326,0.693333333333333,-0.11627182044887781,-0.3735972568578554,0.02130091438071488
1588960439.102747,0.9743597726314098,-2.1843597726314097,-9.500512181894873,-0.528888888888889,0.12777777777777802,0.693333333333333,0.06410056842147549,-1.6041536947395907,-0.25
1588960439.112747,0.9431873507433941,-2.1531873507433943,-9.554063246283029,-0.528888888888889,0.12777777777777802,0.693333333333333,0.039841884292427396,-2.0,-0.2925790578537863
1588960439.122747,0.9463655442324781,-2.1372689115350436,-9.525441190372653,-0.528888888888889,0.12777777777777802,0.693333333333333,0.03978465145298822,-1.4827995311111533,-0.23293069709402356
1588960439.132747,0.95,-2.136971677559913,-9.458169934640523,-0.528888888888889,0.12777777777777802,0.693333333333333,0.01892701525054466,-0.011029411764705843,0.030364923747276673
1588960439.142747,0.96,-1.958125282544175,-9.402812076183737,-0.515555555555556,0.12,0.7088888888888891,0.044924523851642195,1.5175754761483577,0.3125
1588960439.152747,0.96,-1.9416372820724492,-9.427544076891326,-0.515555555555556,0.12,0.7088888888888891,-0.10965048057078836,1.6721504805707883,0.3125
1588960439.162747,0.96,-1.9313144039544774,-9.49948476836418,-0.515555555555556,0.12,0.7088888888888891,-0.125,1.3075051730083918,0.3667849752845155
1588960439.172747,0.96,-2.0293881862328185,-9.51,-0.515555555555556,0.12,0.7088888888888891,-0.18711761639551153,-0.24082279349227687,0.43711761639551155
1588960439.182747,0.929651008420172,-2.045174495789914,-9.472063760525216,-0.515555555555556,0.12,0.7088888888888891,-0.1875,-0.3448405986869624,0.29523910196955644
1588960439.1927469,0.8845756639901173,-2.0322878319950584,-9.451143915997529,-0.5391717795621439,0.12,0.7029848328872417,-0.1875,0.067804200123533,0.5267526250772081
1588960439.2027469,0.88,-1.9443642440007578,-9.443412634153903,-0.542222222222222,0.12,0.7022222222222221,-0.3110131096142914,0.9072496942238454,1.0565524384571656
1588960439.2127469,0.74785742716128,-1.8119049514408534,-9.492857029135488,-0.542222222222222,0.12,0.7022222222222221,-0.43005940534946663,2.4687475123387994,2.0282722695430664
1588960439.2227468,0.6714079422382672,-1.692581227436823,-9.412111913357402,-0.542222222222222,0.12,0.7022222222222221,-0.3154332129963899,3.845667870036101,3.5898014440433212
1588960439.2327468,0.6536234025559106,-1.567175519169329,-9.401811701277955,-0.542222222222222,0.12,0.7022222222222221,-0.46603060103833865,5.205598542332268,5.313836611421725
1588960439.2427468,0.6774013713190088,-1.4851972573619823,-9.372598628680992,-0.5330884317825526,0.11695540318677711,0.7166840570850321,-0.7568878561157076,5.671258570743805,6.929124637892587
1588960439.2527468,0.7195055645977213,-1.6075278229886067,-9.371802225839089,-0.528888888888889,0.11555555555555601,0.7233333333333329,-0.9856458672414552,4.164075902872476,8.126993247701579
1588960439.2627468,0.7996588291220244,-1.888976487366073,-9.507840348118624,-0.528888888888889,0.11555555555555601,0.7233333333333329,-1.1157668117160933,-1.5184458075840128,9.840903481186237
1588960439.2727468,0.9128319644079398,-2.1330207620351356,-9.518678416609628,-0.528888888888889,0.11555555555555601,0.7233333333333329,-1.1214600444900753,-5.548340177960301,11.4516598220397
1588960439.2827468,1.0324503764544832,-2.260613734884782,-9.462856490987907,-0.528888888888889,0.11555555555555601,0.7233333333333329,-0.971937029431896,-4.950248117727584,12.049751882272416
1588960439.2927468,1.0707801150271647,-2.5214042070488967,-9.460468069016299,-0.522222222222222,0.10777777777777803,0.7022222222222221,-0.7460994248641764,-2.5488479870246175,11.60842255567275
1588960439.3027468,1.1125152739357997,-2.5965274930844395,-9.48550916436148,-0.522222222222222,0.10777777777777803,0.7022222222222221,-0.5374236303210014,-1.818482706123505,10.721550428864257
1588960439.3127468,1.1693632582819447,-2.61,-9.545533665567188,-0.522222222222222,0.10777777777777803,0.7022222222222221,-0.38430486340169223,-1.4175446812706152,9.791199089344614
1588960439.3227468,1.2318108045444007,-2.4509459772779967,-9.508425689775098,-0.522222222222222,0.10777777777777803,0.7022222222222221,-0.21309123579874797,-1.150591235798748,7.920777301182471
1588960439.3327467,1.1749086208257677,-2.3883028736085894,-9.49,-0.522222222222222,0.10777777777777803,0.7022222222222221,-0.2327023466487724,-1.6222258131364964,5.844810827346649
1588960439.3427467,1.1052650131384991,-2.3084240210215983,-9.49,-0.522222222222222,0.11871299678836693,0.6942693356690662,0.029593667884381225,-2.036174934307505,3.6217754598474654
1588960439.3527467,1.0657113712967892,-2.190276388149725,-9.49,-0.522222222222222,0.12,0.693333333333333,0.019639214120986334,-2.5339686446691503,2.794588211814795
1588960439.3627467,1.0305170264945926,-2.0815510794837775,-9.577673380774334,-0.522222222222222,0.12,0.693333333333333,0.18265287661319501,-4.332991597314357,1.5258513247296266
1588960439.3727467,1.1558674043510877,-2.031589459864966,-9.570317891972994,-0.522222222222222,0.12,0.693333333333333,0.1269868248312078,-4.496026350337584,0.5317891972993248
1588960439.3827467,1.2106252672843905,-1.9938390947968638,-9.468749465431218,-0.522222222222222,0.12,0.693333333333333,0.1702011315039202,-4.906810183535281,-0.6300282875980043
1588960439.3927467,1.1981179831797513,-1.9640589915898756,-9.414058991589876,-0.5145469218766068,0.12,0.7045510799923094,0.22071043418775904,-5.959181723069494,-2.1916547623838074
1588960439.4027467,1.1566664283671717,-1.8166642836717186,-9.379999642550757,-0.507777777777778,0.12,0.714444444444444,0.3333348227051759,-7.250008936231056,-4.312520106519874
1588960439.4127467,1.099005159205795,-1.6820068789410598,-9.463490541456043,-0.507777777777778,0.12,0.714444444444444,0.3218803741727031,-6.490727109281359,-6.096751394027828
1588960439.4227467,1.4377144491476948,-1.5623740990733326,-9.471721084544104,-0.507777777777778,0.12,0.714444444444444,0.5712161079967968,-4.398000800823704,-7.347364431987187
1588960439.4327466,1.5171300439141602,-1.4758296047725579,-9.427219736515038,-0.507777777777778,0.12,0.714444444444444,0.625,-0.657791915237385,-9.523262076394067
1588960439.4427466,1.648255707762557,-1.3492276581865623,-9.428322243966079,-0.5149030948756981,0.12,0.7093549322316447,0.6822570123939987,-1.0874673842139595,-14.664032941943901
1588960439.4527466,1.4363192922652381,-1.0124675351026702,-9.310171049427806,-0.515555555555556,0.12,0.7088888888888891,0.5377138117847577,-7.041732610989368,-20.005444211102994
1588960439.4627466,0.975674282158414,-0.8445790736954396,-9.331252555782736,-0.515555555555556,0.12,0.7088888888888891,0.6779602631345009,-9.852497999822207,-23.919403947017514
1588960439.4727466,0.34593014662984717,-0.9385873750534791,-9.245888141262494,-0.515555555555556,0.12,0.7088888888888891,0.51083923223523,-6.393182878923418,-26.756293512504374
1588960439.4827466,0.23864800273130762,-0.9004973255946284,-9.177117332422897,-0.515555555555556,0.12,0.7088888888888891,0.5762916808922272,4.361058950722658,-24.628983156936382
1588960439.4927466,0.2430986839706901,-0.7977467099267253,-9.262957238161205,-0.5042880115360155,0.1369013160293099,0.6957434208660921,0.4762335496336262,17.109991888739017,-20.34508630746236
1588960439.5027466,0.3328368526485173,-0.7281087649009884,-9.236676135430692,-0.502222222222222,0.14,0.693333333333333,0.3988179780631178,19.916370767790877,-18.187855078650948
1588960439.5127466,0.4676173258003766,-0.6758877589453861,-9.273505084745764,-0.502222222222222,0.14,0.693333333333333,0.375,18.544962335216574,-15.99677966101695
1588960439.5227466,0.5427796023767143,-0.7127796023767142,-9.3,-0.502222222222222,0.14,0.693333333333333,0.5354235089126783,12.437973211823401,-14.53745894652393
1588960439.5327466,0.6473184507799892,-0.7756105433028511,-9.279146046261431,-0.502222222222222,0.14,0.693333333333333,0.5625,7.000697619688005,-13.592976734803658
1588960439.5427465,0.7127298681486324,-0.8397772692601068,-9.281364934074315,-0.5173754676546438,0.11095627958785861,0.705329652634,0.740077094911191,2.194281900403182,-12.717268715266426
1588960439.5527465,0.7718770104068118,-0.8211434878587197,-9.28302049826553,-0.528888888888889,0.08888888888888902,0.714444444444444,0.8313781141595711,-1.856862976978871,-11.570927940712709
1588960439.5627465,0.812920305934564,-0.8534807138473159,-9.333480713847315,-0.528888888888889,0.08888888888888902,0.714444444444444,0.71699872527265,-3.0695050989094,-10.629241714272226
1588960439.5727465,0.8285772586924419,-0.9043090347697678,-9.281381930460464,-0.528888888888889,0.08888888888888902,0.714444444444444,0.6875,-1.847303329305947,-9.526166263928044
1588960439.5827465,0.8235902324686456,-0.9548683727194809,-9.263590232468646,-0.528888888888889,0.08888888888888902,0.714444444444444,0.48719476464517486,-0.14274125837429374,-8.854206388077454
1588960439.5927465,0.8367977726363671,-1.0723877495000196,-9.293595545272735,-0.523289631343433,0.11128591907071222,0.7041791389444421,0.32250696051135247,2.4722633426140153,-7.7226113681816395
1588960439.6027465,0.8570149656195227,-1.1750748280976135,-9.385074828097615,-0.522222222222222,0.11555555555555601,0.7022222222222221,0.2593282324389915,3.7164200485371444,-6.764923486584872
1588960439.6127465,0.86,-1.1285655550479672,-9.43839652809502,-0.522222222222222,0.11555555555555601,0.7022222222222221,0.2020043398812243,3.875,-6.001056418455916
1588960439.6227465,0.8525209842886864,-1.0426888585981777,-9.367730827175551,-0.522222222222222,0.11555555555555601,0.7022222222222221,0.28098769639141974,3.2673299734557717,-5.345061518042901
1588960439.6327465,0.8728595348160012,-0.9742809303679977,-9.305710697775998,-0.522222222222222,0.11555555555555601,0.7022222222222221,0.3125,2.562447675899975,-4.9731918610999895
1588960439.6427464,0.9176221361438909,-1.06153739903312,-9.268951145542443,-0.5185392707363703,0.09284402139280129,0.7138849019274204,0.3125,2.118444659640273,-4.8125
1588960439.6527464,0.9449246853541701,-1.1846234267708504,-9.26,-0.515555555555556,0.07444444444444501,0.7233333333333329,0.281720716536437,2.247175700781378,-4.904837850390689
1588960439.6627464,0.939461786061831,-1.2047308930309155,-9.339036604536268,-0.515555555555556,0.07444444444444501,0.7233333333333329,0.1841361628864436,2.7338872670110037,-4.9341361628864435
1588960439.6727464,0.9610276184593665,-1.1534585723109503,-9.36345857231095,-0.515555555555556,0.07444444444444501,0.7233333333333329,0.1573204358951734,3.2262430512662137,-5.133563487161387
1588960439.6827464,0.99,-1.0618288687608404,-9.33204278280979,-0.515555555555556,0.07444444444444501,0.7233333333333329,0.2376782617074581,3.487678261707458,-5.600802177683561
1588960439.6927464,1.003906787828721,-1.003906787828721,-9.322186424342558,-0.527917144736641,0.08423070254613745,0.725908664412726,0.28352752535683146,3.620444949286337,-6.227224746431686
1588960439.7027464,1.0262786608048697,-1.0890652688535678,-9.315114643219479,-0.542222222222222,0.095555555555556,0.7288888888888891,0.25,3.6090167399391273,-6.994157930334799
1588960439.7127464,1.0157735371881826,-1.0730941487527301,-9.358452925623634,-0.542222222222222,0.095555555555556,0.7288888888888891,0.3833730888607886,3.5625,-7.694576962869295
1588960439.7227464,1.0240691801316577,-1.0640691801316577,-9.320757869539198,-0.542222222222222,0.095555555555556,0.7288888888888891,0.48146618791143025,3.738364751645721,-8.138797127468582
1588960439.7327464,1.0136510980399387,-1.1081474379068095,-9.272751830066564,-0.542222222222222,0.095555555555556,0.7288888888888891,0.4318795751664116,3.642198937916029,-8.556541911751149
1588960439.7427464,1.0252920710492583,-1.2095531953854606,-9.243676982237686,-0.5253608415227169,0.1032836883761626,0.7288888888888891,0.3354811389855338,3.4209622779710678,-9.128650888115729
1588960439.7527463,1.0335540379447599,-1.2693378861657205,-9.291567696441922,-0.515555555555556,0.10777777777777803,0.7288888888888891,0.3125,3.2541382114642476,-9.231925474309499
1588960439.7627463,1.0428457643211309,-1.3249601751239584,-9.397074585926786,-0.515555555555556,0.10777777777777803,0.7288888888888891,0.2723569864964659,2.9867849324823292,-9.026927945985863
1588960439.7727463,1.0429223402663474,-1.3146117013317373,-9.44,-0.515555555555556,0.10777777777777803,0.7288888888888891,0.38270612000598536,2.29994014664073,-8.760558506658686
1588960439.7827463,1.0545482696102813,-1.4454826961028127,-9.42545173038972,-0.515555555555556,0.10777777777777803,0.7288888888888891,0.4678088950214193,1.547248784635872,-8.596573314935743
1588960439.7927463,1.0781892319214448,-1.5959053840392778,-9.401810768078557,-0.5182852995293706,0.105048033803963,0.7325285475206422,0.5,0.6673124531913123,-8.295269201963885
1588960439.8027463,1.09,-1.5400833987441132,-9.358234890109891,-0.522222222222222,0.10111111111111099,0.7377777777777779,0.4716382947409733,-0.011031936813186816,-7.40440418956044
1588960439.8127463,1.0795574031055142,-1.5113277906834577,-9.361770387577943,-0.522222222222222,0.10111111111111099,0.7377777777777779,0.45925541019684557,-0.3152662305905367,-6.469945898031544
1588960439.8227463,1.064359594737638,-1.535123242098896,-9.405123242098895,-0.522222222222222,0.10111111111111099,0.7377777777777779,0.4182575986692878,-0.3830050657795252,-5.599293059125964
1588960439.8327463,1.072536580932473,-1.4697073525402162,-9.357463419067527,-0.522222222222222,0.10111111111111099,0.7377777777777779,0.296646369172044,-0.328353630827956,-4.667073752612923
1588960439.8427463,1.0659968175198231,-1.5033545498678462,-9.345332272506607,-0.5191104038932941,0.09851792917033775,0.7440014144356341,0.19165340633259614,-0.4916931873348077,-3.1623806569933652
1588960439.8527462,1.0744454244762955,-1.652779492833517,-9.395002205071664,-0.515555555555556,0.095555555555556,0.7511111111111108,-0.02778390297684674,-0.6631959757442116,-1.836776460859978
1588960439.8627462,1.0723657980318453,-1.6858780673227183,-9.46526840393631,-0.515555555555556,0.095555555555556,0.7511111111111108,-0.19847584153397813,-0.4670724753980656,-0.5667657431262406
1588960439.8727462,1.06,-1.6718566265710124,-9.477904417714008,-0.515555555555556,0.095555555555556,0.7511111111111108,-0.25,-0.23690261071255192,0.9071686714493771
1588960439.8827462,1.06,-1.6735357627062597,-9.438416553685395,-0.515555555555556,0.095555555555556,0.7511111111111108,-0.2781995056380411,-0.35669703382824647,2.317785663503191
1588960439.8927462,1.06,-1.706797204945097,-9.383202795054903,-0.5219011663125928,0.09966153898657969,0.755590365763137,-0.3125,-0.6044930123627429,3.7534266298088
1588960439.9027462,1.071624572573989,-1.7690614314349724,-9.379061431434973,-0.5344444444444449,0.10777777777777803,0.7644444444444449,-0.3125,-0.7601535785874307,5.4968429430491685
1588960439.9127462,1.07420482591714,-1.78420482591714,-9.457951740828602,-0.5344444444444449,0.10777777777777803,0.7644444444444449,-0.3849396760357511,-1.1384785421608798,6.958056274411137
1588960439.9227462,1.063916155419223,-1.713077709611452,-9.475664621676891,-0.5344444444444449,0.10777777777777803,0.7644444444444449,-0.5135480572597138,-1.603144171779141,8.322980572597137
1588960439.9327462,1.0700580715640993,-1.6951451789102479,-9.449941928435901,-0.5344444444444449,0.10777777777777803,0.7644444444444449,-0.5625,-2.0643147363780976,9.409697999118386
1588960439.9427462,1.099721537703302,-1.766016921307705,-9.384122309840643,-0.5216619663034158,0.09901264990964363,0.7673661537338228,-0.6035865368818795,-2.5188028790865777,10.328692295055035
1588960439.9527462,1.131259540542583,-1.8390228973021991,-9.276992367565933,-0.495555555555556,0.081111111111111,0.773333333333333,-0.6656488513564573,-2.5939885135645735,11.1529580405048
1588960439.9627461,1.0916398397944533,-1.7439356155066879,-9.308688128164437,-0.495555555555556,0.081111111111111,0.773333333333333,-0.5665995994861331,-1.6034959948613314,11.846302803597068
1588960439.9727461,1.04,-1.9424308438338047,-9.486753976709158,-0.495555555555556,0.081111111111111,0.773333333333333,-0.57432680650968,-1.0101897432129605,13.00172890415488
1588960439.9827461,1.04,-1.9116141949230372,-9.432824841115314,-0.495555555555556,0.081111111111111,0.773333333333333,-0.6224778204327541,-2.0695120495205908,13.772145126924066
1588960439.992746,1.04,-1.8078505053496725,-9.414462626337418,-0.49370976433469527,0.08511032542297586,0.7791783388660584,-0.7605871219132946,-3.8114772685202327,15.16245580504239
1588960440.002746,1.0422062938403158,-1.7555157346007897,-9.401103146920159,-0.48888888888888893,0.095555555555556,0.7944444444444441,-0.638789336501974,-4.687052014258883,15.846525355513817
1588960440.012746,1.049993767917238,-1.8133416427770161,-9.450024928331048,-0.48888888888888893,0.095555555555556,0.7944444444444441,-0.7291536831609123,-5.354270534712701,16.812616851551788
1588960440.022746,1.0316038372712737,-1.8608498845265589,-9.53,-0.48888888888888893,0.095555555555556,0.7944444444444441,-0.677476017054539,-5.557188221709007,17.267691863563687
1588960440.032746,1.0292552026286965,-1.9950711938663745,-9.49776560788609,-0.48888888888888893,0.095555555555556,0.7944444444444441,-0.6026150054764513,-4.561610076670318,18.000889923329684
1588960440.042746,1.003782697547684,-2.036891348773842,-9.433782697547684,-0.4726548213745082,0.08899284741144463,0.8010071525885557,-0.5430709298365123,-3.8057092983651226,18.7179325613079
1588960440.052746,0.9793167335088453,-2.046024899736732,-9.42,-0.4366666666666671,0.07444444444444501,0.8155555555555559,-0.5667704155697169,-3.441770415569717,19.396352077848583
1588960440.062746,0.97,-2.065431754874652,-9.468885793871866,-0.4366666666666671,0.07444444444444501,0.8155555555555559,-0.5571030640668524,-3.873433147632312,20.060933147632312
1588960440.072746,0.9658215111439933,-2.1284988439840933,-9.514178488856006,-0.4366666666666671,0.07444444444444501,0.8155555555555559,-0.5783466660501249,-4.474771108850458,20.766733330250624
1588960440.082746,0.9627278649226119,-2.21,-9.509088540309552,-0.4366666666666671,0.07444444444444501,0.8155555555555559,-0.7215983115326489,-4.823852532701027,21.55118818072854
1588960440.092746,0.9640987742573008,-2.201148161385951,-9.474098774257302,-0.4245363693066744,0.07444444444444501,0.8155555555555559,-0.8125,-4.337114721527238,22.335030643567478
1588960440.102746,0.9365548098434004,-2.209579418344519,-9.4734451901566,-0.39555555555555605,0.07444444444444501,0.8155555555555559,-0.7956935123042506,-3.2815156599552573,22.922790827740492
1588960440.112746,0.8773384202144097,-2.280935368085764,-9.55532315957118,-0.39555555555555605,0.07444444444444501,0.8155555555555559,-0.721673025268012,-2.574192101072048,23.817442772587892
1588960440.122746,0.841307081554913,-2.222188948552022,-9.557842489329477,-0.39555555555555605,0.07444444444444501,0.8155555555555559,-0.6331692597182065,-2.7634844416907614,24.53248055211345
1588960440.132746,0.8262995274445656,-2.197004725554344,-9.460396219556525,-0.39555555555555605,0.07444444444444501,0.8155555555555559,-0.5162440930570702,-3.742570883315158,25.43254725554344
1588960440.142746,0.82,-2.299453625936964,-9.415636232276709,-0.38866682721735585,0.06880821216773589,0.8136768114633195,-0.4903396775941479,-5.198283550076764,26.361924839700173
1588960440.152746,0.8132796126807269,-2.4571232922138213,-9.456881549277092,-0.37111111111111106,0.054444444444444996,0.8088888888888891,-0.5619963688818146,-6.962026628200027,27.503021786709112
1588960440.162746,0.8035819919928099,-2.5520900400359507,-9.542237927935288,-0.37111111111111106,0.054444444444444996,0.8088888888888891,-0.4375,-8.14364939946074,28.630586649236047
1588960440.172746,0.8046905472636816,-2.5603518407960197,-9.597876218905473,-0.37111111111111106,0.054444444444444996,0.8088888888888891,-0.430863184079602,-8.65818407960199,29.465146766169156
1588960440.182746,0.7523900648285559,-2.7630211669140046,-9.553365226899945,-0.37111111111111106,0.054444444444444996,0.8088888888888891,-0.375,-8.889937905178474,31.201839900804497
1588960440.192746,0.7369852463853644,-2.5822065506048983,-9.500955739156094,-0.382835152945805,0.05712422543523192,0.8088888888888891,-0.3561577899085276,-8.831342210091472,32.37087083210387
1588960440.202746,0.7265755093625237,-2.628632640437855,-9.503971434462334,-0.41,0.063333333333333,0.8088888888888891,-0.3125,-8.78938773406309,33.80306132968454
1588960440.212746,0.7105841995128812,-2.4687972968337277,-9.535876299269322,-0.41,0.063333333333333,0.8088888888888891,-0.35663656478336936,-8.404317176083154,34.845682823916846
1588960440.222746,0.6612188537709931,-2.387382163931293,-9.522867005900762,-0.41,0.063333333333333,0.8088888888888891,-0.47065445901717673,-7.306007967223297,35.73857324589694
1588960440.232746,0.6326413898519927,-2.5641516608880437,-9.56,-0.41,0.063333333333333,0.8088888888888891,-0.4375,-6.760021716437386,36.07547394027514
1588960440.2427459,0.6181561797237138,-2.6473752811051448,-9.558156179723714,-0.43069176087832284,0.07542059958898706,0.8220004997424798,-0.42597612327321127,-6.666214890541099,36.4162148905411
1588960440.2527459,0.6020214423736209,-2.6760107211868105,-9.54601072118681,-0.522222222222222,0.128888888888889,0.88,-0.4123994888736521,-7.237198466620956,37.037064451785824
1588960440.2627459,0.5852236206315315,-2.547345207326666,-9.560447241263063,-0.522222222222222,0.128888888888889,0.88,-0.524440948421171,-7.858765732104731,37.76361810315766
1588960440.2727458,0.6166931571885643,-2.281732892971411,-9.603545257508516,-0.522222222222222,0.128888888888889,0.88,-0.4271661162142636,-8.198330581071318,37.97883553514295
1588960440.2827458,0.567791045984456,-2.3330480893782384,-9.491472636010363,-0.522222222222222,0.128888888888889,0.88,-0.375,-7.5348880748057,38.12039801246762
1588960440.2927458,0.5326943580630831,-2.3487042795794464,-9.484611283873834,-0.5646690771179884,0.0839204386527799,0.9316927044770238,-0.42227991263142306,-6.528820524211461,37.952720087368576
1588960440.3027458,0.57,-2.1,-9.41,-0.6344444444444439,0.01,1.01666666666667,-0.5,-6.0625,37.875
1588960440.3127458,0.5145861316319678,-2.1369425789120218,-9.41,-0.6344444444444439,0.01,1.01666666666667,-0.5577227795500336,-5.25438108629953,37.5286633226998
1588960440.3227458,0.45157030811159427,-2.3653716687124224,-9.568594877982814,-0.6344444444444439,0.01,1.01666666666667,-0.5103306322424949,-4.561467586909938,36.92613695466744
1588960440.3327458,0.4389371898289476,-2.3468115694868428,-9.440628101710523,-0.6344444444444439,0.01,1.01666666666667,-0.7992148728618449,-4.894927690707233,36.39100205501646
1588960440.3427458,0.4317841976908778,-2.3253525930726333,-9.51215802309122,-0.6344444444444439,0.01,1.01666666666667,-0.7098024711359722,-5.029046293296042,36.078058648975905
1588960440.3527458,0.43646049364685263,-2.3458419745874104,-9.516460493646852,-0.5933333333333329,-0.168888888888889,0.813333333333333,-0.8125,-4.911512341171316,35.03984181028188
1588960440.3627458,0.4045291444063472,-2.2683968583047602,-9.530941711187305,-0.5933333333333329,-0.168888888888889,0.813333333333333,-0.8366732118650825,-3.871496491507854,33.579035762698346
1588960440.3727458,0.3779650930004004,-2.229650930004004,-9.563720744003204,-0.5933333333333329,-0.168888888888889,0.813333333333333,-0.8877181687474975,-2.6079184563025515,32.53270028755505
1588960440.3827457,0.3703315982965093,-2.153315982965093,-9.502652786372074,-0.5933333333333329,-0.168888888888889,0.813333333333333,-0.9354275106468168,-1.6060222764168457,31.48309476577003
1588960440.3927457,0.35,-2.14,-9.452018244013685,-0.5825136196629923,-0.15328012162675797,0.792935512479412,-0.8324543899657925,-2.129133409350057,29.448617445838085
1588960440.4027457,0.3484065187867813,-2.14,-9.413718122830844,-0.525555555555556,-0.07111111111111099,0.6855555555555559,-0.9375,-4.125,26.875
1588960440.4127457,0.3136309321232747,-2.1782144072603518,-9.50229173756854,-0.525555555555556,-0.07111111111111099,0.6855555555555559,-0.8777899886557005,-4.244420022688599,26.397319909245603
1588960440.4227457,0.2950791486994019,-2.2353957434970093,-9.536877729865072,-0.525555555555556,-0.07111111111111099,0.6855555555555559,-0.7294964529141744,-4.582014188343302,25.046943246626793
1588960440.4327457,0.27727120820002854,-2.093033847533267,-9.460305055733295,-0.525555555555556,-0.07111111111111099,0.6855555555555559,-0.6855934016669044,-5.060593401666904,23.193219794999287
1588960440.4427457,0.3,-2.0290937632861303,-9.426883932367465,-0.5189771905535391,-0.0605511041341893,0.680362109501332,-0.8457868659449913,-5.1720983091866435,22.42050806161494
1588960440.4527457,0.2780035456157098,-2.0323232874221557,-9.42466430292286,-0.4833333333333329,-0.0033333333333329996,0.652222222222222,-0.6875,-4.406305400245466,21.06045729351334
1588960440.4627457,0.24240208208891542,-2.0799479477771143,-9.462010410444577,-0.4833333333333329,-0.0033333333333329996,0.652222222222222,-0.7325390391671645,-3.5272527519412917,20.459856856387063
1588960440.4727457,0.2495602013823705,-1.9009949654407372,-9.497801006911853,-0.4833333333333329,-0.0033333333333329996,0.652222222222222,-0.866753775919447,-2.677226085843502,19.967736154962026
1588960440.4827456,0.21109540107662658,-2.08671379677012,-9.458904598923374,-0.4833333333333329,-0.0033333333333329996,0.652222222222222,-0.75,-1.1207155080746993,19.201192513457833
1588960440.4927456,0.17625207682594538,-2.191243769522164,-9.493747923174055,-0.4833333333333329,-0.0033333333333329996,0.652222222222222,-0.75,-0.8593905761945902,18.76565096032432
1588960440.5027456,0.1312572102443151,-2.3530120234829646,-9.48,-0.44888888888888895,0.054444444444444996,0.673333333333333,-0.7600510805752814,-2.1083683697797833,18.58260216115056
1588960440.5127456,0.19,-2.1656201558272477,-9.487493541102996,-0.44888888888888895,0.054444444444444996,0.673333333333333,-0.800791342026568,-2.9414567101328397,18.57041342026568
1588960440.5227456,0.18923282508796554,-2.1907671749120343,-9.520383587456017,-0.44888888888888895,0.054444444444444996,0.673333333333333,-0.742807735199677,-2.6707180487992463,18.036128362398816
1588960440.5327456,0.1731036935914938,-2.206896306408506,-9.528448153204252,-0.44888888888888895,0.054444444444444996,0.673333333333333,-0.5915971274202542,-2.3178932973139266,17.481689467207598
1588960440.5427456,0.1387839589191833,-2.27364812324245,-9.497567917838367,-0.44888888888888895,0.060119302821589636,0.6679287063074809,-0.6951002567551046,-1.7423997432448954,16.548997432448953
1588960440.5527456,0.12837243877385524,-2.2934897550954205,-9.48,-0.44888888888888895,0.10111111111111099,0.628888888888889,-0.7398277423365951,-1.6569832270097853,15.938966454019571
1588960440.5627456,0.12,-2.2544232626709366,-9.491153474658127,-0.44888888888888895,0.10111111111111099,0.628888888888889,-0.6991182027688815,-1.4883817972311186,15.613381797231119
1588960440.5727456,0.12,-2.233101011641503,-9.533797976716993,-0.44888888888888895,0.10111111111111099,0.628888888888889,-0.7435395590802026,-1.4439604409197973,15.568960440919797
1588960440.5827456,0.05296952851554458,-2.1659137327568456,-9.47629442042413,-0.44888888888888895,0.10111111111111099,0.628888888888889,-0.7338197446983735,-1.5115799361745934,15.939879297920527
1588960440.5927455,0.10923161645610625,-2.065378684807256,-9.459231616456107,-0.44888888888888895,0.10367238959075678,0.6306817838246411,-0.9230928085519923,-1.5480928085519923,16.514407191448008
1588960440.6027455,0.09300613816063255,-2.132331287279789,-9.466319010958523,-0.44888888888888895,0.134444444444444,0.652222222222222,-0.7937116364960466,-1.3458589090026356,16.716641090997364
1588960440.6127455,0.07118809821057012,-2.1396039672631435,-9.517227770842002,-0.44888888888888895,0.134444444444444,0.652222222222222,-0.9300743861839368,-1.2549504092107089,16.807549590789293
1588960440.6227455,0.11418436239666659,-1.9014044430580004,-9.52,-0.44888888888888895,0.134444444444444,0.652222222222222,-0.8822695470041667,-0.8081563760333341,16.978191358987498
1588960440.6327455,0.09,-1.9411357434197012,-9.466592769740897,-0.44888888888888895,0.134444444444444,0.652222222222222,-0.9858032072537339,-0.09089358549253206,17.152008018134335
1588960440.6427455,0.09,-1.947289533143578,-9.448131400569265,-0.44888888888888895,0.134444444444444,0.652222222222222,-0.908880835705273,-0.2447383285894539,16.959702089263182
1588960440.6527455,0.11992222694432639,-1.8003888652783682,-9.400103697407566,-0.4245078150824002,0.16104197950606777,0.6577633753600607,-0.93733797280068,-0.9982177008074798,16.37629621759456
1588960440.6627455,0.11932310357629006,-1.9307152580126221,-9.450038361588913,-0.42444444444444396,0.16111111111111098,0.657777777777778,-0.8125,-2.3794703625788887,15.341394938745205
1588960440.6727455,0.09520243902439024,-2.0413865853658537,-9.54439268292683,-0.42444444444444396,0.16111111111111098,0.657777777777778,-0.7881135670731707,-3.5345083841463416,14.359279725609756
1588960440.6827455,0.12930243902439026,-1.8538365853658538,-9.442092682926829,-0.42444444444444396,0.16111111111111098,0.657777777777778,-0.6282698170731708,-5.3993521341463415,13.027248475609756
1588960440.6927454,0.15303820459290188,-1.7822356993736952,-9.436286638830897,-0.4251196010206444,0.1617862676873114,0.657777777777778,-0.4353901356993737,-8.07384525052192,10.97177583507307
1588960440.7027454,0.23184551148225468,-1.580839248434238,-9.339966597077245,-0.442632335884945,0.17929900255161205,0.657777777777778,-0.38066283924843425,-9.989300626304802,8.618502087682671
1588960440.7127454,0.27816716503829736,-1.552032236915746,-9.343067464061276,-0.444444444444444,0.181111111111111,0.657777777777778,-0.344373131106385,-10.587902961446824,4.095380534723444
1588960440.7227454,0.311701712586149,-1.4782562323104722,-9.396722740137838,-0.444444444444444,0.181111111111111,0.657777777777778,-0.21861857780194127,-9.665702903880902,1.6641258375041978
1588960440.7327454,0.29707718016477536,-1.7026655526193066,-9.428051453443183,-0.444444444444444,0.181111111111111,0.657777777777778,-0.0442323760298461,-5.049398608736204,-3.345476935333437
1588960440.7427454,0.2726272734338567,-1.8086151484532877,-9.411751515622571,-0.444444444444444,0.181111111111111,0.657777777777778,0.10857954103839579,-1.2800379877195711,-6.758276416524172
1588960440.7527454,0.272927848412397,-1.8122818581994504,-9.41,-0.42444444444444396,0.2,0.673333333333333,0.15446729828167943,4.339818001027864,-12.3255563872813
1588960440.7627454,0.25,-1.6990016747301824,-9.424402679568292,-0.42444444444444396,0.2,0.673333333333333,0.28375628023818383,7.377558615556382,-16.5776423520655
1588960440.7727454,0.2530502370532458,-1.7323744073668854,-9.488474881473378,-0.42444444444444396,0.2,0.673333333333333,0.4756279631655726,8.8125,-20.7583353277717
1588960440.7827454,0.2680185578163359,-1.7018886531019848,-9.473064952357175,-0.42444444444444396,0.2,0.673333333333333,0.7060760204718513,8.676275849873091,-25.07082449132443
1588960440.7927454,0.25056630466441976,-1.8066021720134815,-9.41198206632547,-0.42444444444444396,0.2,0.673333333333333,0.8696908937710648,7.476433445678858,-28.997581450505557
1588960440.8027453,0.348366908469251,-1.6448992745922468,-9.365100725407752,-0.4333333333333329,0.21444444444444397,0.664444444444444,0.9681204662015432,5.614793177932819,-34.52571847710576
1588960440.8127453,0.33310502613009657,-1.696200900705633,-9.366200900705632,-0.4333333333333329,0.21444444444444397,0.664444444444444,1.1422374346747586,5.734874346747586,-39.06021662692965
1588960440.8227453,0.28631210496839743,-1.86491719337547,-9.517707016561324,-0.4333333333333329,0.21444444444444397,0.664444444444444,1.2884155732458598,7.135190815265221,-43.046536222897835
1588960440.8327453,0.26114429154332347,-1.8984742779422352,-9.433814305144411,-0.4333333333333329,0.21444444444444397,0.664444444444444,1.5505802964237139,9.337374489959196,-46.3498117349388
1588960440.8427453,0.22085164734705817,-2.1963736424470692,-9.478722528979413,-0.4338537844898685,0.21354548335588255,0.6648229543764698,1.6329841938786704,12.240727959191137,-49.465487530624934
1588960440.8527453,0.236188978681391,-1.9509763410977436,-9.455716531977913,-0.4432265980830726,0.19735607805853136,0.6716395460806178,1.7767716751380407,13.199311167586938,-51.095078984897796
1588960440.8627453,0.21,-2.19,-9.535401310463854,-0.44555555555555604,0.19333333333333302,0.673333333333333,1.8293790951995479,14.647505460266064,-53.22627457119729
1588960440.8727453,0.21,-2.19,-9.573838223389794,-0.44555555555555604,0.19333333333333302,0.673333333333333,1.9494944480931071,14.807659264124142,-53.94696668855864
1588960440.8827453,0.23606555619102088,-2.216065556191021,-9.529180368887618,-0.44555555555555604,0.19333333333333302,0.673333333333333,2.1086064841292536,14.114754611095224,-54.57581945238776
1588960440.8927453,0.23,-2.274512237596175,-9.516472152740398,-0.4463395216132453,0.19333333333333302,0.6735511016826912,2.185050106069721,13.22795095462749,-54.61520042427888
1588960440.9027452,0.22778604970793725,-2.170995304088879,-9.44549765204444,-0.46555555555555606,0.19333333333333302,0.6788888888888891,2.1526743786507847,12.576802485396861,-54.05674464551598
1588960440.9127452,0.2230412198391421,-2.2777882037533512,-9.502211796246648,-0.46555555555555606,0.19333333333333302,0.6788888888888891,2.2482720341823055,12.185772034182305,-52.883933059651476
1588960440.9227452,0.32882214579732355,-2.2009422833621413,-9.578822145797323,-0.46555555555555606,0.19333333333333302,0.6788888888888891,2.1830830467399633,12.126472317753345,-50.97349828043978
1588960440.9327452,0.29145244925960906,-2.230838040592313,-9.541452449259609,-0.46555555555555606,0.19333333333333302,0.6788888888888891,2.042946684723534,12.173184438425489,-50.132680108341205
1588960440.9427452,0.28877893466123433,-2.3014525426286405,-9.46854745737136,-0.46555555555555606,0.19333333333333302,0.6788888888888891,2.1097366832654294,11.748553266938282,-48.22894975101856
1588960440.9527452,0.29,-2.429003116017295,-9.46,-0.4716582794538782,0.17502516163836457,0.6738032856402862,2.1822130365467767,10.257174086330588,-45.88311764776927
1588960440.9627452,0.32466671659676455,-2.537407379668464,-9.496222288795686,-0.472222222222222,0.17333333333333303,0.673333333333333,2.0,7.695832085080887,-42.92314665717995
1588960440.9727452,0.41093853584619755,-2.497508286769581,-9.608122928307605,-0.472222222222222,0.17333333333333303,0.673333333333333,1.9882683019225305,5.515573207690122,-40.087573397102
1588960440.9827452,0.43009328541408903,-2.567837153125552,-9.591441897916297,-0.472222222222222,0.17333333333333303,0.673333333333333,1.8479644140694043,5.179654205699248,-37.04665007168248
1588960440.9927452,0.5454140890433827,-2.5431255523478464,-9.607916298434768,-0.472222222222222,0.17333333333333303,0.673333333333333,1.5390694043480821,6.5181992478249775,-34.00918247608948
1588960441.0027452,0.5521020069413007,-2.5005100347065037,-9.558663045118454,-0.4906508726925204,0.1601700115688344,0.673333333333333,1.4012750867662593,7.551342990795232,-32.687113324279466
1588960441.0127451,0.5430604238073682,-2.4553021190368405,-9.499892754747894,-0.5117479000050299,0.1451007063456135,0.673333333333333,1.2882552975921016,8.540266146069111,-31.613425327124965
1588960441.0227451,0.5306566540948277,-2.4960600754310347,-9.564090113146552,-0.518888888888889,0.14,0.673333333333333,1.25,7.123122642780173,-26.753514783135778
1588960441.0327451,0.5207828992855497,-2.495391449642775,-9.565391449642775,-0.518888888888889,0.14,0.673333333333333,1.1347862410693708,5.3870073749711915,-25.141345212030423
1588960441.042745,0.5111163862641162,-2.4905581931320584,-9.560558193132058,-0.518888888888889,0.14,0.673333333333333,1.013954828301452,3.695367596220327,-23.781991818391333
1588960441.052745,0.4940438983828421,-2.505956101617158,-9.528087796765684,-0.5318901568732396,0.14768256744529804,0.673333333333333,0.9002743648927629,0.6411984602592038,-18.77168575811446
1588960441.062745,0.48,-2.5134275068389775,-9.497809168946326,-0.5433333333333329,0.154444444444444,0.673333333333333,0.7782682647863409,-1.9092317352136592,-13.842750683897746
1588960441.072745,0.48,-2.483753655315536,-9.48791788510518,-0.5433333333333329,0.154444444444444,0.673333333333333,0.623716954768418,-2.063783045231582,-10.875365531553626
1588960441.082745,0.4809940721557633,-2.4609940721557635,-9.48596443293458,-0.5433333333333329,0.154444444444444,0.673333333333333,0.40059278442366864,-2.032176225661982,-7.201493246534171
1588960441.092745,0.48597666876536905,-2.4659766687653693,-9.515860012592213,-0.5433333333333329,0.154444444444444,0.673333333333333,-0.09766687653690354,-1.2536455054110882,-0.6929764252366981
1588960441.102745,0.4867967789281606,-2.486016105359197,-9.523983894640802,-0.5575698714303972,0.14803800230076516,0.6715537660712002,-0.7002013169899639,-0.9052818437859494,8.626586734896268
1588960441.112745,0.48476436472576434,-2.4818850821938856,-9.499528729451528,-0.587777777777778,0.134444444444444,0.667777777777778,-1.1696659193040406,-1.9466591930404056,18.63464349842526
1588960441.122745,0.49281917345214316,-2.4174466123828546,-9.515638346904286,-0.587777777777778,0.134444444444444,0.667777777777778,-1.2451797511138423,-2.701797511138424,20.975572284529115
1588960441.132745,0.504603213594197,-2.364603213594197,-9.53,-0.587777777777778,0.134444444444444,0.667777777777778,-1.361820145652111,-3.716131007427102,23.89272245181054
1588960441.142745,0.5470274253677426,-2.4070274253677426,-9.53,-0.587777777777778,0.134444444444444,0.667777777777778,-1.8163652717972432,-6.860068129930931,31.54423207525359
1588960441.152745,0.5789319110725786,-2.3942723557096857,-9.497249659400545,-0.6099421496986211,0.12915146010513837,0.6634772280020919,-2.043891851932128,-8.543891851932127,36.3573933304434
1588960441.162745,0.5984124969036413,-2.316350012385435,-9.425820844686648,-0.6582828626868135,0.11760740924228692,0.6540976866760242,-2.003307298117414,-8.503307298117415,37.8184372677731
1588960441.172745,0.5795173173325232,-2.362669755430655,-9.484374145526356,-0.662222222222222,0.116666666666667,0.653333333333333,-2.0731524380981314,-7.859916166641349,38.88848169527571
1588960441.182745,0.5572173780950934,-2.4200124563269028,-9.554459668843993,-0.662222222222222,0.116666666666667,0.653333333333333,-2.1527950782318093,-7.163043065471669,39.92383601701352
1588960441.192745,0.5349174388576637,-2.4773551572231507,-9.624545192161628,-0.662222222222222,0.116666666666667,0.653333333333333,-2.232437718365487,-6.46616996430199,40.95919033875133
1588960441.202745,0.5186448004634685,-2.1533879988413287,-9.429322400231733,-0.813333333333333,0.11,0.631111111111111,-2.4247950043450164,-6.674795004345016,43.353825007241696
1588960441.212745,0.49978104726598704,-2.2004379054680263,-9.420510889712697,-0.813333333333333,0.11,0.631111111111111,-2.2501520505097314,-6.500152050509731,43.06143564643188
1588960441.222745,0.41231881371640405,-2.3753623725671917,-9.624589434661724,-0.813333333333333,0.11,0.631111111111111,-2.3108897126969414,-6.560889712696942,42.636272011121406
1588960441.232745,0.3879628405273029,-2.424074318945394,-9.580416391186432,-0.813333333333333,0.11,0.631111111111111,-2.2092008149717324,-7.01012980178916,42.45283469161956
1588960441.242745,0.35430864555402564,-2.5321802304514818,-9.549414812667584,-0.813333333333333,0.11,0.631111111111111,-2.144614193057468,-7.512299351402276,42.273271613885065
1588960441.252745,0.32482832437877773,-2.622403458697112,-9.531373404969779,-0.9619384281023797,0.1073175975673455,0.582827867323334,-2.1573229726326395,-8.174624328408328,42.1875
1588960441.262745,0.32348361581920904,-2.6542621468926555,-9.54864745762712,-1.12111111111111,0.10444444444444399,0.5311111111111111,-2.125,-8.806864406779662,42.22822740112994
1588960441.272745,0.32,-2.599435238417315,-9.61455148799459,-1.12111111111111,0.10444444444444399,0.5311111111111111,-2.254568079979709,-8.894310640006763,42.206810640006765
1588960441.282745,0.28255823513291317,-2.3347098520142504,-9.545756029049054,-1.12111111111111,0.10444444444444399,0.5311111111111111,-2.078488969580707,-8.406977939161415,42.1875
1588960441.2927449,0.2644256179076636,-2.3745103373231773,-9.508851235815326,-1.12111111111111,0.10444444444444399,0.5311111111111111,-2.2085098321156535,-8.034310391730141,42.13883005596145
1588960441.3027449,0.16477155145546346,-2.704253880196971,-9.538091379417814,-1.5803238518703178,0.1975567052435466,0.2919818958770527,-2.071446658978994,-7.9375,41.767893317957984
1588960441.3127449,0.16,-2.580840220385675,-9.548185869389078,-1.6033333333333302,0.20222222222222197,0.28,-2.2159850510452115,-8.858410306271269,42.005808418408684
1588960441.3227448,0.2109596024614434,-2.261228919385154,-9.524520198769277,-1.6033333333333302,0.20222222222222197,0.28,-2.037668323077319,-9.646412111537373,42.27483167692268
1588960441.3327448,0.20496991150442478,-2.127334513274336,-9.52,-1.6033333333333302,0.20222222222222197,0.28,-2.0939380530973453,-9.609092920353982,42.17159292035398
1588960441.3427448,0.1773824238769973,-2.235705456738016,-9.482304039794997,-1.6033333333333302,0.20222222222222197,0.28,-2.030760099487489,-9.091300497437443,41.51244064666868
1588960441.3527448,0.16292906631474763,-2.350709336852524,-9.477070933685253,-1.5931197624546352,0.46777506506836763,0.4072768063345431,-1.911613328934345,-8.628146651270209,40.870566644671726
1588960441.3627448,0.16536962352985313,-2.29408602352235,-9.490739247059706,-1.58888888888889,0.577777777777778,0.46,-1.875,-8.969842058862149,39.98273691170678
1588960441.3727448,0.17661530205458448,-2.2266153020545847,-9.55953771849126,-1.58888888888889,0.577777777777778,0.46,-1.792308724317694,-9.416345637841154,38.21732214044771
1588960441.3827448,0.20363694767649368,-2.2181815261617532,-9.55454457848526,-1.58888888888889,0.577777777777778,0.46,-1.6392018077664359,-9.215903615532872,36.480085346919836
1588960441.3927448,0.225457049406094,-2.0954019624720264,-9.469972456532966,-1.58888888888889,0.577777777777778,0.46,-1.4942868824238251,-8.312155706662075,34.01627861938371
1588960441.4027448,0.1521904336164506,-2.087535762181493,-9.429726195797944,-1.1155473600556278,0.44269172502856013,0.6880252570406791,-1.4375,-6.167781906571301,29.95029615556549
1588960441.4127448,0.09670115760201772,-2.1699482635969733,-9.456649421198993,-1.10222222222222,0.43888888888888894,0.694444444444444,-1.2709411175063055,-5.070127077539934,27.65421490008407
1588960441.4227448,0.09,-2.213645578309118,-9.569348129504633,-1.10222222222222,0.43888888888888894,0.694444444444444,-1.3025712161079968,-4.464359055028029,25.429865004004117
1588960441.4327447,-0.006421147536877961,-2.228765558866989,-9.537406646798066,-1.10222222222222,0.43888888888888894,0.694444444444444,-0.983791542487916,-4.484569485837361,23.418957712439582
1588960441.4427447,0.03294858141937536,-2.1947009457204163,-9.494700945720416,-1.10222222222222,0.43888888888888894,0.694444444444444,-0.9007301517921005,-4.830928633871096,22.30502364301041
1588960441.4527447,0.03747627929608305,-1.903305490227881,-9.443981023436866,-0.8998524045089602,0.3875736851115977,0.7175724236116741,-0.875,-4.940536047360311,20.915061633281972
1588960441.4627447,0.03744203088196807,-1.786163046322952,-9.36895289191311,-0.7911111111111109,0.36,0.73,-0.875,-4.166417495420047,19.791417495420045
1588960441.4727447,0.05850209706411025,-1.6789874176153385,-9.480263630916717,-0.7911111111111109,0.36,0.73,-0.9906381066506891,-3.2530332534451767,18.878033253445178
1588960441.4827447,0.06884264305177112,-1.687685286103542,-9.41925885558583,-0.7911111111111109,0.36,0.73,-0.7236674046321526,-3.0217004427792915,17.87296917574932
1588960441.4927447,0.07,-1.7360738178104744,-9.433036908905237,-0.7911111111111109,0.36,0.73,-0.7354935602192443,-2.5200643978075568,16.74213523539587
1588960441.5027447,0.09548003556584851,-1.8582901511548562,-9.420889973325613,-0.6785742873619464,0.3260266192455355,0.7526489205029762,-0.6703748888567234,-2.494437666714915,15.163498221707574
1588960441.5127447,0.09924217026907807,-1.903863255403617,-9.436894574327304,-0.6144444444444439,0.306666666666667,0.7655555555555551,-0.658618217909131,-2.730591089545655,13.059153065725628
1588960441.5227447,0.09,-1.8593908351864679,-9.498261456016916,-0.6144444444444439,0.306666666666667,0.7655555555555551,-0.4483658998942802,-2.5402122598519923,9.531485818963946
1588960441.5327446,0.06917682077449816,-1.8656173844191264,-9.51,-0.6144444444444439,0.306666666666667,0.7655555555555551,-0.2773913473804601,-1.8193118667429142,7.445978863326442
1588960441.5427446,0.05,-1.9065620255242315,-9.475848824325988,-0.6144444444444439,0.306666666666667,0.7655555555555551,-0.23493218843612787,-0.6808137387664656,5.310004513931634
1588960441.5527446,0.05,-1.933149992147008,-9.43685000785299,-0.5320666282742617,0.30292222047711276,0.7898944557876547,-0.20718745091880006,0.9345315690277995,1.716092743835401
1588960441.5627446,0.012373402889572678,-1.9450506388441708,-9.417424041733744,-0.516666666666667,0.302222222222222,0.7944444444444441,-0.046400260835897544,1.5328324638803417,-0.7099295946854687
1588960441.5727446,0.016382678492889605,-1.982765356985779,-9.475530713971558,-0.516666666666667,0.302222222222222,0.7944444444444441,0.06826116038704003,1.72163058019352,-2.6378314671602405
1588960441.5827446,-0.022832916746779466,-2.095853489713517,-9.510187656219957,-0.516666666666667,0.302222222222222,0.7944444444444441,0.125,1.7087242837915786,-5.1734257835031725
1588960441.5927446,-0.036907854417492045,-2.094177490461222,-9.480361781626238,-0.516666666666667,0.302222222222222,0.7944444444444441,0.16591295494533737,1.7693259098906746,-7.369453423086808
1588960441.6027446,-0.07001831501831501,-2.07,-9.445989010989011,-0.481094831094831,0.28176841676841696,0.7828835978835978,0.33756868131868134,1.9625686813186813,-9.625686813186814
1588960441.6127446,-0.12612483912483913,-2.1391872586872585,-9.497656048906048,-0.472222222222222,0.27666666666666695,0.78,0.41103503056628055,2.3963853362290863,-10.684665580759331
1588960441.6227446,-0.16,-2.154471230384353,-9.575528769615646,-0.472222222222222,0.27666666666666695,0.78,0.474509135016299,3.279646160260784,-11.705627890228186
1588960441.6327446,-0.12034883228076125,-1.9978294409358708,-9.533914720467935,-0.472222222222222,0.27666666666666695,0.78,0.5413032997075404,3.770106599415081,-12.310319798245242
1588960441.6427445,-0.11753650621957815,-1.9475365062195782,-9.511691004146385,-0.472222222222222,0.27666666666666695,0.78,0.5625,3.9951719397872725,-12.693240715702181
1588960441.6527445,-0.23493557616216545,-2.050626179412779,-9.49615100541769,-0.4536730042137583,0.2681870241485121,0.7768201340556918,0.47306627031633625,4.2442449729115515,-13.02405621613944
1588960441.6627445,-0.2869059107358263,-2.230301568154403,-9.48720747889023,-0.4333333333333329,0.258888888888889,0.773333333333333,0.4466978287092883,3.8014173703256935,-12.972406513872135
1588960441.6727445,-0.301109919844795,-2.4351360596313882,-9.591664879767192,-0.4333333333333329,0.258888888888889,0.773333333333333,0.4045157502425078,1.3220886302139174,-12.048626001940063
1588960441.6827445,-0.2377948202162434,-2.2259112624865707,-9.455589640432487,-0.4333333333333329,0.258888888888889,0.773333333333333,0.375,-0.5268947013509497,-11.018472695270534
1588960441.6927445,-0.07475919439579684,-2.1768838560738737,-9.479915021493392,-0.4333333333333329,0.258888888888889,0.773333333333333,0.375,-1.5138102511542746,-9.75106223133259
1588960441.7027445,0.01,-2.0586564940096563,-9.50307742743041,-0.42361129323875935,0.26038458736497716,0.7740811825713771,0.375,-0.6550709304404838,-8.662268283960184
1588960441.7127445,-0.03989551929671138,-2.011383793984305,-9.440104480703289,-0.418888888888889,0.261111111111111,0.774444444444444,0.4640991416012703,2.298627252433664,-8.571148712401905
1588960441.7227445,-0.03274720192396634,-1.9314284062528906,-9.50857159374711,-0.418888888888889,0.261111111111111,0.774444444444444,0.41483500601239476,4.314562424845065,-8.582417503006198
1588960441.7327445,-0.09185405681238307,-1.8500810795486762,-9.454194590916822,-0.418888888888889,0.261111111111111,0.774444444444444,0.2752026988716902,4.313513494358451,-8.712195951692465
1588960441.7427444,-0.06840826317989135,-1.8192041315899456,-9.416136087726631,-0.418888888888889,0.261111111111111,0.774444444444444,0.2933247258542799,3.4076549346229625,-8.66335054829144
1588960441.7527444,-0.04241674051628027,-1.8782493353534775,-9.440333037934879,-0.4138333825664089,0.24173167020827213,0.7693889381219646,0.2651046282267517,2.5885462822675165,-7.866674051628027
1588960441.7627444,-0.0025145114092457246,-1.9481956281881125,-9.476775348993396,-0.412222222222222,0.23555555555555605,0.7677777777777779,0.2834691862417449,2.0024005788573165,-7.390715696307786
1588960441.7727444,-0.011053804520853229,-1.99,-9.51368460150695,-0.412222222222222,0.23555555555555605,0.7677777777777779,0.28399041352718524,1.2258657893805935,-7.0449520676359265
1588960441.7827444,-0.02011858300810567,-2.0298814169918944,-9.523353097168018,-0.412222222222222,0.23555555555555605,0.7677777777777779,0.25,0.3345685730011008,-6.875
1588960441.7927444,0.0,-1.8975805374887944,-9.460120925442027,-0.412222222222222,0.23555555555555605,0.7677777777777779,0.18195559709321177,0.26108880581357646,-6.875
1588960441.8027444,0.0,-1.8609874006590423,-9.434496607869743,-0.4172770778143912,0.24255458637548238,0.7576680665934399,0.2343598565613491,0.30938408606319057,-6.875
1588960441.8127444,-0.026940331987438313,-2.102738896366083,-9.477305966801257,-0.4266666666666671,0.25555555555555604,0.7388888888888892,0.38698687752355315,0.3053639524450426,-6.7908114625392555
1588960441.8227444,-0.05928367859117785,-2.2552120464502954,-9.482214896422647,-0.4266666666666671,0.25555555555555604,0.7388888888888892,0.3008954017610277,0.3959706920753754,-6.613395401761028
1588960441.8327444,0.0,-2.1719820704375667,-9.503002988260405,-0.4266666666666671,0.25555555555555604,0.7388888888888892,0.3937686766275347,-0.050112059765208106,-6.725037353255069
1588960441.8427444,0.002807673449374847,-2.0878848982593774,-9.487538612405,-0.4266666666666671,0.25555555555555604,0.7388888888888892,0.4199520409414072,-0.11947245035547929,-6.917787754351557
1588960441.8527443,0.01601687186502508,-1.9138144094847243,-9.436016871865025,-0.4306779145766833,0.24820160105385825,0.7348776409788722,0.33739455084359327,0.6382381440948472,-7.262710898312814
1588960441.8627443,0.014386488579902896,-1.931748625621068,-9.468067557100486,-0.4333333333333329,0.243333333333333,0.7322222222222221,0.3475844463756069,0.7423311072487861,-7.277415553624393
1588960441.8727443,-0.0015505382313932333,-2.020426883809876,-9.530426883809877,-0.4333333333333329,0.243333333333333,0.7322222222222221,0.375,1.0484543197310385,-7.286095431973104
1588960441.8827443,-0.015697400004034127,-2.027210399983863,-9.53151299997983,-0.4333333333333329,0.243333333333333,0.7322222222222221,0.3037824999495734,1.3481087500252134,-7.20567374992436
1588960441.8927443,-0.0014377378030934092,-2.005359434450773,-9.48215660670464,-0.4333333333333329,0.243333333333333,0.7322222222222221,0.25,1.2589858612693339,-6.921975257221334
1588960441.9027443,0.0308380388993457,-2.027095097248364,-9.455419019449673,-0.4188826148008724,0.23550586079491692,0.7310179956778504,0.25,1.1927377431209107,-6.856844357802276
1588960441.9127443,0.06180182542153473,-2.0892432857587626,-9.46,-0.40666666666666706,0.228888888888889,0.73,0.2227477182230816,1.3590091271076736,-7.218018254215347
1588960441.9227443,0.09907731274876372,-2.124871145418727,-9.490257709162547,-0.40666666666666706,0.228888888888889,0.73,0.20641106822659108,1.5945553411329554,-7.764754955172275
1588960441.9327443,0.08952092988673821,-2.1326706981585666,-9.53561674390939,-0.40666666666666706,0.228888888888889,0.73,0.32619767528315446,2.8030697786810084,-9.136976752831545
1588960441.9427443,0.11145545200925981,-1.9993601234641183,-9.47854454799074,-0.40666666666666706,0.228888888888889,0.73,0.375,4.020467293880216,-10.207967293880216
1588960441.9527442,0.13152294927003466,-1.8832586913139377,-9.421522949270035,-0.40666666666666706,0.23135249565288452,0.7230197808353463,0.44428894023737003,4.400825806112803,-11.142637328011764
1588960441.9627442,0.07886849936233528,-2.01184710216806,-9.415357800765198,-0.40666666666666706,0.23555555555555605,0.7111111111111109,0.5625,3.781613114637948,-12.420030643332861
1588960441.9727442,0.1612759203434731,-1.8991614140860509,-9.643268703754453,-0.40666666666666706,0.23555555555555605,0.7111111111111109,0.4892921576687677,2.580421576687677,-13.579435290490546
1588960441.9827442,0.198013054764485,-1.875960835706545,-9.40811562791401,-0.40666666666666706,0.23555555555555605,0.7111111111111109,0.587453375841125,2.0250116560397187,-14.524778535245344
1588960441.9927442,0.11976389183354857,-2.000188886533161,-9.305684713682709,-0.40666666666666706,0.23555555555555605,0.7111111111111109,0.7188975676040321,3.6012759478056395,-15.816336757704835
1588960442.0027442,0.1176555778135365,-1.8758530097533743,-9.402344422186463,-0.40960836900083564,0.23555555555555605,0.7111111111111109,0.75,5.849383025188007,-16.922847361334604
1588960442.0127442,0.17103801111155523,-1.7520760222231104,-9.376557016667332,-0.412222222222222,0.23555555555555605,0.7111111111111109,0.8879751388944402,5.299205104120868,-17.56693163195971
1588960442.0227442,0.17024291497975708,-1.7797570850202429,-9.4582995951417,-0.412222222222222,0.23555555555555605,0.7111111111111109,0.969509109311741,3.4297823886639676,-18.24089068825911
1588960442.0327442,0.1720521416665106,-1.8502607083325529,-9.513930477777986,-0.412222222222222,0.23555555555555605,0.7111111111111109,1.0379345138875882,1.6842411458430881,-19.05184668402225
1588960442.0427442,0.2010995182809066,-1.9488796146247251,-9.416743179346017,-0.412222222222222,0.23555555555555605,0.7111111111111109,1.1736256021488667,0.27113764512620153,-19.86786717206473
1588960442.0527442,0.24216331524296514,-1.9973065219437212,-9.229226087774885,-0.4153470109065051,0.2341133453935792,0.7094285325888047,1.0979585594629357,-0.668875678388807,-20.72985224456505
1588960442.0627441,0.2930794628400902,-1.9361465443347408,-9.496154798565033,-0.4266666666666671,0.228888888888889,0.703333333333333,1.067311660687641,0.36542826756404956,-22.201960776532587
1588960442.0727441,0.4075902932254803,-1.8466264914054602,-10.119638018200202,-0.4266666666666671,0.228888888888889,0.703333333333333,0.7786147623862487,1.7620475227502528,-23.51204752275025
1588960442.0827441,0.25914459107985743,-5.850278874867547,-11.705809170600133,-0.4266666666666671,0.228888888888889,0.703333333333333,-1.0374873567093728,3.4732052547924095,-24.82385788941335
1588960442.092744,-0.18529525093921573,-14.260966188228494,-14.015549561699258,-0.4266666666666671,0.228888888888889,0.703333333333333,-4.2781945380984485,5.787996098641749,-26.296906608226568
1588960442.102744,5.103177792915531,-18.61068006357856,-12.93667953375719,-0.4313376728226867,0.23394914555791027,0.7076150889763514,4.743221124735089,32.41160971086891,-34.31507814865274
1588960442.112744,-1.5377320691843863,2.2168287845128534,-4.283272373849571,-0.44,0.243333333333333,0.7155555555555559,9.36602715407807,89.70127290939385,-113.53348391383687
1588960442.122744,-11.712590819984811,-9.24282923900182,-14.722596648005227,-0.44,0.243333333333333,0.7155555555555559,23.628569662504635,110.35344736237924,-274.2720802500751
1588960442.132744,-3.5867107872900217,-5.667888686500708,-11.535948593402146,-0.44,0.243333333333333,0.7155555555555559,13.536414693381905,31.37726674762194,-228.332827362882
1588960442.142744,2.227731749839813,1.2710007599576807,-6.367247463082448,-0.44,0.243333333333333,0.7155555555555559,-7.807179364913797,-42.62550850109523,-57.0402237404819
1588960442.152744,3.3857315373896886,1.8115033286886515,-9.930949063322496,-0.44231442775799484,0.24019765701604967,0.7147343069962674,-12.19565722248026,-59.792740749342,36.51012153584146
1588960442.162744,3.1090216308807714,-0.7049065848703342,-9.31752519619169,-0.47444444444444395,0.196666666666667,0.703333333333333,-3.5670861052463847,-45.82742600485997,41.59829004501454
1588960442.172744,3.284277940276172,-2.810504727569553,-9.63549690497245,-0.47444444444444395,0.196666666666667,0.703333333333333,-1.5491718250459152,-21.68086779810897,26.474249200734643
1588960442.182744,1.9084715374271628,-3.750793793088728,-9.756706153550617,-0.47444444444444395,0.196666666666667,0.703333333333333,-0.5799022432818937,1.9263182749567775,4.44427546904015
1588960442.192744,0.7834915793915679,-1.5065299037096713,-9.380569685809643,-0.47444444444444395,0.196666666666667,0.703333333333333,-0.043644742394598535,5.854498743622204,-7.031317134691372
1588960442.202744,0.7194684590021377,-1.183657016558571,-9.300708721330484,-0.4676596575560303,0.1918607759540405,0.7053122295091204,0.23188340157252074,0.993355737526722,-3.6357635240407262
1588960442.212744,0.6454833566838978,-2.1890332866322044,-9.476772307840958,-0.447777777777778,0.17777777777777803,0.7111111111111109,-0.026215034542731525,-0.028229020725638918,-0.058472027634185214
1588960442.222744,0.6555877970197342,-2.137938985098671,-9.547648811921063,-0.447777777777778,0.17777777777777803,0.7111111111111109,-0.012881343133306494,0.03492373137333871,0.11765253725332259
1588960442.232744,0.65,-2.127764150057883,-9.556676887456588,-0.447777777777778,0.17777777777777803,0.7111111111111109,-0.21525648446544227,-0.05551296893088452,0.07647406213823096
1588960442.242744,0.6358608858390518,-2.135860885839052,-9.497582657517155,-0.447777777777778,0.17777777777777803,0.7111111111111109,-0.1321740486587648,-0.007174048658764823,-0.0919564878353088
1588960442.252744,0.625798274951593,-2.12,-9.444201725048407,-0.44971053609497547,0.17552289307438068,0.7111111111111109,0.0,0.10688039077627179,-0.07064117232881535
1588960442.262744,0.64,-2.12,-9.44112536512197,-0.45444444444444393,0.17,0.7111111111111109,0.027813412804926187,0.0625,0.03468658719507381
1588960442.272744,0.6435148201984453,-2.130544460595336,-9.5186630221829,-0.45444444444444393,0.17,0.7111111111111109,0.125,0.10643525248056626,-0.01856474751943373
1588960442.282744,0.65,-2.1493123275068995,-9.587593146274148,-0.45444444444444393,0.17,0.7111111111111109,0.11640409383624654,0.17675511729530818,0.0625
1588960442.292744,0.6473391362358435,-2.1193565449433738,-9.498713089886747,-0.45444444444444393,0.17,0.7111111111111109,-0.07510880442206586,-0.09173920294804391,0.07913039852597804
1588960442.302744,0.6406769699953937,-2.0927078799815746,-9.445415759963149,-0.45444444444444393,0.17,0.7111111111111109,0.04980681258636849,-0.008462124942421032,0.12076893752878948
1588960442.312744,0.6360171774667288,-2.1319914112666356,-9.478008588733365,-0.46222222222222203,0.17777777777777803,0.68,0.012177922498835259,-0.05005367958352746,0.07494632041647253
1588960442.322744,0.6209469667165001,-2.1390530332835,-9.4747348335825,-0.46222222222222203,0.17777777777777803,0.68,0.29474437406562276,0.0,0.11316291604374852
1588960442.332744,0.6343611066319597,-2.1125555734721613,-9.506916680104121,-0.46222222222222203,0.17777777777777803,0.68,0.04322925065075671,0.027256916449747762,0.054513832899495525
1588960442.3427439,0.6470571595983271,-2.1076428989958176,-9.493528579799163,-0.46222222222222203,0.17777777777777803,0.68,-0.08455362374477199,0.0625,0.08089275251045602
1588960442.3527439,0.6537466885328624,-2.1379155628442876,-9.489577814221438,-0.46060099332333443,0.17615654887889046,0.6848636866966625,-0.05986133888398301,0.0625,-0.013027732223203399
1588960442.3627439,0.632663152999535,-2.1313315764997673,-9.461984188497906,-0.45444444444444393,0.17,0.703333333333333,0.17085529375290653,0.07082235312354673,-0.05417764687645326
1588960442.3727438,0.6471819262782402,-2.1343638525564805,-9.54281807372176,-0.45444444444444393,0.17,0.703333333333333,0.09772592152199762,0.125,0.0
1588960442.3827438,0.64,-2.121854181978539,-9.548145818021462,-0.45444444444444393,0.17,0.703333333333333,0.117968175804792,0.101822725268264,-0.011588637365868
1588960442.3927438,0.64,-2.1328329485750674,-9.525835257124662,-0.45444444444444393,0.17,0.703333333333333,-0.13438221421748128,0.0,-0.02708814281165419
1588960442.4027438,0.6411781769053485,-2.14,-9.49,-0.45444444444444393,0.1709163598152711,0.703333333333333,0.0,0.0,0.04040918302471588
1588960442.4127438,0.649511444011762,-2.14,-9.49,-0.45444444444444393,0.17739778978692616,0.703333333333333,0.0,0.0,-0.11583957522053565
1588960442.4227438,0.6380294311684503,-2.099852844157748,-9.471676257147045,-0.45444444444444393,0.17777777777777803,0.703333333333333,0.11268394480281484,-0.0625,0.012316055197185163
1588960442.4327438,0.6303430582026096,-2.1382847089869523,-9.556226359771294,-0.45444444444444393,0.17777777777777803,0.703333333333333,0.06464411376630994,-0.0625,0.06035588623369007
1588960442.4427438,0.6571975798827756,-2.118407260351673,-9.52439515976555,-0.45444444444444393,0.17777777777777803,0.703333333333333,0.03742437133673662,-0.11743949706938929,0.10748487426734732
1588960442.4527438,0.6512921404514989,-2.1387078595485014,-9.506123578645504,-0.4570287253474417,0.17677277964883442,0.7021847640431118,-0.15519648871252792,0.0625,0.07057587782186801
1588960442.4627438,0.6569712219203245,-2.1269712219203245,-9.470913665760973,-0.47444444444444395,0.17,0.694444444444444,0.04357013700202824,0.0625,0.10607013700202825
1588960442.4727437,0.646736168700391,-2.12,-9.469582987797654,-0.47444444444444395,0.17,0.694444444444444,0.010199472811278285,0.0625,0.0625
1588960442.4827437,0.6333167765070751,-2.123316776507075,-9.5567328939717,-0.47444444444444395,0.17,0.694444444444444,0.0625,0.08322985316921884,0.04177014683078116
1588960442.4927437,0.64,-2.13,-9.515734438020305,-0.47444444444444395,0.17,0.694444444444444,-0.008827809898472122,0.125,0.03566390494923606
1588960442.5027437,0.6412128104628257,-2.13,-9.476361568611523,-0.47026698618359997,0.17256037764374313,0.6937706608539853,-0.1875,0.11741993460733942,0.09467973842935765
1588960442.5127437,0.6497307122113686,-2.13,-9.450807863365894,-0.44092754682750823,0.19054261466844466,0.6890384932159066,-0.1875,0.0641830486789464,-0.11826780528421438
1588960442.5227437,0.6462697751873439,-2.124179850124896,-9.518359700249793,-0.44,0.191111111111111,0.6888888888888891,0.0886240632805995,0.0,0.0
1588960442.5327437,0.6710297254524187,-2.1389702745475816,-9.552059450904839,-0.44,0.191111111111111,0.6888888888888891,0.16819264776715062,0.006435784077616459,0.0
1588960442.5427437,0.674124724654314,-2.1270623623271567,-9.537685985598728,-0.44,0.191111111111111,0.6888888888888891,-0.01836023545526905,0.0257795290894619,0.0
1588960442.5527437,0.66,-2.1188295243977766,-9.461170475602225,-0.44260105689383017,0.18864010706197232,0.6922702628508683,-0.06981547251389747,-0.0625,-0.014630945027794934
1588960442.5627437,0.6569880904046556,-2.1130119095953446,-9.47,-0.46222222222222203,0.17,0.717777777777778,-0.06852669508729192,-0.08132443497090269,-0.030877825145486537
1588960442.5727437,0.65,-2.121906302170284,-9.490969323873122,-0.46222222222222203,0.17,0.717777777777778,0.0625,-0.10117122287145242,0.16367122287145242
1588960442.5827436,0.65,-2.1292002295492485,-9.571202525041736,-0.46222222222222203,0.17,0.717777777777778,0.0625,-0.009997130634390644,0.07249713063439064
1588960442.5927436,0.6451001556824079,-2.131700051894136,-9.516599896211728,-0.46222222222222203,0.17,0.717777777777778,0.10374935132330046,0.0625,-0.07187337830825116
1588960442.6027436,0.6637566906368152,-2.1379188968789387,-9.504162206242123,-0.46222222222222203,0.17,0.717777777777778,0.026013789013270075,0.0625,0.12246552746682485
