time,acc_x,acc_y,acc_z,mag_x,mag_y,mag_z,gyr_x,gyr_y,gyr_z
1588959946.4812536,-2.63,-2.36,-8.86,-0.26666666666666666,0.03666666666666667,0.8244444444444444,-12.9375,-32.1875,5.9375
1588959946.4912536,-2.3131561822125812,-2.1821095444685468,-8.937890455531454,-0.2311111111111111,0.024444444444444446,0.84,-12.539452277657267,-31.615136930585685,-0.31521149674620386
1588959946.5012536,-2.3300378282153984,-2.139997774810859,-8.979995549621718,-0.2311111111111111,0.024444444444444446,0.84,-12.749874833110814,-31.562319203382287,-6.001154316866934
1588959946.5112536,-2.4622568980863373,-2.1322201824655096,-8.96444036493102,-0.2311111111111111,0.024444444444444446,0.84,-12.312385263684913,-30.930389825322653,-10.03578034601691
1588959946.5212536,-2.4730043829296426,-2.18,-8.852002921953094,-0.2311111111111111,0.024444444444444446,0.84,-9.85291041906959,-28.59968954248366,-12.937408688965782
1588959946.5312536,-2.5117061130334486,-2.18,-8.877804075355632,-0.2311111111111111,0.024444444444444446,0.84,-7.958138216070742,-25.85831699346405,-12.131122645136486
1588959946.5412536,-2.5885234840132303,-2.023937375964719,-8.997293054024256,-0.20076560088202866,0.017941835109641063,0.84,-5.172679162072767,-18.10053197353914,-7.299776736493936
1588959946.5512536,-2.607165432713246,-1.8569283892241648,-9.128740745349344,-0.2,0.017777777777777778,0.84,-5.071358022771107,-10.48126516518385,-0.5358948236172463
1588959946.5612535,-2.704937740340597,-1.6229529848013184,-9.266203305255447,-0.2,0.017777777777777778,0.84,-5.145314502838308,1.7686306880607947,11.236991565189525
1588959946.5712535,-2.5899342781776724,-1.6899780927258907,-9.179934278177672,-0.2,0.017777777777777778,0.84,-4.185309272589082,12.145674989940538,20.891704296508248
1588959946.5812535,-2.561806008852327,-1.6806020029507756,-9.151806008852327,-0.2,0.017777777777777778,0.84,-3.2477002950775695,20.994359715205437,28.040972750033532
1588959946.5912535,-2.3701221012346805,-2.0038534785183835,-9.117018315185202,-0.16666666666666666,0.01,0.8566666666666667,-3.1257631327167523,31.23844622761857,32.075305253086704
1588959946.6012535,-2.1777199814557253,-2.2233490959666207,-9.098930922577654,-0.16666666666666666,0.01,0.8566666666666667,-1.7871928604543348,39.44276193787668,31.39823829392675
1588959946.6112535,-1.969068055306159,-2.2734763871431136,-9.25994074340097,-0.16666666666666666,0.01,0.8566666666666667,1.8882205063745736,46.06138893876818,27.39746812713234
1588959946.6212535,-1.9771298292813198,-2.0122424877846132,-9.576600858538901,-0.16666666666666666,0.01,0.8566666666666667,4.26547076220055,52.28755365868133,22.043723170659334
1588959946.6312535,-2.3505022650392675,-1.431440921050029,-9.642978180451426,-0.16666666666666666,0.01,0.8566666666666667,4.4210426104330285,56.43613627821408,19.96943186089296
1588959946.6412535,-2.7365499662182913,-1.1370419507401264,-9.730422578465697,-0.2,0.01,0.8577777777777778,4.082742153430379,62.052388520361156,22.280825809225476
1588959946.6512535,-3.0027565874332045,-1.0168196056753271,-9.747597199189238,-0.2,0.01,0.8577777777777778,2.3652800810761008,66.72173852957435,28.613967201031876
1588959946.6612535,-3.1129852759357086,-1.024328425311903,-9.71756209958413,-0.2,0.01,0.8577777777777778,0.30036810160728344,72.64615881757896,38.67384371136338
1588959946.6712534,-2.647416640241969,-1.5698390126106787,-9.636385589189452,-0.2,0.01,0.8577777777777778,-0.840695660658097,81.54316779276533,51.13896596092397
1588959946.6812534,-2.1871359930615784,-1.9053068516912401,-9.608038508239375,-0.2,0.01,0.8577777777777778,-0.9252406764960971,90.53903404163053,58.70803230702515
1588959946.6912534,-1.7946529701723455,-2.2391181232684487,-9.545966250494729,-0.22701687475263554,0.01,0.8397665279426874,1.2356933400496528,104.93562003022343,63.51641600402979
1588959946.7012534,-1.445538300471122,-2.5597818879776653,-9.373194904903158,-0.24,0.01,0.8311111111111111,8.154117954981679,118.19660617693248,61.45218984470424
1588959946.7112534,-1.3548386759945705,-2.4468549650203615,-9.338629006995927,-0.24,0.01,0.8311111111111111,23.505286102119662,130.9765584212175,53.30166675368069
1588959946.7212534,-1.5487839575466886,-2.047330748035514,-9.417043984080008,-0.24,0.01,0.8311111111111111,35.62416445555669,137.65456551688948,46.954492805388305
1588959946.7312534,-1.8313923310406282,-1.6840085210659685,-9.448199715964467,-0.24,0.01,0.8311111111111111,42.809861532678006,143.0536204087884,44.18503905488569
1588959946.7412534,-2.028168963665652,-1.5029980311437265,-9.61933595847503,-0.2807660640773223,0.024111329872919272,0.8264073344868047,45.363220422409164,144.31597905852874,45.52502461070342
1588959946.7512534,-2.088808596347882,-1.4228593687650826,-9.547378911965342,-0.2977777777777777,0.03,0.8244444444444444,43.87937038022308,135.04592343283866,51.07302216542839
1588959946.7612534,-2.048959279457313,-1.5184977293024493,-9.459710414806088,-0.2977777777777777,0.03,0.8244444444444444,39.84462704505292,126.12963877857374,55.605881961730674
1588959946.7712533,-1.108969687065937,-1.9149636408203283,-9.231470708391209,-0.2977777777777777,0.03,0.8244444444444444,33.92186861671705,113.68541649644578,60.46323229021979
1588959946.7812533,-0.5949203366288096,-2.146285848517036,-9.300010621782826,-0.2977777777777777,0.03,0.8244444444444444,30.2806857177874,104.85019328580766,58.74973445542936
1588959946.7912533,-0.2505940015038013,-2.3097139992759477,-9.20024200061266,-0.4097531104860743,0.07767266640056192,0.7601417781367098,25.94588752123423,93.39741255674065,50.39287504525328
1588959946.8012533,-0.04535567788144779,-2.301102420777454,-9.146614524664725,-0.41,0.07777777777777778,0.76,24.10237428534994,83.7544924656224,40.420833244776944
1588959946.8112533,0.15214825538075064,-2.073077299725374,-9.335623017478126,-0.41,0.07777777777777778,0.76,22.994696421348433,73.95508723096246,30.72680449407106
1588959946.8212533,0.15995135774697264,-1.9400432375582466,-9.429983785915658,-0.41,0.07777777777777778,0.76,20.497770563402913,59.86942640850728,18.621182934311047
1588959946.8312533,0.10481076264625543,-1.9890570998699952,-9.411603587548752,-0.41,0.07777777777777778,0.76,17.970493287953374,53.551233219883436,14.294177902101989
1588959946.8412533,0.04261069783917818,-2.1021679064824657,-9.358916046758766,-0.45184476719014444,0.09147242885818868,0.7455445349706774,13.464886645412681,43.82786486007793,9.037548707049238
1588959946.8512533,0.10735651014911281,-2.1786782550745567,-9.310991308694083,-0.4711111111111111,0.09777777777777777,0.7388888888888889,9.828478604948213,35.74837038014051,6.8476088495820955
1588959946.8612533,0.19278923311325546,-2.237952463179279,-9.301721076688676,-0.4711111111111111,0.09777777777777777,0.7388888888888889,9.18082402234637,31.630011427120365,7.4851625190452005
1588959946.8712533,0.24803882943460556,-2.2880388294346057,-9.192223316601952,-0.4711111111111111,0.09777777777777777,0.7388888888888889,9.339866464627333,27.761468889099348,8.457099393881997
1588959946.8812532,0.6081339058524173,-2.3171943384223916,-9.058056615776081,-0.4711111111111111,0.09777777777777777,0.7388888888888889,9.859716921119594,22.133043097964375,8.9375
1588959946.8912532,0.9256076211087708,-2.403203416359104,-9.004398948812582,-0.4789336545294884,0.11342286461453241,0.7196881004983264,9.879995072558984,16.904847249328515,6.777411306061719
1588959946.9012532,1.3072764728369368,-2.568832774072973,-9.049416387036487,-0.4833333333333333,0.12222222222222222,0.7088888888888889,9.564931720681306,8.437616807543643,-0.007786284670602939
1588959946.9112532,1.4091756814129235,-2.57,-9.170427613144264,-0.4833333333333333,0.12222222222222222,0.7088888888888889,9.208301137810988,3.991789080410971,-5.109833786193428
1588959946.9212532,1.2166013416748322,-2.4859764830029394,-9.098632697670913,-0.4833333333333333,0.12222222222222222,0.7088888888888889,8.187255031280621,-1.3134798748775158,-11.913822831084646
1588959946.9312532,1.080373340213961,-2.4161991147807793,-9.161775995871624,-0.4833333333333333,0.12222222222222222,0.7088888888888889,7.626555584224838,-2.7587665978603892,-12.00077779211242
1588959946.9412532,0.89,-2.29,-9.4,-0.5022222222222222,0.1288888888888889,0.7066666666666667,6.25,-0.9375,-6.125
1588959946.9512532,0.8868566615740197,-2.2734974732636033,-9.417288361342893,-0.5022222222222222,0.1288888888888889,0.7066666666666667,5.945489089983155,-0.43161897206878996,-5.383368590120265
1588959946.9612532,0.9231515552614162,-2.092191925876903,-9.632191925876903,-0.5022222222222222,0.1288888888888889,0.7066666666666667,-0.36818332230311057,10.224371277299802,9.370363170086037
1588959946.9712532,1.0650908875832972,-2.076227278104176,-9.604340917156264,-0.5022222222222222,0.1288888888888889,0.7066666666666667,-3.982243898111273,16.073010725129137,17.633095599542607
1588959946.9812531,1.1502088417229441,-2.0559582316554113,-9.620417683445888,-0.5022222222222222,0.1288888888888889,0.7066666666666667,-6.740402077067136,18.202088417229444,22.064879972759776
1588959946.9912531,1.2303826366559485,-2.2095450160771706,-9.638014469453376,-0.5078202929617721,0.1321544301536263,0.7048006430868167,-10.95805365755627,18.21134947749196,24.08253617363344
1588959947.0012531,1.1841552113099714,-2.5954925552714694,-9.58,-0.5155555555555555,0.13666666666666666,0.7022222222222222,-16.904701834862387,17.036753647164986,21.19652955331629
1588959947.011253,1.1028731461028716,-2.844225702114232,-9.587140856737141,-0.5155555555555555,0.13666666666666666,0.7022222222222222,-18.276585673714106,17.23204283685705,17.902548368964972
1588959947.021253,0.7806668397818748,-2.965634900025967,-9.52585717995326,-0.5155555555555555,0.13666666666666666,0.7022222222222222,-15.310815372630486,20.76031550246689,13.605358997662945
1588959947.031253,0.3880770300333704,-2.6150507508342606,-9.550091073414906,-0.5155555555555555,0.13666666666666666,0.7022222222222222,-8.454202586206897,23.779794389599555,10.657705610400445
1588959947.041253,0.18721419776010007,-2.197441705920294,-9.651187576959913,-0.5226433598933257,0.13666666666666666,0.7131761016533216,-2.299354514004261,24.365011092000078,10.978600257998945
1588959947.051253,0.07151155898043865,-1.8222090495949417,-9.815058288875717,-0.5277777777777778,0.13666666666666666,0.7211111111111111,2.683869294605809,23.605376901798063,14.364466014621616
1588959947.061253,0.18630216758330637,-1.8747266256874797,-9.941041734066644,-0.5277777777777778,0.13666666666666666,0.7211111111111111,2.082356033646069,21.81925347783889,16.184082821093497
1588959947.071253,0.3385515300738656,-2.0585388673935983,-9.892884277172001,-0.5277777777777778,0.13666666666666666,0.7211111111111111,-1.240393070699965,17.75079141751671,16.339421385860007
1588959947.081253,0.38362848621634693,-2.1781424310817346,-9.788671812026438,-0.5277777777777778,0.13666666666666666,0.7211111111111111,-4.527129010156376,12.752166290504594,13.995549028695793
1588959947.091253,0.24804907661831427,-2.276800434532558,-9.492798261869767,-0.537983399720252,0.14687228860914078,0.6988442996002584,-7.180323023835389,7.033724199629369,9.816541791807783
1588959947.101253,0.22837809517301078,-2.1978409530968817,-9.364597143442902,-0.54,0.14888888888888888,0.6944444444444444,-7.918904758650538,1.8515000341693426,6.988250017084671
1588959947.111253,0.23846142631515005,-2.2138457052606,-9.603842789454502,-0.54,0.14888888888888888,0.6944444444444444,-7.894232171060624,-5.028766249544405,5.39905388166687
1588959947.121253,0.19409601502651738,-2.22,-9.440153211549793,-0.54,0.14888888888888888,0.6944444444444444,-9.514428034767237,-12.805669241676489,3.875957572186211
1588959947.131253,0.37893904953216684,-2.1401115398847597,-9.385307395464396,-0.54,0.14888888888888888,0.6944444444444444,-14.369423005762012,-25.223135935930642,1.1518805836020514
1588959947.141253,0.5555892154902353,-2.1355892154902354,-9.319703725921483,-0.5460785620653646,0.1549674509542536,0.6883658823790798,-25.650923981870292,-41.63993867893088,-5.367759781377058
1588959947.151253,0.47871953738124745,-2.14,-9.202857572002554,-0.5466666666666666,0.15555555555555556,0.6877777777777778,-30.3792948068041,-46.72843209042094,-8.484287578386091
1588959947.161253,0.24190492578062267,-2.1284594030330144,-9.02,-0.5466666666666666,0.15555555555555556,0.6877777777777778,-41.796560614403376,-60.2608432560167,-15.353812489962603
1588959947.171253,0.00969015003261578,-1.9109001956947163,-9.02,-0.5466666666666666,0.15555555555555556,0.6877777777777778,-50.84493232224396,-73.66324200913242,-16.907187703848663
1588959947.181253,-0.2497994718600429,-1.8069103812510316,-8.830200528139958,-0.5466666666666666,0.15555555555555556,0.6877777777777778,-58.894898085492656,-85.80144206964846,-15.012677422016834
1588959947.191253,-0.7802223189473332,-1.7578213412796733,-7.591176214551177,-0.5241713820158257,0.1396213955945432,0.7130849730099739,-70.15256177386414,-106.48878360732581,-7.419361251548532
1588959947.201253,-0.9782255540517679,-2.924373836914228,-7.2460110387413295,-0.52,0.13666666666666666,0.7177777777777777,-59.2245561770428,-101.07642927381154,8.787736846557266
1588959947.211253,-1.8180156099472593,-1.7282288588083536,-12.506411998105907,-0.52,0.13666666666666666,0.7177777777777777,28.0543633558121,-35.89805875773558,29.982831711379262
1588959947.221253,-1.334694240793321,-1.3673305928719752,-12.420620841632411,-0.52,0.13666666666666666,0.7177777777777777,93.88857164046277,2.6459931347205163,58.15688964698903
1588959947.231253,-0.7733196881492606,-2.0497525353300556,-9.419711599777838,-0.52,0.13666666666666666,0.7177777777777777,82.65167496348714,-29.1143071297801,68.14110808837142
1588959947.241253,-0.8695812699805681,-2.46317244405441,-7.456054033724065,-0.47599211572884237,0.1104311971973227,0.7499373855143929,87.4774572180781,-37.54468595248542,62.3557755594559
1588959947.251253,1.5324746689183182,1.475053328593014,-12.263986090125321,-0.4622222222222222,0.10222222222222224,0.76,96.8802106479424,-41.696615856368325,56.3955065105324
1588959947.2612529,0.9661311582686734,-1.48979620454333,-13.544850425352902,-0.4622222222222222,0.10222222222222224,0.76,59.04503599139946,-20.932957254370383,53.78325114518089
1588959947.2712529,1.0294665974323622,-2.0473550108327814,-11.282972658418235,-0.4622222222222222,0.10222222222222224,0.76,23.134514494440367,12.696368780103494,47.18219775645043
1588959947.2812529,1.7549500907441016,-1.569934664246824,-9.999916515426497,-0.4622222222222222,0.10222222222222224,0.76,-0.3739337568058083,22.65830875680581,37.34460639745917
1588959947.2912529,6.1971382073109655,-1.9856678768152227,-10.316854031046569,-0.44631711456073,0.17202797251432705,0.7379095726923719,-4.162454619429144,8.081775006259388,26.21325347396094
1588959947.3012528,6.837820083094153,-1.9858559299921723,-10.283928908335508,-0.44222222222222224,0.19,0.7322222222222222,-3.114241916383999,5.987838197218152,23.005670072055075
1588959947.3112528,2.2076994560745034,-1.8343247094715291,-10.326020914035686,-0.44222222222222224,0.19,0.7322222222222222,2.3577188246392238,-7.534218633964231,6.32671281335929
1588959947.3212528,-1.4896259235943143,-1.7904824227162783,-9.331278618998708,-0.44222222222222224,0.19,0.7322222222222222,8.197375832477388,-33.15998061694444,-1.1680486067393394
1588959947.3312528,-2.7704721615720524,-2.700017285298399,-9.458538937409024,-0.44222222222222224,0.19,0.7322222222222222,9.013288073144105,-33.39446870451237,-1.3812886644832605
1588959947.3412528,-2.821123595505618,-3.391573033707865,-9.048651685393258,-0.4451560549313358,0.19352059925093631,0.743370786516854,5.073033707865168,-21.467696629213485,5.121488764044943
1588959947.3512528,-2.2289004424225762,-3.558525258079836,-8.721849926262903,-0.4477777777777778,0.19666666666666666,0.7533333333333333,0.9661496738070838,-7.359235571275027,18.40768959182143
1588959947.3612528,-2.377193247227292,-3.285137056015724,-8.908596623613645,-0.4477777777777778,0.19666666666666666,0.7533333333333333,-1.9741352835883759,6.280679664467218,30.213650980977118
1588959947.3712528,-3.0888372093023255,-2.7842732558139534,-9.276860465116279,-0.4477777777777778,0.19666666666666666,0.7533333333333333,-5.952398255813954,24.19985465116279,43.493095930232556
1588959947.3812528,-2.6708566391919577,-2.133584258421078,-9.576199437800753,-0.4477777777777778,0.19666666666666666,0.7533333333333333,-12.565379484491878,49.75510981942922,68.56408118538282
1588959947.3912528,-1.0610790541057626,-1.9422024948343155,-9.605595010331369,-0.44345199527222945,0.19666666666666666,0.7525917706180965,-17.375693540981096,66.9955445970766,87.79365481747915
1588959947.4012527,-0.2847475517110011,-1.5735105214799543,-9.789338009546647,-0.4088888888888889,0.19666666666666666,0.7466666666666667,-22.139073459874954,84.64914533984717,101.54829067969433
1588959947.4112527,0.2869775092312856,-1.6260449815374287,-9.897618663981202,-0.4088888888888889,0.19666666666666666,0.7466666666666667,-9.868936723732796,68.20188821752265,90.05125881168178
1588959947.4212527,0.19581294359357493,-2.1374388307807246,-10.21530070974972,-0.4088888888888889,0.19666666666666666,0.7466666666666667,-0.817859602633545,40.78131420433321,67.83581055052298
1588959947.4312527,0.17753139147518582,-2.1583821645169556,-9.885230204151362,-0.4088888888888889,0.19666666666666666,0.7466666666666667,-1.4010634663022123,27.092487400700435,48.71051507644999
1588959947.4412527,0.08980517735578647,-2.1803117162307415,-9.710389645288426,-0.43175541920458615,0.20949423245352122,0.732165940125005,-1.029910594321032,19.237823584736653,29.365459008867788
1588959947.4512527,-0.13235479738807135,-2.1738226013059645,-9.58224544630862,-0.4544444444444444,0.2222222222222222,0.7177777777777777,-0.03347509919705072,14.009037085637516,9.050182381978942
1588959947.4612527,-0.4007077351062074,-2.189872928307047,-9.614682320767617,-0.4544444444444444,0.2222222222222222,0.7177777777777777,1.772458566140934,15.700770033241389,-0.8806698965037607
1588959947.4712527,-0.552040414459187,-2.1584696891556097,-9.587449481926015,-0.4544444444444444,0.2222222222222222,0.7177777777777777,2.5031881475924798,21.913878991045056,-4.123716536171409
1588959947.4812527,-0.4191386737356584,-2.1182164602576314,-9.598917698711842,-0.4544444444444444,0.2222222222222222,0.7177777777777777,2.2679115064407904,31.14715316033633,-3.95441095762747
1588959947.4912527,0.055632116666318454,-2.1284743956709775,-9.630762802164512,-0.4513653784992815,0.23094624240018385,0.7177777777777777,2.668691107953952,39.03095553976976,-1.4939266761381444
1588959947.5012527,0.5562306486994673,-2.236230648699467,-9.523624569100594,-0.4477777777777778,0.2411111111111111,0.7177777777777777,3.406702444374804,37.45840645565654,2.0833124412409902
1588959947.5112526,0.4649692686632444,-2.259644575401119,-9.490355424598881,-0.4477777777777778,0.2411111111111111,0.7177777777777777,1.3627822794134574,17.712920973274095,2.0665586657765704
1588959947.5212526,-0.09908438379228601,-2.351439331841645,-9.765495469549613,-0.4477777777777778,0.2411111111111111,0.7177777777777777,-2.190655530694078,-3.1928806021400558,-0.14147272868251415
1588959947.5312526,-0.3219867712307012,-2.4564758755054927,-9.79084202426366,-0.4477777777777778,0.2411111111111111,0.7177777777777777,-3.7136648848212968,-14.375768471978912,-0.5928039915519245
1588959947.5412526,-0.023246447327772632,-2.4315492740191536,-9.479077463700959,-0.45023787457522396,0.24049608691174956,0.7164452253458278,-3.135607333178869,-17.574251332252086,0.7248682228915663
1588959947.5512526,0.22596955859969559,-2.1693249619482495,-9.434923896499239,-0.4744444444444445,0.2344444444444445,0.7033333333333334,-2.076935882800609,-14.109612823439878,1.8413717656012176
1588959947.5612526,0.05245068717510504,-1.9754568112226734,-9.395055543687246,-0.4744444444444445,0.2344444444444445,0.7033333333333334,-0.8189044363739941,-15.460879085665455,-1.3184794025493127
1588959947.5712526,-0.25707003869231204,-1.8843099871025626,-9.472154993551282,-0.4744444444444445,0.2344444444444445,0.7033333333333334,-0.41540612908652497,-17.70313580627675,-4.325968709695508
1588959947.5812526,-0.12909214332093738,-1.9976577533793756,-9.522855203352814,-0.4744444444444445,0.2344444444444445,0.7033333333333334,-0.712664541644531,-14.552882061271472,-3.5041135411132753
1588959947.5912526,-0.10504960044089282,-2.1585289139078063,-9.66799177262528,-0.4649017395145806,0.2344444444444445,0.7136712636740192,-0.6026342853206315,-8.256094260520412,-1.1783057119237885
1588959947.6012526,-0.17612370772735236,-2.123265463465919,-9.750814438408971,-0.4477777777777778,0.2344444444444445,0.7322222222222222,-0.5012725600140179,-5.238498773436131,-0.8558634133520239
1588959947.6112525,-0.263145190694961,-2.1520967937966407,-9.68104839689832,-0.4477777777777778,0.2344444444444445,0.7322222222222222,-0.20236879846374486,-2.5861879846374487,-0.4458163178492428
1588959947.6212525,-0.2848314113124657,-2.1596628226249313,-9.648651290499725,-0.4477777777777778,0.2344444444444445,0.7322222222222222,0.29284047226798465,1.5583127402526085,0.1376441515650741
1588959947.6312525,-0.22998203017259394,-2.15,-9.580822850934013,-0.4477777777777778,0.2344444444444445,0.7322222222222222,0.442642818337582,6.261184128045468,0.838663337373062
1588959947.6412525,-0.05223094913952596,-2.154898593220931,-9.456723915244178,-0.4477777777777778,0.2344444444444445,0.720792171373384,0.06503516947673404,11.60744798757287,1.8329755297238803
1588959947.6512525,0.0712990449414975,-2.3012380617687187,-9.155318146111547,-0.4477777777777778,0.2344444444444445,0.7088888888888889,0.25528563897961715,14.945237886054493,2.7634046698639767
1588959947.6612525,0.2838560506195624,-2.2226728183495914,-9.480356446084894,-0.4477777777777778,0.2344444444444445,0.7088888888888889,1.1198325863432639,10.941820458739784,1.8228348273134722
1588959947.6712525,-0.0041441182114757,-2.332925542122433,-9.897926741508348,-0.4477777777777778,0.2344444444444445,0.7088888888888889,0.42988389944348504,-0.307128250335829,-2.8101956798119363
1588959947.6812525,0.0169143308647266,-2.5740347658394827,-9.80889247499029,-0.4477777777777778,0.2344444444444445,0.7088888888888889,0.04628135420712187,2.797166068487096,-5.62915321878641
1588959947.6912525,0.5617672188667622,-2.6807585274068915,-9.640381272515434,-0.4477777777777778,0.2344444444444445,0.7088888888888889,0.7484113645190233,16.3131687669912,-6.261070228067121
1588959947.7012525,0.810327193845783,-2.699610942615542,-9.567480065077229,-0.4688888888888889,0.2488888888888889,0.7177777777777777,2.3455457750015065,24.333997830759035,-20.966730773093378
1588959947.7112525,0.48118811881188117,-2.844158415841584,-9.831683168316832,-0.4688888888888889,0.2488888888888889,0.7177777777777777,3.7283415841584158,15.307549504950495,-36.00185643564357
1588959947.7212524,0.43620497002851655,-2.997336902752721,-9.493541872781238,-0.4688888888888889,0.2488888888888889,0.7177777777777777,5.495922568818018,18.19881932724204,-52.12300675085841
1588959947.7312524,0.18521451420686197,-2.9769685755503983,-9.349904660352506,-0.4688888888888889,0.2488888888888889,0.7177777777777777,6.759473201405005,20.21061751238788,-63.97771553346296
1588959947.7412524,0.002944293123390916,-2.5082634976306855,-9.515847916122532,-0.4723880535137578,0.24666214776397233,0.7117337661530042,7.946828010148875,16.98940104846834,-79.4972808850416
1588959947.7512524,0.11,-2.127235924731989,-9.682764075268011,-0.4811111111111111,0.2411111111111111,0.6966666666666667,8.506601881700277,14.756107560536773,-88.08378860859135
1588959947.7612524,0.10624623672951988,-2.0912311836475994,-9.748798922516242,-0.4811111111111111,0.2411111111111111,0.6966666666666667,8.9609610204405,12.780403264141974,-95.51708326731105
1588959947.7712524,0.22330568720379146,-2.0071547054840893,-9.812384901828029,-0.4811111111111111,0.2411111111111111,0.6966666666666667,8.933943381855112,10.890584800270819,-96.8145374915369
1588959947.7812524,0.4950505609100964,-2.0406466266392798,-9.707919102543846,-0.4811111111111111,0.2411111111111111,0.6966666666666667,8.75618679886238,11.098107422183599,-90.9207023226418
1588959947.7912524,0.6161449411134904,-2.285043495717345,-9.544405781584583,-0.4905603884130383,0.22011271710682845,0.6998164257673091,8.510326050588866,13.884420586857601,-83.38568781785332
1588959947.8012524,0.69,-2.38,-9.46,-0.5011111111111111,0.19666666666666666,0.7033333333333334,8.3125,15.5,-80.1875
1588959947.8112524,0.6655255334961249,-2.7715914640620025,-9.4991591464062,-0.5011111111111111,0.19666666666666666,0.7033333333333334,8.037162251831404,14.582207506104682,-80.21809308312984
1588959947.8212523,0.5171004537696182,-3.2272690562424544,-9.577815244993962,-0.5011111111111111,0.19666666666666666,0.7033333333333334,7.45456839848466,12.3251009533325,-80.60451792181841
1588959947.8312523,0.31796520057999034,-3.2106669888835184,-9.62,-0.5011111111111111,0.19666666666666666,0.7033333333333334,7.147806911551474,10.646930884485258,-80.77193088448526
1588959947.8412523,0.5269007000041916,-2.9916515068952507,-9.655514733621159,-0.5062713715517924,0.19089931676237581,0.6975659834290425,7.085053653015886,10.301223173492057,-78.94075114222241
1588959947.8512523,1.37,-2.693733191319398,-9.759671148981493,-0.52,0.17555555555555555,0.6822222222222222,6.827611170283584,10.664167554253762,-74.5507755292238
1588959947.8612523,1.2109589557869322,-2.377584125547005,-9.833374830239928,-0.52,0.17555555555555555,0.6822222222222222,7.326821148332579,12.850949084553092,-74.91874151199637
1588959947.8712523,0.9717244978702628,-1.9875145209354008,-9.858439315116925,-0.52,0.17555555555555555,0.6822222222222222,8.216762841557655,15.515534244153745,-77.9911485428557
1588959947.8812523,0.7344262543580415,-1.6516962255570713,-9.791696225557072,-0.52,0.17555555555555555,0.6822222222222222,8.85642147946036,17.430129225405487,-78.98818591784145
1588959947.8912523,0.03804309291479513,-1.4598998399504362,-9.484922986903472,-0.5290900503477302,0.1696593066813522,0.680256805930821,7.918336000826062,17.00187800092932,-74.44814200526615
1588959947.9012523,0.5866289775758515,-1.5248639578708245,-9.174538867950506,-0.5587650177928458,0.15041067914938533,0.6738405967534988,6.835600702152925,15.78380078992204,-67.5457044762249
1588959947.9112523,0.6324748525510107,-1.5150048672481915,-9.502507300872288,-0.5611111111111111,0.14888888888888888,0.6733333333333333,5.546809089347407,13.546646847741025,-46.73321395850432
1588959947.9212523,0.43444335320940025,-1.587927043142757,-9.569069098561908,-0.5611111111111111,0.14888888888888888,0.6733333333333333,4.745501578393546,10.954594878989829,-34.78400999649246
1588959947.9312522,0.9090690902472871,-2.006388516049776,-9.530722296790046,-0.5611111111111111,0.14888888888888888,0.6733333333333333,2.3031698591805627,5.106339718361125,-18.545844518506723
1588959947.9412522,1.2687695164148873,-2.295630854924466,-9.452287112836526,-0.5611111111111111,0.1409709211278964,0.6768524301159966,0.9908325597096801,2.3084595746476495,-8.438391425436746
1588959947.9512522,1.4267000569151962,-2.3633142531913163,-9.473242702658753,-0.5611111111111111,0.1288888888888889,0.6822222222222222,0.06312606715993169,0.0015204488169768826,-4.39616127327425
1588959947.9612522,1.3875494998559255,-2.3877351500432225,-9.598490100028815,-0.5611111111111111,0.1288888888888889,0.6822222222222222,-0.821936874819907,-2.1816212489194418,-3.9492960935248838
1588959947.9712522,1.4348109887848544,-2.295613128922729,-9.590566107624241,-0.5611111111111111,0.1288888888888889,0.6822222222222222,-1.0147404568371232,-3.5533606852556847,-4.273879771581439
1588959947.9812522,1.1915129282712444,-2.2428290239095854,-9.65697414345751,-0.5611111111111111,0.1288888888888889,0.6822222222222222,-0.6545976090414797,-2.6771998242989765,-4.330181399434908
1588959947.9912522,1.2112713105630089,-2.344006874060187,-9.68853574706583,-0.5623849169926854,0.130672217123093,0.6801841328117032,0.2774547425156717,0.2101311832366668,-5.0628551760501495
1588959948.0012522,1.3265114318828364,-2.6443409545885577,-9.654349734836511,-0.5666666666666667,0.13666666666666666,0.6733333333333333,1.0,3.4375,-7.375
1588959948.0112522,1.0695798484056456,-2.379271867921241,-9.703473383864784,-0.5666666666666667,0.13666666666666666,0.6733333333333333,1.3473383864784805,4.175594071266771,-9.350487073096359
1588959948.0212522,1.076647924925168,-2.15608445918615,-9.659126688779226,-0.5666666666666667,0.13666666666666666,0.6733333333333333,2.257394729390826,5.638204332173772,-15.33362996521317
1588959948.0312521,1.1282421629880228,-2.0671003737756797,-9.486563992033394,-0.5666666666666667,0.13666666666666666,0.6733333333333333,2.9632567593375714,5.455124751043571,-22.97188668049
1588959948.0412521,0.9055546392925186,-2.2066639178775556,-9.378890721414963,-0.5740728523900247,0.13851821309750617,0.6693216493998477,2.0417010265305544,1.864677822959024,-26.77778350442176
1588959948.0512521,1.0049615802469136,-2.1911804444444445,-9.34019674074074,-0.5933333333333334,0.14333333333333334,0.6588888888888889,1.4387296296296297,0.43627037037037036,-26.074796296296295
1588959948.061252,1.224937975190076,-2.07,-9.346962785114046,-0.5933333333333334,0.14333333333333334,0.6588888888888889,1.1720688275310125,0.3518532412965186,-24.068214785914364
1588959948.071252,1.4840416843739028,-1.9632203765636258,-9.453689695312356,-0.5933333333333334,0.14333333333333334,0.6588888888888889,0.7217242382808892,-0.2038788085955544,-20.849739472663106
1588959948.081252,1.7405712021285629,-1.6971870135016558,-9.49597809165275,-0.5933333333333334,0.14333333333333334,0.6588888888888889,0.8311815364148434,0.23131846358515668,-19.022251549718362
1588959948.091252,1.5382217694192801,-1.9303849436902827,-9.582740589806427,-0.5896527185003656,0.1402189669362068,0.65945513732473,0.8873168901616323,-0.6051780158052702,-17.192599195968832
1588959948.101252,1.6363473713184695,-2.088298926507019,-9.630922102945224,-0.5788888888888889,0.13111111111111112,0.6611111111111111,0.32380264244426094,-2.8016446462978255,-15.067592210294523
1588959948.111252,1.6041094439541042,-2.382875551632833,-9.653424889673433,-0.5788888888888889,0.13111111111111112,0.6611111111111111,0.16695278022947926,-4.327897175639894,-13.662674315975288
1588959948.121252,1.696514205705618,-2.824422729128989,-9.514880112012134,-0.5788888888888889,0.13111111111111112,0.6611111111111111,0.13130919044007544,-10.412401794916672,-12.881309190440076
1588959948.131252,1.786083650190114,-2.921964512040558,-9.405564005069708,-0.5788888888888889,0.13111111111111112,0.6611111111111111,0.5818282636248415,-14.298320659062105,-13.660408745247148
1588959948.141252,1.6904753794890781,-2.4230899666790076,-9.57681451314328,-0.5803803529556955,0.1296196470443046,0.6590772964745567,0.6875,-13.944728804146612,-15.661648463532025
1588959948.151252,1.5662458348759718,-1.6155979266938172,-9.429291928915216,-0.5898701098358633,0.12012989016413674,0.6461367189106916,0.6875,-10.014028369122547,-16.292501619770455
1588959948.161252,0.62,-0.535161390843699,-9.313373756784129,-0.5911111111111111,0.11888888888888888,0.6444444444444445,-0.263680243579423,-9.61458522683009,-12.115961528473864
1588959948.171252,0.738088770312879,-2.16428328886733,-9.813907834101382,-0.5911111111111111,0.11888888888888888,0.6444444444444445,-1.2827431481930633,-12.59172325976231,-5.895904074702886
1588959948.181252,1.0102493473078815,-2.2724376631730294,-9.658061031442733,-0.5911111111111111,0.11888888888888888,0.6444444444444445,-0.9558522361799539,-8.540518937530743,-2.3402027602255098
1588959948.191252,0.9869446892515952,-2.28,-9.596250220326436,-0.5902623157581384,0.11749995103856985,0.6460648719364833,-0.5946169845242711,-3.3168294144604644,-0.7968722459195544
1588959948.201252,1.1324233828575963,-2.2183254319322394,-9.639911530755956,-0.5788888888888889,0.09888888888888887,0.6677777777777778,-0.1875,1.5448854958046536,0.46200632773292605
1588959948.211252,1.2636448031734664,-2.113137379135561,-9.55584777278863,-0.5788888888888889,0.09888888888888887,0.6677777777777778,-0.16313428004738162,3.3580600396683287,0.8887685600947632
1588959948.221252,1.3223916354815053,-2.278699625778062,-9.548908738740433,-0.5788888888888889,0.09888888888888887,0.6677777777777778,-0.01765683472177821,3.4197479643454876,0.627709112962371
1588959948.231252,1.3267084396140625,-2.3673667516912498,-9.450329156038594,-0.5788888888888889,0.09888888888888887,0.6677777777777778,0.125,1.331798269934568,0.4498433514472663
1588959948.241252,1.2336774980592216,-2.292941998447377,-9.459632250194078,-0.5788888888888889,0.09888888888888887,0.6677777777777778,0.125,0.11076716202728187,0.7987093822779194
1588959948.251252,1.1098764141241002,-2.1028073363044224,-9.495418237915667,-0.5644444444444444,0.10444444444444444,0.6877777777777778,0.41440906753513884,1.889773311621529,0.7615454662324306
1588959948.261252,1.3039904010970176,-2.3472471717517998,-9.711100445663353,-0.5644444444444444,0.10444444444444444,0.6877777777777778,0.324541480973603,4.136462975659924,0.8064792595131985
1588959948.271252,1.2722095514320557,-2.29480636762137,-9.557995451699021,-0.5644444444444444,0.10444444444444444,0.6877777777777778,-0.14123010118321744,-1.6661448205398637,-0.24871873043077025
1588959948.281252,1.127058930160509,-2.198039286773673,-9.627114795161663,-0.5644444444444444,0.10444444444444444,0.6877777777777778,-0.4436272288322732,-3.264529638113444,-0.7239142167364292
1588959948.291252,1.1940651101248725,-2.1894065110124874,-9.508308845825178,-0.5644444444444444,0.10444444444444444,0.6877777777777778,-0.08846514320368276,-1.857569878986686,-0.5773372246878188
1588959948.301252,1.2378178016442523,-2.1994544504110634,-9.5,-0.560242466483972,0.10444444444444444,0.6604649210347067,-0.0034096849308558608,-0.5091033835479732,-0.26704842465427936
1588959948.3112519,1.2166742627345843,-2.2366742627345846,-9.471571715817694,-0.56,0.10444444444444444,0.6588888888888889,-0.010392928954423591,0.6870727211796246,0.15617878686327077
1588959948.3212519,1.1988309029796052,-2.2188309029796054,-9.670647223836841,-0.56,0.10444444444444444,0.6588888888888889,-0.04057943086759837,1.7711371275493442,0.3271137127549344
1588959948.3312519,1.1885779294653014,-2.212844141069397,-9.598577929465302,-0.56,0.10444444444444444,0.6588888888888889,0.1427758816837315,2.9194397042093287,0.4997155858930603
1588959948.3412519,1.1800570859743214,-2.229885828051357,-9.59005708597432,-0.56,0.10444444444444444,0.6588888888888889,0.24928642532098164,3.185716063302454,0.8725024886234357
1588959948.3512518,1.2264500416319732,-2.21,-9.57,-0.5788888888888889,0.1111111111111111,0.6733333333333333,0.5282290799333889,3.642135460033306,0.875
1588959948.3612518,1.2682521249258747,-2.2134957501482506,-9.578739375370628,-0.5788888888888889,0.1111111111111111,0.6733333333333333,0.40472734236015023,3.5454851502273175,0.8313031231468669
1588959948.3712518,1.2798659330440174,-2.2415884609423435,-9.596823078115312,-0.5788888888888889,0.1111111111111111,0.6733333333333333,0.2706936802541847,2.5852884764414137,0.542225278983261
1588959948.3812518,1.3773775573465592,-2.2984702417854925,-9.483059516429014,-0.5788888888888889,0.1111111111111111,0.6733333333333333,0.37226828890266583,1.1632439553626783,0.13592684438933667
1588959948.3912518,1.2549580766874133,-2.273675384565771,-9.539230384727015,-0.5788888888888889,0.1111111111111111,0.6733333333333333,0.16933894192008772,-4.592377414621562,-0.779908655551614
1588959948.4012518,1.1077799801783945,-2.243555996035679,-9.58644400396432,-0.5852837793194582,0.10106199757735931,0.6687655544543553,-0.3486000991080277,-9.46383795837463,-1.6097125867195243
1588959948.4112518,1.1451757080930938,-2.224235511973402,-9.519059803880308,-0.5866666666666667,0.09888888888888887,0.6677777777777778,-0.5852920752493582,-6.5743103194309995,-1.1455957240856867
1588959948.4212518,1.2454057572212427,-2.22,-9.628445682084067,-0.5866666666666667,0.09888888888888887,0.6677777777777778,-0.5865714956581918,-6.127613735602828,-1.085557102605085
1588959948.4312518,1.1071830150439124,-2.22,-9.732112738717065,-0.5866666666666667,0.09888888888888887,0.6677777777777778,-0.37059846100611316,-7.898592619749873,-1.2151409233963322
1588959948.4412518,1.0519050991501417,-2.2109525495750706,-9.741905099150141,-0.5866666666666667,0.09888888888888887,0.6677777777777778,-0.0297671742209632,-5.547671742209632,-0.7410809135977336
1588959948.4512517,1.19,-2.2210425771334363,-9.541042577133435,-0.5866666666666667,0.1111111111111111,0.6822222222222222,0.375,-0.5728711433281868,-0.11196778583204668
1588959948.4612517,1.1865668254038897,-2.231716587298055,-9.556866349192221,-0.5866666666666667,0.1111111111111111,0.6822222222222222,0.3320853175486225,-0.16791468245137744,-0.021457341225688726
1588959948.4712517,1.1677403213062945,-2.241129839346853,-9.582091124572031,-0.5866666666666667,0.1111111111111111,0.6822222222222222,0.11793850408217013,-0.36087700816434026,-0.11087700816434026
1588959948.4812517,1.1519410738361486,-2.2490294630819254,-9.518058926163851,-0.5866666666666667,0.1111111111111111,0.6822222222222222,0.05643414426203505,-0.25,-0.006065855737964946
1588959948.4912517,1.1685732413355538,-2.2407133793322234,-9.501426758664445,-0.5866666666666667,0.1111111111111111,0.6822222222222222,0.004458620826393846,-0.25,-0.058041379173606154
1588959948.5012517,1.1409144375266178,-2.21,-9.542595874992394,-0.5644444444444444,0.10444444444444444,0.6733333333333333,-0.24188789064876595,0.055125585592893794,0.19561210935123405
1588959948.5112517,1.0218282666450345,-2.21,-9.576620495244276,-0.5644444444444444,0.10444444444444444,0.6733333333333333,-0.13556095236163784,1.5968661907562514,0.30193904763836216
1588959948.5212517,1.1097102711069193,-2.2168985948874216,-9.777333188227043,-0.5644444444444444,0.10444444444444444,0.6733333333333333,0.04311621804638564,7.556162180463857,1.2860513555345958
1588959948.5312517,1.3079566018258,-2.276219662773516,-9.5520433981742,-0.5644444444444444,0.10444444444444444,0.6733333333333333,0.4315932230836184,11.452745784668947,2.1993135538327633
1588959948.5412517,1.4692660364755177,-2.242259781794628,-9.390733963524482,-0.5644444444444444,0.10444444444444444,0.6733333333333333,0.378530909054106,11.028247272432848,2.305438181891788
1588959948.5512516,1.3163279127126792,-2.2236327912712683,-9.38,-0.5708094700611736,0.12081165317317652,0.6615125714736935,0.2727049454454245,4.811149199448184,1.0338118180678066
1588959948.5612516,1.1602784954890084,-2.248169765767292,-9.520848828836462,-0.5722222222222222,0.12444444444444445,0.6588888888888889,0.029923704943030205,0.8405997183277565,0.22181689186327247
1588959948.5712516,1.1617264944313963,-2.2388490037124025,-9.677122509281006,-0.5722222222222222,0.12444444444444445,0.6588888888888889,0.2981125464050307,4.40331180392454,1.0467592241836503
1588959948.5812516,1.1807929388590044,-2.226138040760664,-9.64534510190166,-0.5722222222222222,0.12444444444444445,0.6588888888888889,0.13922550950829607,6.786617357375558,1.5631420940980378
1588959948.5912516,1.1817878914088826,-2.236424217182235,-9.588939457044413,-0.5722222222222222,0.12444444444444445,0.6588888888888889,0.21647703608345006,7.834848642611033,2.1717797508613836
1588959948.6012516,1.2028391622820591,-2.210354895285257,-9.529645104714742,-0.5722222222222222,0.10444444444444444,0.67,0.1863909522335706,6.761090477664294,3.4027261941607345
1588959948.6112516,1.3682632063553244,-2.23,-9.51,-0.5722222222222222,0.10444444444444444,0.67,0.11467099205584463,7.473125575469476,4.906512976167534
1588959948.6212516,1.4580749876876298,-2.23,-9.51,-0.5722222222222222,0.10444444444444444,0.67,0.0024062653904627362,8.539640478790604,4.569718796171388
1588959948.6312516,1.5196021104603321,-2.2598010552301657,-9.400729464156058,-0.5722222222222222,0.10444444444444444,0.67,0.3725131903770754,7.196618301950723,2.575762984655598
1588959948.6412516,1.3594474733658275,-2.2519723736682913,-9.488303889648796,-0.5722222222222222,0.10444444444444444,0.67,0.3248273354268211,4.327658119328799,1.2078380565241682
1588959948.6512516,1.2523980989540096,-2.239520380209198,-9.581918479163209,-0.5788888888888889,0.1111111111111111,0.6766666666666666,0.2945142578449278,0.8454738606176324,0.25299762369251205
1588959948.6612515,1.2959218827826664,-2.230815623443467,-9.616737506226132,-0.5788888888888889,0.1111111111111111,0.6766666666666666,-0.03191412086999834,1.4439258882616635,0.30740235347833306
1588959948.6712515,1.2998933499127192,-2.22,-9.69,-0.5788888888888889,0.1111111111111111,0.6766666666666666,0.18816656304550564,1.4351670293407304,0.4358335923862359
1588959948.6812515,1.2801444659547452,-2.2200722329773726,-9.68971106809051,-0.5788888888888889,0.1111111111111111,0.6766666666666666,0.3125,1.0054174733029413,0.12590291221715688
1588959948.6912515,1.2976065280293096,-2.2288032640146547,-9.654786943941382,-0.5788888888888889,0.1111111111111111,0.6766666666666666,0.3125,1.660244801099107,0.2350408001831845
1588959948.7012515,1.3,-2.23974266487214,-9.43566137281292,-0.5864665171227755,0.1111111111111111,0.67558414834754,0.2516083445491252,1.689108344549125,0.4935666218034993
1588959948.7112515,1.3080040228089362,-2.24,-9.413991954382128,-0.5866666666666667,0.1111111111111111,0.6755555555555556,0.40007542766755194,0.9871480042180909,0.44997485744414933
1588959948.7212515,1.4088927854499722,-2.2792091324642656,-9.519367305971413,-0.5866666666666667,0.1111111111111111,0.6755555555555556,0.43156849348199383,0.45650228553462163,0.17860274022299077
1588959948.7312515,1.3387536393730308,-2.230498544250788,-9.482492721253939,-0.5866666666666667,0.1111111111111111,0.6755555555555556,0.056268196865153754,-2.2796010648905196,-0.37811590156742314
1588959948.7412515,1.2969327563514539,-2.2472268974594183,-9.566134487297093,-0.5866666666666667,0.1111111111111111,0.6755555555555556,-0.15283621824273122,-3.2728470366529736,-0.4826681091213656
1588959948.7512515,1.24,-2.2288868912510957,-9.648886891251095,-0.5788888888888889,0.09888888888888887,0.6611111111111111,0.06945692968065263,-1.1381272894801897,-0.2984737735128211
1588959948.7612514,1.2439448153385733,-2.2203944815338574,-9.64157792613543,-0.5788888888888889,0.09888888888888887,0.6611111111111111,0.12253449041339165,2.3461548738777256,0.3272930575196501
1588959948.7712514,1.312914131614431,-2.227291413161443,-9.669165652645772,-0.5788888888888889,0.09888888888888887,0.6611111111111111,0.0794286677409807,4.027281958101753,0.5859279935541157
1588959948.7812514,1.3755591232723718,-2.2566693424542787,-9.519983945274326,-0.5788888888888889,0.09888888888888887,0.6611111111111111,0.22918339033924334,3.9096441784168645,0.6875
1588959948.7912514,1.3409102979982184,-2.2469700993327395,-9.52605980133452,-0.5788888888888889,0.09888888888888887,0.6611111111111111,0.33143687917037834,1.9394517790812984,0.4024709229036758
1588959948.8012514,1.3026878180185573,-2.2457707273271477,-9.499604908709967,-0.5833772323655593,0.10594200006651368,0.6694466061392131,0.19466477102663873,0.21615908410655493,0.03359772523196647
1588959948.8112514,1.317435697583788,-2.25,-9.465427383736037,-0.5866666666666667,0.1111111111111111,0.6755555555555556,0.00534229670044168,-0.16960574175110418,-0.06784229670044167
1588959948.8212514,1.3580980190083591,-2.2540490095041794,-9.435705942974923,-0.5866666666666667,0.1111111111111111,0.6755555555555556,0.03872523760448872,-0.7338829726325433,-0.1265315470056109
1588959948.8312514,1.3331105200531952,-2.2477035066843984,-9.596743893049625,-0.5866666666666667,0.1111111111111111,0.6755555555555556,0.41805924966752994,-4.271798663120319,-0.6199123328900399
1588959948.8412514,1.253268833993197,-2.2258172084982992,-9.7341827915017,-0.5866666666666667,0.1111111111111111,0.6755555555555556,0.2965726593431105,-6.964851809513188,-0.9454636703284447
1588959948.8512514,1.2682949504770007,-2.22,-9.615541410949747,-0.5909216611641113,0.10472861936494432,0.6500255885708884,-0.17151516072188128,-4.744886294585891,-0.6409848392781188
1588959948.8612514,1.27,-2.2373040805873314,-9.54943571794434,-0.5911111111111111,0.10444444444444444,0.6488888888888888,-0.13342474816458938,-2.083463163735701,-0.24647323715212566
1588959948.8712513,1.2771825732833353,-2.24,-9.561547719850006,-0.5911111111111111,0.10444444444444444,0.6488888888888888,-0.03521783395830813,-0.7896783395830813,-0.14260891697915407
1588959948.8812513,1.28,-2.269524948976001,-9.540475051023998,-0.5911111111111111,0.10444444444444444,0.6488888888888888,0.0,-0.4375,-0.186510310366669
1588959948.8912513,1.28,-2.2547829834051525,-9.463914917025763,-0.5911111111111111,0.10444444444444444,0.6488888888888888,0.047553176858897955,-0.8654785917300816,-0.13994682314110204
1588959948.9012513,1.28,-2.25,-9.499387650261996,-0.5724149989915941,0.11104307225133281,0.6532879740934812,0.1862242713791568,-0.8144135929312648,-0.1868621356895784
1588959948.9112513,1.2711677376937922,-2.2411677376937926,-9.517664524612416,-0.5722222222222222,0.1111111111111111,0.6533333333333333,0.1875,-0.3708868846896142,0.03330655765519289
1588959948.9212513,1.2849752378603867,-2.2325123810698067,-9.594876189301933,-0.5722222222222222,0.1111111111111111,0.6533333333333333,0.23429761831370857,-0.12530952674516574,-0.07789285494112572
1588959948.9312513,1.29,-2.2392251575450905,-9.62,-0.5722222222222222,0.1111111111111111,0.6533333333333333,0.4806289386272623,-0.6967295812249713,0.0479717039704467
1588959948.9412513,1.2843640701794492,-2.2287281403588985,-9.597456280717797,-0.5722222222222222,0.1111111111111111,0.6533333333333333,0.42955087724311347,-1.2079192979197622,-0.14884736827065947
1588959948.9512513,1.2845435701187913,-2.22,-9.566369289643626,-0.5686883343520511,0.10252881199783855,0.6472752398416115,0.318205373515108,-1.676089252969784,-0.369294626484892
1588959948.9612513,1.278729332455773,-2.2369060013163407,-9.53309399868366,-0.5644444444444444,0.09222222222222222,0.64,0.21477916392429047,-2.1647083607570954,-0.4375
1588959948.9712512,1.301727628613231,-2.2420680928466923,-9.527931907153308,-0.5644444444444444,0.09222222222222222,0.64,0.08835116058365297,-2.982818616789909,-0.536648839416347
1588959948.9812512,1.3348519788799134,-2.231716007040029,-9.480296042240173,-0.5644444444444444,0.09222222222222222,0.64,0.11427495599981949,-4.885348503993862,-0.8731497359989169
1588959948.9912512,1.3047663608939235,-2.23,-9.491140183463646,-0.5644444444444444,0.09222222222222222,0.64,0.03691590223480885,-7.760396786307948,-1.3338784399433603
1588959949.0012512,1.1959754973893457,-2.211195099477869,-9.575219602088524,-0.5780257614882056,0.09849052239626582,0.6525366003480872,0.0,-10.39916348155479,-1.6762959423949766
1588959949.0112512,1.1428362552512379,-2.2288654978995046,-9.627163744748763,-0.5788888888888889,0.09888888888888887,0.6533333333333333,0.0,-9.144042338473092,-1.5106359571921426
1588959949.0212512,1.1321575396825396,-2.2221575396825397,-9.677054761904762,-0.5788888888888889,0.09888888888888887,0.6533333333333333,0.04901537698412698,-6.856808035714286,-1.0588616071428572
1588959949.0312512,1.147719793538084,-2.1934203096928737,-9.548241651695326,-0.5788888888888889,0.09888888888888887,0.6533333333333333,0.4501204836455927,-3.2597848404482845,-0.49450516154789403
1588959949.0412512,1.17788945646981,-2.2109170923523576,-9.481193451177832,-0.5788888888888889,0.09888888888888887,0.6533333333333333,0.5,-1.3933726250413436,-0.13245906986145306
1588959949.0512512,1.2240056751794357,-2.2540056751794357,-9.46850141879486,-0.5732212763589829,0.09888888888888887,0.6797821918062278,0.6062677349357369,-0.3780629277249207,0.0
1588959949.0612512,1.2460457544340673,-2.26,-9.494068631651102,-0.5722222222222222,0.09888888888888887,0.6844444444444444,0.32414210436123725,-1.0145017564904464,-0.15042894781938138
1588959949.0712512,1.2210920136971168,-2.238319010272838,-9.59395095548437,-0.5722222222222222,0.09888888888888887,0.6844444444444444,0.024156357008726398,-1.9553683861703304,-0.45851237158952834
1588959949.0812511,1.1840782007937674,-2.204078200793768,-9.63,-0.5722222222222222,0.09888888888888887,0.6844444444444444,-0.0625,-2.6820299867705426,-0.5084962516536822
1588959949.0912511,1.1590213053010285,-2.2157340210242285,-9.624755326325257,-0.5722222222222222,0.09888888888888887,0.6844444444444444,0.03583763140142786,-2.3566494743942887,-0.4672207895328574
1588959949.1012511,1.1459019258072736,-2.2270490370963634,-9.608196148385453,-0.5699270288527268,0.10249562132666722,0.6801819424725246,0.10655648185226983,-1.686460191488587,-0.32683889111361897
1588959949.111251,1.1780835302126296,-2.2154791174468427,-9.584520882553157,-0.5644444444444444,0.1111111111111111,0.67,0.034244484042766185,-0.5984338085131942,-0.0625
1588959949.121251,1.211321062441752,-2.221321062441752,-9.601321062441752,-0.5644444444444444,0.1111111111111111,0.67,0.0,-0.6120398415657036,-0.1332566402609506
1588959949.131251,1.2144102899498583,-2.2244102899498586,-9.593230869849574,-0.5644444444444444,0.1111111111111111,0.67,-0.10480706344015696,-1.9855706344015696,-0.32724275125354263
1588959949.141251,1.1996216883040591,-2.230378311695941,-9.533297597368266,-0.5644444444444444,0.1111111111111111,0.67,-0.21993222404981497,-3.1043900164483347,-0.5023644480996299
1588959949.151251,1.19,-2.2344918230591886,-9.484491823059189,-0.5687285820650755,0.11539524873174223,0.6779562555811721,-0.28442610588007156,-3.4094261058800717,-0.49364778823985694
1588959949.161251,1.1748322967969227,-2.2224161483984615,-9.487583851601538,-0.5722222222222222,0.11888888888888888,0.6844444444444444,-0.40729814501923284,-3.7218944350576986,-0.39010092749038355
1588959949.171251,1.1084338402377207,-2.227695769970285,-9.613132319524558,-0.5722222222222222,0.11888888888888888,0.6844444444444444,-0.4375,-4.293485623142807,-0.4230985623142807
1588959949.181251,1.0976321162915068,-2.2223678837084937,-9.619471534833973,-0.5722222222222222,0.11888888888888888,0.6844444444444444,-0.34209854635616704,-3.1972811026301713,-0.2466970927123341
1588959949.191251,1.118798598949212,-2.22,-9.578669001751313,-0.5722222222222222,0.11888888888888888,0.6844444444444444,-0.19500875656742556,-1.4026050788091067,0.00831873905429073
1588959949.201251,1.157689218788026,-2.22,-9.53923308590898,-0.5668382074578837,0.11350487412455043,0.6844444444444444,-0.03847119128741787,0.21625927841323933,0.16826440435629106
1588959949.211251,1.244231468955544,-2.22,-9.470614824835565,-0.5644444444444444,0.1111111111111111,0.6844444444444444,0.04639466809721509,0.6552893361944302,0.1875
1588959949.221251,1.139838417883076,-2.22,-9.534222200193303,-0.5644444444444444,0.1111111111111111,0.6844444444444444,-0.2724746598597309,-1.2744944363212807,-0.2431817055339397
1588959949.231251,1.1,-2.241220388434071,-9.651955016547639,-0.5644444444444444,0.1111111111111111,0.6844444444444444,-0.3307908574290193,-2.8033919939905942,-0.4192091425709807
1588959949.241251,1.1248077174149562,-2.241730760861681,-9.640384565170088,-0.5644444444444444,0.1111111111111111,0.6844444444444444,-0.2091345107710162,-2.2830519692463915,-0.3599758830782621
1588959949.251251,1.15821583300512,-2.2294052776683735,-9.567026388341867,-0.5653034878123495,0.1111111111111111,0.6835854010765393,-0.07736805829066562,-1.0297361165813312,-0.2425659708546672
1588959949.261251,1.1129492464050847,-2.22,-9.542734338126554,-0.5788888888888889,0.1111111111111111,0.67,-0.38354480664548,-2.42358248639124,-0.44470162990466006
1588959949.271251,1.1230417568064002,-2.2257604392016,-9.6060835136128,-0.5788888888888889,0.1111111111111111,0.67,-0.4014972549899996,-3.449024705090004,-0.6154945099799992
1588959949.281251,1.1001135843673457,-2.2186038812478133,-9.60581164374344,-0.5788888888888889,0.1111111111111111,0.67,-0.4106128711005841,-3.651887128899416,-0.5625
1588959949.291251,1.0917456860445636,-2.226309264533423,-9.569127156977718,-0.5788888888888889,0.1111111111111111,0.67,-0.4035223655553694,-2.9114696766627577,-0.39261182777684706
1588959949.301251,1.114316930525504,-2.2313661389489923,-9.534098416846977,-0.5707346867851592,0.1111111111111111,0.6762355663146169,-0.24009592107800082,-1.2062865528396067,-0.14207673686240063
1588959949.311251,1.107559016988822,-2.226220491505589,-9.493779508494411,-0.56,0.1111111111111111,0.6844444444444444,-0.0625,0.872049150558896,0.077756143819862
1588959949.321251,1.1220438820564005,-2.2355109705141003,-9.572664557711501,-0.56,0.1111111111111111,0.6844444444444444,-0.16583069713937712,1.3877742628525027,0.1594435657131257
1588959949.331251,1.1522408930202994,-2.24,-9.615518213959401,-0.56,0.1111111111111111,0.6844444444444444,-0.1352416279346919,1.232230465180948,0.11099441862312796
1588959949.341251,1.1448321862920712,-2.234944062097357,-9.589888124194713,-0.56,0.1111111111111111,0.6844444444444444,-0.15729883567455455,0.4305077621696364,-0.12709767134910907
1588959949.351251,1.13,-2.23,-9.557517433751743,-0.5616653752776487,0.1111111111111111,0.6861098197220931,-0.20316132031613204,-0.25775801952580196,-0.26566132031613204
1588959949.3612509,1.1506373403836416,-2.2368791134612143,-9.526879113461213,-0.5644444444444444,0.1111111111111111,0.6888888888888889,-0.08200554086741295,-0.4609889182651741,-0.1875
1588959949.3712509,1.1530241971958388,-2.253951605608322,-9.599758028041611,-0.5644444444444444,0.1111111111111111,0.6888888888888889,-0.28049383763003166,-1.0667839778380823,-0.23109876752600633
1588959949.3812509,1.1242084000993027,-2.2535521000248258,-9.597760500124128,-0.5644444444444444,0.1111111111111111,0.6888888888888889,-0.41529937484483964,-2.3199843711209915,-0.41119749937935857
1588959949.3912508,1.061983581624613,-2.25,-9.555991790812307,-0.5644444444444444,0.1111111111111111,0.6888888888888889,-0.5275307844538508,-3.2051128763307863,-0.4099692155461492
1588959949.4012508,1.0737276995305163,-2.2128255086071986,-9.524689358372456,-0.5620841592766476,0.10757068335941575,0.6700066075465136,-0.724574530516432,-3.595691510172144,0.15218114241001562
1588959949.4112508,1.13,-2.18,-9.526881446259159,-0.56,0.10444444444444444,0.6533333333333333,-0.8125,-3.7540271173592448,0.8205542347184894
1588959949.4212508,1.104696043887427,-2.21795593416886,-9.599585879309576,-0.56,0.10444444444444444,0.6533333333333333,-0.5357379800187324,-3.4171256857410466,0.6212005485928371
1588959949.4312508,1.1027317719399106,-2.220902342090134,-9.589072912240358,-0.56,0.10444444444444444,0.6533333333333333,-0.21585285075111854,-2.431551041067813,0.27835285075111854
1588959949.4412508,1.0990990095071405,-2.2209009904928596,-9.55454950475357,-0.56,0.10444444444444444,0.6533333333333333,-0.15906559529018657,-1.523081665937388,0.15343440470981343
1588959949.4512508,1.0822615859102347,-2.2261307929551175,-9.534523171820469,-0.5673085021958896,0.11218285853420988,0.6670905139373607,-0.114952367908449,-0.8348094716337959,0.100817455969483
1588959949.4612508,1.0745748166640663,-2.2337244499921987,-9.537448899984398,-0.5788888888888889,0.12444444444444445,0.6888888888888889,0.02859260415041348,-0.3464073958495865,-0.023277812451240443
1588959949.4712508,1.0845805829684334,-2.2408388340631333,-9.602064080779034,-0.5788888888888889,0.12444444444444445,0.6888888888888889,0.11975728710541794,-0.25524271289458206,-0.09637135644729103
1588959949.4812508,1.09,-2.223051672936052,-9.62262918234013,-0.5788888888888889,0.12444444444444445,0.6888888888888889,0.1875,-0.1875,-0.040786477925163336
1588959949.4912508,1.0858198026629018,-2.2183603946741965,-9.594180197337097,-0.5788888888888889,0.12444444444444445,0.6888888888888889,0.1091212999294052,0.021509866854919485,0.0
1588959949.5012507,1.0777599944810459,-2.2344800110379084,-9.58431996136732,-0.5773955518762528,0.12319999693391437,0.6861511043657227,-0.014000034493463489,0.3125,-0.014000034493463489
1588959949.5112507,1.057765194412986,-2.2418434629419908,-9.53815653705801,-0.5722222222222222,0.11888888888888888,0.6766666666666666,-0.0625,0.15956493016232542,-0.011521643387441806
1588959949.5212507,1.0505115030674848,-2.2194884969325153,-9.597301763803681,-0.5722222222222222,0.11888888888888888,0.6766666666666666,-0.02965155291411043,-0.16104534125766873,0.292439129601227
1588959949.5312507,1.0799675872780068,-2.2166558624260024,-9.586753100591983,-0.5722222222222222,0.11888888888888888,0.6766666666666666,-0.04159914016251379,-0.2084008598374862,0.6247974204875414
1588959949.5412507,1.1108735189288121,-2.2095632405355943,-9.54434486080339,-0.5722222222222222,0.11888888888888888,0.6766666666666666,-0.0625,-0.22011487332626914,0.6222702533474617
1588959949.5512507,1.135573493034761,-2.2,-9.541146986069522,-0.5654101751797365,0.10774190281936667,0.6729510046434926,-0.02766566853274314,-0.3893373258690275,0.49283133706548626
1588959949.5612507,1.122039415318322,-2.2059868615605596,-9.532039415318321,-0.56,0.09888888888888887,0.67,0.03741788475349584,-0.6122536542604875,0.25041057623252083
1588959949.5712507,1.1005953722870085,-2.2194046277129917,-9.57642776627795,-0.56,0.09888888888888887,0.67,0.0918894616030988,-0.6581105383969011,0.0662210767938024
1588959949.5812507,1.0846620232172473,-2.2193240464344943,-9.607972139303483,-0.56,0.09888888888888887,0.67,0.15836235489220563,-0.42482587064676613,0.0
1588959949.5912507,1.0697277884190364,-2.2254083173714454,-9.58,-0.56,0.09888888888888887,0.67,0.1875,-0.1536980164284662,0.03210066119051127
1588959949.6012506,1.068145138033191,-2.227782292950214,-9.53520174081745,-0.5568324463204257,0.1011514272314419,0.6776926303646803,0.1620464436462785,0.1665820071834937,0.011592887292556954
1588959949.6112506,1.08,-2.2143608886883954,-9.500526220818767,-0.5522222222222222,0.10444444444444444,0.6888888888888889,0.125,0.6090222172098794,-0.007988891395060337
1588959949.6212506,1.0863306180405052,-2.2231653090202528,-9.56532247216202,-0.5522222222222222,0.10444444444444444,0.6888888888888889,0.0656504558702638,0.7697831813765788,0.08228318137657872
1588959949.6312506,1.1,-2.23,-9.62,-0.5522222222222222,0.10444444444444444,0.6888888888888889,-0.03737062661716729,0.7622412532343346,0.11243531330858364
1588959949.6412506,1.0964809099125217,-2.226480909912522,-9.59888545947513,-0.5522222222222222,0.10444444444444444,0.6888888888888889,0.0625,0.34255686953259556,0.0625
1588959949.6512506,1.0915453760401947,-2.221545376040195,-9.558454623959806,-0.5522222222222222,0.10444444444444444,0.68596984525741,0.07215860025121683,-0.08181720050243366,0.04318279949756634
1588959949.6612506,1.0961293015138294,-2.23,-9.54612930151383,-0.5522222222222222,0.10444444444444444,0.67,0.1008081344614334,-0.16330813446143339,0.010075596615699817
1588959949.6712506,1.0859935950756947,-2.225993595075695,-9.576057644318748,-0.5522222222222222,0.10444444444444444,0.67,0.137620092330727,-0.125,0.074919938446182
1588959949.6812506,1.08,-2.2245325387287425,-9.607337306356289,-0.5522222222222222,0.10444444444444444,0.67,0.27832836705464004,-0.18165673410928007,-0.028328367054640043
1588959949.6912506,1.084936122102883,-2.2324680610514416,-9.562723572639909,-0.5522222222222222,0.10444444444444444,0.67,0.266223855285472,-0.296276144714528,-0.07792538157150933
1588959949.7012506,1.0836770630452763,-2.235919265761319,-9.51,-0.5495017327297682,0.10444444444444444,0.6758943939003169,0.09949541100824418,-0.6160321229422907,-0.09949541100824418
1588959949.7112505,1.093055966091297,-2.2134720169543516,-9.559583949136945,-0.5455555555555556,0.10444444444444444,0.6844444444444444,0.028066701988232343,-0.875,-0.09693329801176766
1588959949.7212505,1.1140901605599014,-2.2118196788801976,-9.635459036640594,-0.5455555555555556,0.10444444444444444,0.6844444444444444,0.03693649650061754,-0.7641905104981473,-0.08806350349938247
1588959949.7312505,1.0882680365812352,-2.22,-9.638268036581234,-0.5455555555555556,0.10444444444444444,0.6844444444444444,0.028543807158179973,-0.9251933498927403,-0.23228096420910013
1588959949.7412505,1.0787215629580549,-2.22,-9.580752966688753,-0.5455555555555556,0.10444444444444444,0.6844444444444444,0.0,-1.1795097684878422,-0.26598046302431577
1588959949.7512505,1.0818193624557262,-2.22,-9.53,-0.5532817132362587,0.11262508198871835,0.6930795618522891,0.0,-1.1221775383707202,-0.125
1588959949.7612505,1.0651531165012051,-2.215153116501205,-9.53,-0.5644444444444444,0.12444444444444445,0.7055555555555556,-0.06058604373493709,-1.270723240542154,-0.1855860437349371
1588959949.7712505,1.0645657659423309,-2.21,-9.580223425365638,-0.5644444444444444,0.12444444444444445,0.7055555555555556,-0.18207207427913472,-1.7106081114187022,-0.19292792572086528
1588959949.7812505,1.07,-2.2138572348773202,-9.612999355858758,-0.5644444444444444,0.12444444444444445,0.7055555555555556,-0.27410771798325234,-1.7642845640334954,-0.19732315394975697
1588959949.7912505,1.0717974153465941,-2.2253922460397826,-9.561012923267029,-0.5644444444444444,0.12444444444444445,0.7055555555555556,-0.26756461633514683,-1.6425646163351468,-0.2900323081675734
1588959949.8012505,1.0789958295433093,-2.246987488629928,-9.525020852283454,-0.5644444444444444,0.12444444444444445,0.7055555555555556,-0.08760426141726879,-1.4626042614172687,-0.2000521307086344
1588959949.8112504,1.0565540304601253,-2.2334459695398747,-9.52,-0.5788888888888889,0.11888888888888888,0.6755555555555556,0.0,-1.4375,-0.125
1588959949.8212504,1.05,-2.231669792730122,-9.574146347254208,-0.5788888888888889,0.11888888888888888,0.6755555555555556,0.07809569315510814,-1.0209896365060898,-0.020872409126522468
1588959949.8312504,1.05,-2.216695776255708,-9.630174657534246,-0.5788888888888889,0.11888888888888888,0.6755555555555556,0.16684860159817352,-0.2722888127853881,0.06304580479452054
1588959949.8412504,1.05,-2.211808342486672,-9.584574972539984,-0.5788888888888889,0.11888888888888888,0.6755555555555556,0.11369785945830096,0.0625,-0.0625
1588959949.8512504,1.0475418486958779,-2.222458151304122,-9.557541848695879,-0.5772501213528074,0.11888888888888888,0.6755555555555556,0.0625,0.0010462173969462349,-0.03177310869847312
1588959949.8612504,1.0448778973509933,-2.2251221026490065,-9.554877897350995,-0.5722222222222222,0.11888888888888888,0.6755555555555556,0.0472565707781457,-0.14176971233443708,0.016769712334437088
1588959949.8712504,1.064849820753803,-2.214849820753803,-9.603948745276622,-0.5722222222222222,0.11888888888888888,0.6755555555555556,-0.03031137971126829,0.12124551884507316,-0.125
1588959949.8812504,1.07,-2.22,-9.64,-0.5722222222222222,0.11888888888888888,0.6755555555555556,0.0012751326014555364,0.09056216849636117,-0.09311243369927223
1588959949.8912504,1.07,-2.228303667086443,-9.594329831024567,-0.5722222222222222,0.11888888888888888,0.6755555555555556,0.11439791929026558,0.06724479822566398,-0.010602080709734417
1588959949.9012504,1.057545357830875,-2.2306590183731565,-9.53,-0.5698004862448923,0.11646715291155901,0.6783232538153611,0.12911886483222634,0.30838113516777366,0.04303962161074211
1588959949.9112504,1.0338585091782466,-2.217717018356493,-9.533858509178247,-0.5644444444444444,0.1111111111111111,0.6844444444444444,0.0,0.5580784118202093,0.02411568236404186
1588959949.9212503,1.04,-2.23,-9.579662522732015,-0.5644444444444444,0.1111111111111111,0.6844444444444444,0.024789076707509763,0.8243672301225293,0.11207815341501953
1588959949.9312503,1.0535981454796066,-2.23,-9.621869139360525,-0.5644444444444444,0.1111111111111111,0.6844444444444444,0.0341705302508197,1.0224884092475408,0.1591705302508197
1588959949.9412503,1.0746299342105263,-2.232314967105263,-9.590740131578947,-0.5644444444444444,0.1111111111111111,0.6844444444444444,-0.04340563322368421,1.0815943667763157,0.11053145559210527
1588959949.9512503,1.0869487194548872,-2.238474359727444,-9.566102561090226,-0.5644444444444444,0.1111111111111111,0.6844444444444444,-0.15889424488956766,0.9661057551104324,0.07203525170347744
1588959949.9612503,1.08,-2.2189447777713056,-9.561055222228696,-0.5866666666666667,0.1111111111111111,0.7122222222222222,-0.0625,1.125,0.06909513892934117
1588959949.9712503,1.074853254519211,-2.2125733727403945,-9.585440236442368,-0.5866666666666667,0.1111111111111111,0.7122222222222222,-0.03033284074506839,1.0124149426077393,0.125
1588959949.9812503,1.06,-2.22,-9.620142360536336,-0.5866666666666667,0.1111111111111111,0.7122222222222222,0.03785590134083761,0.6628559013408376,0.125
1588959949.9912503,1.06,-2.2191657376439986,-9.577497212931995,-0.5866666666666667,0.1111111111111111,0.7122222222222222,-0.0677141397250093,0.5416434410999629,0.1197858602749907
1588959950.0012503,1.062762373285629,-2.2113811866428144,-9.548618813357185,-0.5866666666666667,0.10942299410322666,0.7083855926588485,-0.11636758348240907,0.2434406678592725,0.04523516696481813
1588959950.0112503,1.0783940816935003,-2.2191970408467503,-9.540802959153249,-0.5866666666666667,0.09987028340952758,0.6866748865368051,-0.06751849470781157,-0.14735204233750743,-0.05246301058437686
1588959950.0212502,1.08,-2.21,-9.56403318161797,-0.5866666666666667,0.09888888888888887,0.6844444444444444,-0.012529626444616901,-0.3875296264446169,-0.125
1588959950.0312502,1.08,-2.2140828528720906,-9.61591714712791,-0.5866666666666667,0.09888888888888887,0.6844444444444444,-0.0625,-0.42899405651647804,-0.125
1588959950.0412502,1.076691879949823,-2.233383759899646,-9.573459399749115,-0.5866666666666667,0.09888888888888887,0.6844444444444444,-0.0625,-0.4163515006272116,-0.10432424968639419
1588959950.0512502,1.07,-2.2240501616537673,-9.535949838346232,-0.5812664511283107,0.1029390505426559,0.6844444444444444,-0.04984324483197805,-0.5253135103360439,-0.0878135103360439
1588959950.0612502,1.0740530600915947,-2.231893879816811,-9.536212240366378,-0.56,0.11888888888888888,0.6844444444444444,-0.05066325114493223,-0.9289795068695934,-0.21283162557246613
1588959950.0712502,1.0636473995718423,-2.22,-9.592705200856315,-0.56,0.11888888888888888,0.6844444444444444,-0.17610187633799268,-1.5794075053519707,-0.27555093816899634
1588959950.0812502,1.0573406877127098,-2.228670343856355,-9.64,-0.56,0.11888888888888888,0.6844444444444444,-0.222905175448891,-1.712431052693346,-0.3125
1588959950.0912502,1.0835909741687,-2.2364090258313003,-9.611272206650401,-0.56,0.11888888888888888,0.6844444444444444,-0.1875,-1.8366538283156217,-0.40227435421749913
1588959950.1012502,1.0838820979105197,-2.23,-9.545724895124547,-0.5624924786290476,0.11888888888888888,0.6826317327142281,-0.21299125870616809,-2.513973776118504,-0.5625
1588959950.1112502,1.0565510466258596,-2.23172447668707,-9.494311191717676,-0.5722222222222222,0.11888888888888888,0.6755555555555556,-0.29633303105871683,-2.769388082823245,-0.5625
1588959950.1212502,1.02,-2.245901359366706,-9.576887765699647,-0.5722222222222222,0.11888888888888888,0.6755555555555556,-0.04815048812573565,-2.0307184564610306,-0.40880097625147127
1588959950.1312501,1.02,-2.2374918811274513,-9.617459405637256,-0.5722222222222222,0.11888888888888888,0.6755555555555556,0.09385148590686274,-1.3114851409313726,-0.14047277113970588
1588959950.1412501,1.02,-2.2310667892156864,-9.585333946078432,-0.5722222222222222,0.11888888888888888,0.6755555555555556,0.17416513480392157,-0.5083486519607843,-0.020002297794117663
1588959950.1512501,1.029369954591322,-2.2493699545913217,-9.52,-0.5717321869043615,0.11811883338939341,0.676115595918825,0.125,0.0625,-0.17568664858728558
1588959950.16125,1.0205524722502524,-2.2405524722502523,-9.52,-0.5648741450835295,0.10734191052808612,0.6839533579997757,0.125,0.0625,-0.01035885469223008
1588959950.17125,1.046344768439108,-2.23,-9.571149228130361,-0.5644444444444444,0.10666666666666667,0.6844444444444444,0.0625,0.09856346483704974,0.09856346483704974
1588959950.18125,1.0695612684729066,-2.23,-9.64868380541872,-0.5644444444444444,0.10666666666666667,0.6844444444444444,0.0625,0.0013710360221674876,-0.0027420720443349753
1588959950.19125,1.055350662803684,-2.23,-9.581974005794475,-0.5644444444444444,0.10666666666666667,0.6844444444444444,0.0625,0.07922082126151206,-0.10827917873848794
1588959950.20125,1.0689281841283202,-2.23,-9.561607723807521,-0.5644444444444444,0.10666666666666667,0.6844444444444444,0.0625,0.12165057540100027,-0.06584942459899973
1588959950.21125,1.0451636625304948,-2.235163662530495,-9.534836337469505,-0.56,0.10444444444444444,0.6844444444444444,0.15522710918440774,-0.04738644540779613,-0.03227289081559226
1588959950.22125,1.0304408796531934,-2.220440879653194,-9.549559120346807,-0.56,0.10444444444444444,0.6844444444444444,0.2472445021675413,-0.0013777489162293613,0.05974450216754128
1588959950.23125,1.0576140170059263,-2.2323859829940735,-9.59,-0.56,0.10444444444444444,0.6844444444444444,0.13991239371296058,-0.125,0.0
1588959950.24125,1.0510723567227467,-2.2389276432772536,-9.588927643277254,-0.56,0.10444444444444444,0.6844444444444444,0.18414888524141704,-0.125,0.003351114758582957
1588959950.25125,1.0638211826927462,-2.2261788173072543,-9.576178817307254,-0.56,0.10444444444444444,0.6844444444444444,0.14430880408516847,-0.125,0.04319119591483153
1588959950.26125,1.0616531510658018,-2.2116531510658017,-9.553306302131604,-0.5414514468128926,0.11000901040057666,0.6955735763567089,-0.0836712233549583,-0.22933561167747915,-0.09400341751621871
1588959950.27125,1.047205713347562,-2.2172057133475622,-9.599560006567065,-0.5377777777777778,0.1111111111111111,0.6977777777777778,-0.15257141684452472,-0.21507141684452472,-0.17003570842226234
1588959950.28125,1.04,-2.2167184287738766,-9.632084189936329,-0.5377777777777778,0.1111111111111111,0.6977777777777778,-0.0625,-0.125,-0.09700654677551346
1588959950.29125,1.04,-2.24,-9.565794822495365,-0.5377777777777778,0.1111111111111111,0.6977777777777778,-0.053739213532010346,-0.125,-0.004380393233994827
1588959950.30125,1.0404769325553582,-2.239284601166963,-9.510238466277679,-0.5381222290677588,0.1114290661480166,0.6971153714508914,0.06100958576450549,-0.12201917152901098,-0.06399041423549451
1588959950.31125,1.0556775269089986,-2.216483709636502,-9.517838763454499,-0.5491004361009434,0.12156279571711022,0.676003434848613,0.013507728409379187,-0.027015456818758374,-0.1114922715906208
1588959950.32125,1.0410232472438044,-2.2389767527561957,-9.516651107084728,-0.5522222222222222,0.12444444444444445,0.67,-0.11860470472622302,-0.243604704726223,-0.1218023523631115
1588959950.33125,1.0577266459486716,-2.22,-9.633179937846014,-0.5522222222222222,0.12444444444444445,0.67,0.028416925641606125,-0.13920846282080307,-0.0625
1588959950.34125,1.0509410758207678,-2.2190589241792322,-9.607176772537697,-0.5522222222222222,0.12444444444444445,0.67,0.11911827612020105,-0.18161827612020104,-0.0625
1588959950.35125,1.0599118810822372,-2.2100881189177626,-9.580264356753288,-0.5522222222222222,0.12444444444444445,0.67,0.06305074323601753,-0.12555074323601753,-0.0625
1588959950.36125,1.0378908590795226,-2.23,-9.538436563681909,-0.5644444444444444,0.10444444444444444,0.67,0.05908934623508032,-0.02636426150596788,-0.0625
1588959950.37125,1.0310236259148289,-2.23,-9.565905496340685,-0.5644444444444444,0.10444444444444444,0.67,-0.15551169016159927,-0.11220467606463973,-0.0625
1588959950.38125,1.02,-2.245371272470247,-9.625371272470247,-0.5644444444444444,0.10444444444444444,0.67,-0.2308943205914379,-0.1348238676523965,-0.057859094121917205
1588959950.39125,1.0223417504961336,-2.2303902917493557,-9.6064873742558,-0.5644444444444444,0.10444444444444444,0.67,-0.3725606765665275,-0.4067112046351422,-0.25487864686694495
1588959950.40125,1.0797468007938138,-2.2399578001323026,-9.520379798809278,-0.5644444444444444,0.10444444444444444,0.67,-0.3127637491731107,-1.184071260749561,-0.3744725016537786
1588959950.4112499,1.0363465679817685,-2.24,-9.528730686403646,-0.5605641393761572,0.09959406310908536,0.6748503813353591,-0.2579332099772105,-2.2242690104330007,-0.4295667900227895
1588959950.4212499,1.03,-2.2139836456880864,-9.557926405596389,-0.56,0.09888888888888887,0.6755555555555556,-0.16260221444945996,-1.7629599650225698,-0.32520442889891993
1588959950.4312499,1.0337677974423118,-2.23,-9.61681270895191,-0.56,0.09888888888888887,0.6755555555555556,-0.05072563299277582,-1.2536281649638792,-0.14854873401444837
1588959950.4412498,1.0436900916630292,-2.2331549541684854,-9.555267568747272,-0.56,0.09888888888888887,0.6755555555555556,0.0,-1.049296158882584,-0.2598592317765168
1588959950.4512498,1.0069844317125116,-2.2489948105708373,-9.531005189429163,-0.5592181859995401,0.09888888888888887,0.6755555555555556,0.012564867864534902,-1.3125,-0.30621756606773254
1588959950.4612498,0.986484273318872,-2.242161424439624,-9.544322848879247,-0.5522222222222222,0.09888888888888887,0.6755555555555556,0.0844732917570499,-1.0693397505422992,-0.18245548626174982
1588959950.4712498,1.009229934924078,-2.2497433116413594,-9.55948662328272,-0.5522222222222222,0.09888888888888887,0.6755555555555556,-0.05768709327548807,-0.21637744034707151,0.05447848879248013
1588959950.4812498,1.03,-2.24,-9.626993127807426,-0.5522222222222222,0.09888888888888887,0.6755555555555556,0.0625,0.10008590240718701,-0.009396475601796753
1588959950.4912498,1.03,-2.24,-9.610890313663761,-0.5522222222222222,0.09888888888888887,0.6755555555555556,0.0625,0.30137107920297923,-0.05971776980074481
1588959950.5012498,1.03,-2.225279738464968,-9.580559476929935,-0.5522222222222222,0.09888888888888887,0.6755555555555556,0.016499182703024,0.3125,-0.0625
1588959950.5112498,1.0,-2.239266085728619,-9.511467828542761,-0.5722222222222222,0.09888888888888887,0.67,0.1829130358038684,0.5045869641961316,0.0647934820980658
1588959950.5212498,1.0,-2.2236799762174617,-9.542640047565078,-0.5722222222222222,0.09888888888888887,0.67,0.0854998513591349,0.602000148640865,0.11350007432043255
1588959950.5312498,1.018221362891154,-2.239407120963718,-9.645849846746026,-0.5722222222222222,0.09888888888888887,0.67,0.11758901204647516,1.150938457837337,0.12870549397676243
1588959950.5412498,0.9957983462827001,-2.2319327820942334,-9.593529474659634,-0.5722222222222222,0.09888888888888887,0.67,0.02415977617791716,1.47794078337729,0.17542011191104143
1588959950.5512497,1.040065809412478,-2.2199670952937613,-9.559901285881283,-0.5721820053590413,0.09888888888888887,0.670021936470826,0.06229434558600684,1.8133226176559727,0.31291130882798635
1588959950.5612497,1.0582253106464043,-2.210887344676798,-9.532662034030393,-0.561084532382753,0.09888888888888887,0.6760751035488014,0.005545904229986576,2.0403163830800537,0.42640819154002685
1588959950.5712497,1.0726743673397408,-2.2236628163301297,-9.544651265320518,-0.56,0.09888888888888887,0.6766666666666666,0.0625,0.8960739793668988,0.08539260206331012
1588959950.5812497,1.04,-2.2388742484623716,-9.606622745387114,-0.56,0.09888888888888887,0.6766666666666666,0.06953594711017945,-0.1109281057796411,0.1875
1588959950.5912497,1.040700542977154,-2.230700542977154,-9.578598914045692,-0.56,0.09888888888888887,0.6766666666666666,0.125,0.0,0.17874321278557526
1588959950.6012497,1.0492945394939044,-2.2392945394939043,-9.561410921012191,-0.56,0.09888888888888887,0.6766666666666666,0.125,0.0,0.07131825632619608
1588959950.6112497,1.047929910030252,-2.23,-9.531035044984874,-0.5644444444444444,0.09888888888888887,0.6888888888888889,0.0625,-0.05603096884453699,0.0
1588959950.6212497,1.031451302400503,-2.23,-9.539274348799747,-0.5644444444444444,0.09888888888888887,0.6888888888888889,0.0625,-0.00453532000157153,0.0
1588959950.6312497,1.0309722919505606,-2.2290277080494394,-9.658055416098879,-0.5644444444444444,0.09888888888888887,0.6888888888888889,0.1006927012359846,0.032115876544980757,-0.012153649382007699
1588959950.6412497,1.0391666500568058,-2.2191666500568057,-9.63416655039764,-0.5644444444444444,0.09888888888888887,0.6888888888888889,-0.1041662514201431,-0.2552084371449642,-0.10937468856510733
1588959950.6512496,1.030806641286799,-2.210806641286799,-9.575646489007594,-0.5644444444444444,0.09888888888888887,0.6888888888888889,0.10483396783002136,-0.30745849195750535,0.047375475872515976
1588959950.6612496,1.0554917260863717,-2.226994484057581,-9.56150275797121,-0.554058926409256,0.08661509484730257,0.6851123368760931,0.018784474640118384,-0.36560776267994083,-0.043715525359881616
1588959950.6712496,1.052463913777987,-2.2375360862220135,-9.544927827555973,-0.5522222222222222,0.08444444444444445,0.6844444444444444,0.04710053888758206,-0.5163016166627462,-0.10960053888758206
1588959950.6812496,1.03,-2.23,-9.624320221993086,-0.5522222222222222,0.08444444444444445,0.6844444444444444,0.05235753927336689,-0.9121438481834172,-0.125
1588959950.6912496,1.03,-2.23,-9.579800145569237,-0.5522222222222222,0.08444444444444445,0.6844444444444444,-0.027142597197792204,-0.7133935070055195,-0.125
1588959950.7012496,1.03,-2.24517050451096,-9.52965899097808,-0.5522222222222222,0.08444444444444445,0.6844444444444444,-0.1099078265967495,-0.530184346806501,-0.125
1588959950.7112496,1.03,-2.2354221903233977,-9.5272889048383,-0.5416938041224539,0.09011359265201196,0.6779654179215101,-0.033888689521236165,-0.45444434476061807,-0.07944434476061808
1588959950.7212496,1.0402893933068185,-2.230578786613637,-9.582604539761366,-0.5377777777777778,0.09222222222222222,0.6755555555555556,-0.0588825836647696,-0.2481912918323848,-0.0606912918323848
1588959950.7312496,1.0495058120371794,-2.2490116240743587,-9.665552308334615,-0.5377777777777778,0.09222222222222222,0.6755555555555556,0.056322650464743246,-0.19058867476762836,-0.003088674767628377
1588959950.7412496,1.0484147347771255,-2.22,-9.626036836942815,-0.5377777777777778,0.09222222222222222,0.6755555555555556,-0.004953953821482508,-0.2023618614644475,-0.134907907642965
1588959950.7512496,1.035354279219667,-2.22,-9.593385698049168,-0.5377777777777778,0.09222222222222222,0.6755555555555556,-0.04576787743854023,-0.32480363231562065,-0.21653575487708046
1588959950.7612495,1.0103126367288493,-2.239687363271151,-9.530781591822123,-0.5716837923003151,0.09878467664593911,0.6493057378606879,-0.0625,-0.375,-0.06543096933296211
1588959950.7712495,1.0268354943273905,-2.2315822528363047,-9.504746758508913,-0.5722222222222222,0.09888888888888887,0.6488888888888888,-0.0625,-0.48022183954619124,-0.11511091977309562
1588959950.7812495,1.03,-2.2217306079201804,-9.614808176239459,-0.5722222222222222,0.09888888888888887,0.6488888888888888,0.005408149750562889,-0.3233162995011258,-0.11959185024943711
1588959950.7912495,1.03,-2.239890253922298,-9.559670761766892,-0.5722222222222222,0.09888888888888887,0.6488888888888888,0.061814087014358934,-0.4354422610430768,-0.06318591298564107
1588959950.8012495,1.03,-2.231685120701123,-9.535055362103368,-0.5722222222222222,0.09888888888888887,0.6488888888888888,0.010532004382018074,-0.2815960131460542,-0.11446799561798193
1588959950.8112495,1.0441644708882278,-2.2512467063323416,-9.53,-0.5580577513339944,0.08865899324739103,0.6740701704679605,0.08852794305142371,-0.47131985762855927,-0.08073602847428815
1588959950.8212495,1.05,-2.242478106949879,-9.518318737966586,-0.5522222222222222,0.08444444444444445,0.6844444444444444,0.16150394385441896,-1.0005473262530278,-0.2450197192720949
1588959950.8312495,1.0271534118631074,-2.2452310587579283,-9.624232940684463,-0.5522222222222222,0.08444444444444445,0.6844444444444444,0.09230588276294696,-2.4072323482261098,-0.47019411723705307
1588959950.8412495,1.0199372812430454,-2.2399749124972184,-9.639912193740264,-0.5522222222222222,0.08444444444444445,0.6844444444444444,-7.839844619337609e-05,-3.5,-0.6875783984461934
1588959950.8512495,0.9775080421631901,-2.2230032168652762,-9.580511259028466,-0.5522222222222222,0.08444444444444445,0.6844444444444444,-0.053114947296012294,-3.5,-0.7406149472960123
1588959950.8612494,1.0070148773622838,-2.2477611580217127,-9.55149256131886,-0.5594195594871108,0.10912102935263368,0.6762189161417147,0.05317149175713712,-2.748135303578609,-0.6343285082428629
1588959950.8712494,1.0193529664660361,-2.221941100601892,-9.55,-0.56,0.1111111111111111,0.6755555555555556,0.1209560404127257,-2.27830771711092,-0.5665439595872743
1588959950.8812494,1.0271019477228296,-2.22,-9.621019477228296,-0.56,0.1111111111111111,0.6755555555555556,0.08061282673231482,-2.3831615198030556,-0.6068871732676852
1588959950.8912494,1.0193581722538674,-2.2296790861269336,-9.629037258380801,-0.56,0.1111111111111111,0.6755555555555556,0.0625,-3.140042837799981,-0.6280085675599962
1588959950.9012494,0.9932474242848695,-2.2166237121424346,-9.589871136427304,-0.56,0.1111111111111111,0.6755555555555556,0.0625,-3.752013493323373,-0.7504026986646746
1588959950.9112494,0.9716089340101522,-2.218391065989848,-9.536435736040609,-0.56,0.1111111111111111,0.7007287535250988,0.11494416243654823,-4.219832487309644,-0.9698324873096447
1588959950.9212494,0.97,-2.2043115305974927,-9.537844234701252,-0.56,0.1111111111111111,0.7055555555555556,0.026947066234329506,-3.857788264937318,-0.8529205993514942
1588959950.9312494,0.9999477186311787,-2.2,-9.619860583016475,-0.56,0.1111111111111111,0.7055555555555556,0.1871732414448669,-3.188480275665399,-0.9996732414448669
1588959950.9412494,0.9702654867256637,-2.190088495575221,-9.570442477876107,-0.56,0.1111111111111111,0.7055555555555556,0.06360619469026549,-3.125553097345133,-0.9380530973451328
1588959950.9512494,0.9776520506590088,-2.19,-9.547043848022973,-0.56,0.1111111111111111,0.7055555555555556,0.11032531661880568,-3.268475949856417,-1.080975949856417
1588959950.9612494,0.9601922772411609,-2.209807722758839,-9.546602574252946,-0.5724715291444543,0.09350424643658747,0.6916167876882243,0.08373391091908522,-3.1887017327572558,-1.166266089080915
1588959950.9712493,0.9415559040301081,-2.22,-9.558444095969893,-0.5788888888888889,0.08444444444444445,0.6844444444444444,0.00972440018817626,-2.861122000940881,-1.2930511996236476
1588959950.9812493,0.94,-2.2102368066738824,-9.647868739935056,-0.5788888888888889,0.08444444444444445,0.6844444444444444,-0.06101995828823359,-2.202300417117664,-1.007400208558832
1588959950.9912493,0.9304470872995555,-2.2195529127004447,-9.621341261898666,-0.5788888888888889,0.08444444444444445,0.6844444444444444,0.0569114087555566,-1.590442956222217,-1.0
1588959951.0012493,0.93,-2.22,-9.587553456697542,-0.5788888888888889,0.08444444444444445,0.6844444444444444,0.0625,-1.2583136565394515,-0.8986045521798172
1588959951.0112493,0.9200170520428348,-2.21,-9.53,-0.5644444444444444,0.10444444444444444,0.6822222222222222,0.12489342473228293,-1.6247868494645659,-0.8751065752677171
1588959951.0212493,0.92955323647773,-2.21,-9.53,-0.5644444444444444,0.10444444444444444,0.6822222222222222,0.0652922720141873,-1.5055845440283746,-0.9347077279858127
1588959951.0312493,0.9561473560286471,-2.2230736780143237,-9.582294712057294,-0.5644444444444444,0.10444444444444444,0.6822222222222222,-0.06006573138428334,-1.6225657313842834,-0.8149342686157166
1588959951.0412493,0.97,-2.1969220965429344,-9.601730524135734,-0.5644444444444444,0.10444444444444444,0.6822222222222222,0.08173689660665923,-2.0492895690616537,-0.9567368966066592
1588959951.0512493,0.9623069997749268,-2.143841998649561,-9.55384199864956,-0.5644444444444444,0.10444444444444444,0.6822222222222222,0.02883749718658564,-2.8462187711006077,-1.3365687598469502
1588959951.0612493,0.96,-2.1102784476383394,-9.53013922381917,-0.545818533880654,0.09896623545509432,0.6822222222222222,0.0,-3.3706492556509438,-2.115428362432076
1588959951.0712492,0.9516298745681931,-2.131762326122698,-9.551762326122697,-0.5455555555555556,0.09888888888888887,0.6822222222222222,0.010462656789758558,-3.416850627159034,-2.3761037629542052
1588959951.0812492,0.9128891803520958,-2.2324881310845512,-9.652488131084551,-0.5455555555555556,0.09888888888888887,0.6822222222222222,0.0588885245598803,-3.610554098239521,-3.538324589437127
1588959951.0912492,0.91,-2.184707977207977,-9.595492640075973,-0.5455555555555556,0.09888888888888887,0.6822222222222222,-0.052691714150047475,-2.8762538580246915,-3.7401917141500474
1588959951.1012492,0.8951745836850588,-2.202238124472412,-9.582587291842529,-0.5455555555555556,0.09888888888888887,0.6822222222222222,0.07648827795257462,-2.024899758268744,-3.842658851968383
1588959951.1112492,0.8649845065160539,-2.184984506516054,-9.54247675977408,-0.5573684274785301,0.08985551624190834,0.6863914711362132,0.125,-1.3982196228820079,-3.7577398742940025
1588959951.1212492,0.909680501335525,-2.0932679268543253,-9.545577357715226,-0.5644444444444444,0.08444444444444445,0.6888888888888889,-0.03485848572015615,-0.3349214094925006,-3.5276415142798436
1588959951.1312492,0.92,-2.0332040283476314,-9.643591943304738,-0.5644444444444444,0.08444444444444445,0.6888888888888889,0.2299748228273032,1.0408942558746737,-3.2660201417381574
1588959951.1412492,0.8859985748526268,-2.0470007125736864,-9.632999287426314,-0.5644444444444444,0.08444444444444445,0.6888888888888889,0.14374554641445877,0.5937277320722938,-3.4093816803783117
1588959951.1512492,0.9300185793911676,-1.9070897731680925,-9.572835909267237,-0.5644444444444444,0.08444444444444445,0.6888888888888889,-0.18761612119479776,-0.7951239306641622,-3.3481811082300577
1588959951.1612492,0.97,-1.76,-9.48,-0.5377777777777778,0.1111111111111111,0.6733333333333333,-0.4375,-2.3125,-3.1875
1588959951.1712492,0.9694682422451993,-1.7597341211225996,-9.4798670605613,-0.5377777777777778,0.1111111111111111,0.6733333333333333,-0.4375,-2.33493353028065,-3.194977843426883
1588959951.1812491,0.9366591237664216,-1.69671569551826,-9.476659123766423,-0.5377777777777778,0.1111111111111111,0.6733333333333333,-0.39588047645986546,-4.041619523540135,-4.041336664780942
1588959951.1912491,0.95,-1.546117266508031,-9.463695345032718,-0.5377777777777778,0.1111111111111111,0.6733333333333333,-0.26552740184414036,-3.4438973267400357,-4.906835588935158
1588959951.2012491,1.0691177327699257,-1.2750677546262568,-9.406255646218854,-0.5377777777777778,0.1111111111111111,0.6733333333333333,-0.04432964811307008,-2.140695577735684,-6.205388040944193
1588959951.211249,1.1362498919899766,-1.0905357297157177,-9.400535729715719,-0.5494841441285752,0.10116069971293336,0.6903075645419895,0.1908483107232351,-4.0775700985051415,-8.998328544888965
1588959951.221249,1.0206694494066042,-1.1438493783052406,-9.388075310847379,-0.56,0.09222222222222222,0.7055555555555556,0.11297069279612304,-9.63127664090274,-12.680439608058155
1588959951.231249,1.1837708292872402,-0.9762291707127597,-9.2490110701107,-0.56,0.09222222222222222,0.7055555555555556,0.11939697028549233,-14.495552534472713,-15.44957273256943
1588959951.241249,0.9846268073466198,-0.7205080109417741,-9.216389214536928,-0.56,0.09222222222222222,0.7055555555555556,0.7939869089488082,-5.479655138726065,-16.214121727237202
1588959951.251249,0.78,-0.552724596255538,-9.198390167214521,-0.56,0.09222222222222222,0.7055555555555556,0.593073817350293,15.848851293411462,-16.609713091324853
1588959951.261249,0.796288036620793,-0.5325760732415857,-9.300304292966343,-0.548236417996094,0.08226842206507103,0.699221319091914,1.3073025176795094,31.99461361835735,-18.08500286099944
1588959951.271249,0.8343233242107697,-0.5125413406313842,-9.302541340631384,-0.5455555555555556,0.08,0.6977777777777778,1.3050750684192267,30.114284199976872,-20.777632694753883
1588959951.281249,0.874826552566055,-0.5434464669905963,-9.29,-0.5455555555555556,0.08,0.6977777777777778,1.4202489303067662,21.526157625643627,-24.39644674498997
1588959951.291249,0.9736600417197822,-0.6384491250434581,-9.305210916676325,-0.5455555555555556,0.08,0.6977777777777778,1.5625,7.870813535751536,-28.932149220651294
1588959951.301249,1.0641571257119997,-0.6407528622864,-9.3292471377136,-0.5455555555555556,0.08,0.6977777777777778,1.7228928142799993,-1.117328739069971,-31.92000838206999
1588959951.311249,1.115094635165122,-0.6601892703302441,-9.34754731758256,-0.5564572365081437,0.08335436337002712,0.6910690510377235,1.7181585302179871,-7.0000489492233395,-34.949329395640255
1588959951.321249,1.1273831735615174,-0.7216822149306226,-9.313084132192413,-0.56,0.08444444444444445,0.6888888888888889,1.6413551652405156,-5.089954749190418,-37.08527954706299
1588959951.331249,1.1011056057514816,-0.7746732730982221,-9.380904303895852,-0.56,0.08444444444444445,0.6888888888888889,1.7694719712425921,0.6425750510055384,-38.5279498202662
1588959951.341249,1.055966955901581,-0.7819752169261857,-9.397942172827765,-0.56,0.08444444444444445,0.6888888888888889,2.0252065256151193,9.156918608106501,-40.01363589088316
1588959951.351249,1.0355053522725481,-0.77,-9.365505352272548,-0.56,0.08444444444444445,0.6888888888888889,2.125,14.69114076713279,-41.124330965931485
1588959951.361249,1.03,-0.764227227885564,-9.339795297599473,-0.5577550330666082,0.083161606196792,0.6914545653841938,2.1430399128576125,17.411079825715227,-42.13721843143703
1588959951.371249,1.0508146057923018,-0.8041179750599845,-9.319140448109222,-0.5522222222222222,0.08,0.6977777777777778,2.239536514480754,16.433251453144536,-43.48388340204792
1588959951.381249,1.0961687247295377,-0.8934739372746148,-9.389642662004153,-0.5522222222222222,0.08,0.6977777777777778,2.379869686373074,14.011166812370233,-44.60369085345864
1588959951.391249,1.148583024527969,-0.9600405858478913,-9.461416975472032,-0.5522222222222222,0.08,0.6977777777777778,2.535678048350097,10.293012175754367,-46.01847317804835
1588959951.401249,1.2045726198749132,-1.003714384989576,-9.38314107018763,-0.5522222222222222,0.08,0.6977777777777778,2.5232149061848506,7.782118658790827,-47.06608321751216
1588959951.411249,1.305818730860837,-1.0401218526709766,-9.334546827152092,-0.5636972137159275,0.07665312748100261,0.7063840213980568,2.5625,5.4431646605988435,-48.350390226267436
1588959951.421249,1.323129731334422,-1.08,-9.397506308445896,-0.5788888888888889,0.07222222222222223,0.7177777777777777,2.597646393053288,4.902195895799317,-49.941159826332196
1588959951.431249,1.315121980224933,-1.0185362373008053,-9.426097822024397,-0.5788888888888889,0.07222222222222223,0.7177777777777777,2.7210371292174917,7.105193078726513,-51.105185646087456
1588959951.441249,1.32,-0.9502368828868718,-9.421184414434359,-0.5788888888888889,0.07222222222222223,0.7177777777777777,2.8430097409785255,11.070220832410893,-51.989636373699355
1588959951.451249,1.3368281278100833,-0.9512187518733889,-9.381218751873389,-0.5788888888888889,0.07222222222222223,0.7177777777777777,2.91005859960434,15.716308974282118,-52.89326179485642
1588959951.4612489,1.3698835125448028,-0.9467443249701314,-9.363488649940264,-0.5921445639187575,0.044974445771936815,0.7177777777777777,2.9375,19.28123133213859,-53.664239844683394
1588959951.4712489,1.357878984733887,-0.9842420305322259,-9.35,-0.5988888888888889,0.031111111111111114,0.7177777777777777,2.9835854484710684,21.47789255718992,-54.42802538165282
1588959951.4812489,1.377659929998871,-0.9239351925031049,-9.38457491249859,-0.5988888888888889,0.031111111111111114,0.7177777777777777,3.1728745624929435,22.196811843739415,-55.14362368747883
1588959951.4912488,1.429473794402959,-0.955789657338265,-9.38026310279852,-0.5988888888888889,0.031111111111111114,0.7177777777777777,3.25,20.544402959034127,-55.66282975085491
1588959951.5012488,1.5188150581101567,-1.0345273905418662,-9.34571233243171,-0.5988888888888889,0.031111111111111114,0.7177777777777777,3.3764982685848466,17.854024239812144,-56.24259411318848
1588959951.5112488,1.6223143660136043,-1.0930569019591871,-9.312314366013604,-0.5993174751877045,0.030168221253716754,0.7166634534008571,3.5673215958616757,14.975169035884486,-56.95214553378681
1588959951.5212488,1.644389037588735,-0.9931671127662051,-9.323167112766205,-0.6044444444444445,0.01888888888888889,0.7033333333333334,3.660068515070406,11.371883364366346,-58.54130178633772
1588959951.5312488,1.6164613598019237,-0.9682306799009619,-9.386500580643748,-0.6044444444444445,0.01888888888888889,0.7033333333333334,3.8346165012379765,12.154815508665834,-59.54062862902342
1588959951.5412488,1.6279776285272516,-0.9711910514109007,-9.400831320061847,-0.6044444444444445,0.01888888888888889,0.7033333333333334,4.007444071318129,12.909972035659065,-60.32963646356784
1588959951.5512488,1.654850567658791,-1.0188045412703284,-9.384551702976372,-0.6044444444444445,0.01888888888888889,0.7033333333333334,4.183764191469776,12.149282755446457,-60.83908023933722
1588959951.5612488,1.6774175858415903,-1.0843846201782266,-9.372131862653456,-0.6036703295181516,0.009986567236520498,0.7013980460176011,4.247184053094037,11.268956035396025,-60.78228017698012
1588959951.5712488,1.7222531293463144,-1.1626750115901714,-9.360843764487715,-0.6022222222222222,-0.006666666666666667,0.6977777777777778,4.176054705609643,11.238554705609642,-60.119726471951786
1588959951.5812488,1.7354931460484007,-1.137890336774412,-9.433520561854797,-0.6022222222222222,-0.006666666666666667,0.6977777777777778,4.1373286512100185,11.227996488407515,-59.242978930445084
1588959951.5912488,1.7482370586877933,-1.05,-9.417173294361971,-0.6022222222222222,-0.006666666666666667,0.6977777777777778,3.954407353280517,10.897036766402584,-58.26025882624413
1588959951.6012487,1.8004471430294744,-1.1011178575736862,-9.349776428485262,-0.6022222222222222,-0.006666666666666667,0.6977777777777778,3.8111026780328925,10.468051339016446,-57.081872763279584
1588959951.6112487,1.8417681195209286,-1.1173478207186072,-9.334557970119768,-0.6131062819826865,-0.02117874634728567,0.7086618375382421,3.715987313248549,10.505525373502902,-56.05230969872824
1588959951.6212487,1.86,-1.1313114006514657,-9.34180325732899,-0.6222222222222222,-0.03333333333333333,0.7177777777777777,3.6875,10.525614820846906,-54.73975570032573
1588959951.6312487,1.86547395895124,-1.1764218768537191,-9.410213548463638,-0.6222222222222222,-0.03333333333333333,0.7177777777777777,3.619075513109503,10.294726539328508,-53.09863269664255
1588959951.6412487,1.8812528294459208,-1.1956264147229603,-9.44874717055408,-0.6222222222222222,-0.03333333333333333,0.7177777777777777,3.5976650920185023,9.984339631925991,-50.87856141127842
1588959951.6512487,1.9067908010838601,-1.2377793024386854,-9.402220697561313,-0.6222222222222222,-0.03333333333333333,0.7177777777777777,3.5462931199194054,9.770057493225874,-48.50071866532342
1588959951.6612487,1.9543057433634616,-1.2869617820795674,-9.346961782079568,-0.6222222222222222,-0.04143524778782055,0.7248669529254541,3.3425556899864777,9.625,-45.77603462387019
1588959951.6712487,2.0363611091478786,-1.31690555280703,-9.350544443659151,-0.6222222222222222,-0.06,0.7411111111111112,3.0920486135651517,9.855659705043937,-42.006979291822745
1588959951.6812487,2.0988650900189514,-1.3888650900189514,-9.40318343335439,-0.6222222222222222,-0.06,0.7411111111111112,3.035510354153506,9.954541416614024,-39.39342452029375
1588959951.6912487,2.197685264475331,-1.4183248797839403,-9.446994927870364,-0.6222222222222222,-0.06,0.7411111111111112,2.8916243989197024,9.947969501350372,-36.85374398919702
1588959951.7012486,2.207611687486767,-1.3480893499894135,-9.377611687486766,-0.6222222222222222,-0.06,0.7411111111111112,2.7172573046792294,9.63385957018844,-34.389733749735335
1588959951.7112486,2.170283841640679,-1.340851524922036,-9.319716158359322,-0.6313634147917144,-0.06,0.7502523036806034,2.5803766495762637,8.309088526525363,-32.81618456754233
1588959951.7212486,2.2154495614035086,-1.4254495614035088,-9.315905975877193,-0.6488888888888888,-0.06,0.7677777777777778,2.3650587650767543,6.585235060307017,-31.18758566337719
1588959951.7312486,2.337383723037883,-1.5410755845568245,-9.425232553924234,-0.6488888888888888,-0.06,0.7677777777777778,2.3519258655066158,6.591842260286388,-27.948492160594526
1588959951.7412486,2.3024895638405067,-1.4879833021448108,-9.46948538937671,-0.6488888888888888,-0.06,0.7677777777777778,2.390559774003167,6.9498434576076,-25.5150379660285
1588959951.7512486,2.29712428096897,-1.4645491371627644,-9.380300575224824,-0.6488888888888888,-0.06,0.7677777777777778,2.0321892975775744,5.73243310985984,-21.802447490480436
1588959951.7612486,2.371232095627383,-1.5624641912547659,-9.33748806375159,-0.6505529030559085,-0.05667197166596061,0.7948180079918479,1.7579990038814275,4.5861986054339985,-18.135087847353415
1588959951.7712486,2.402559321136849,-1.5958135596210505,-9.35,-0.6533333333333333,-0.05111111111111112,0.84,1.4840042428946951,4.4433262618421745,-14.206250110262337
1588959951.7812486,2.432233789208682,-1.614467578417364,-9.386701367626046,-0.6533333333333333,-0.05111111111111112,0.84,1.3558847043614344,4.682345886915697,-10.992043444240322
1588959951.7912486,2.46,-1.6653439256376998,-9.4374074794639,-0.6533333333333333,-0.05111111111111112,0.84,1.2251986057068742,4.579696281884998,-6.874673043666235
1588959951.8012486,2.452420728352954,-1.6751585432940916,-9.381051820882385,-0.6533333333333333,-0.05111111111111112,0.84,0.9828886566178898,3.7440546264715593,-3.6348126856639897
1588959951.8112485,2.4691832104367553,-1.7291832104367555,-9.362970315749669,-0.6331572866116258,-0.03778050881284007,0.8889989706098611,0.689201644923426,2.2855809226696917,-0.24350066175080354
1588959951.8212485,2.5093206530157057,-1.765184783618847,-9.377592391809424,-0.5911111111111111,-0.01,0.9911111111111112,0.43325408134816146,1.0841032650785292,3.9259510238220625
1588959951.8312485,2.508061782339193,-1.758061782339193,-9.40209267350879,-0.5911111111111111,-0.01,0.9911111111111112,0.22076897673000712,0.03133827863022043,7.761937303119602
1588959951.8412485,2.52712662779927,-1.78141775186618,-9.43712662779927,-0.5911111111111111,-0.01,0.9911111111111112,-0.00023667792731432713,-1.4022928812728164,11.07325437258214
1588959951.8512485,2.5263448396705797,-1.77,-9.40365516032942,-0.5911111111111111,-0.01,0.9911111111111112,-0.25,-1.9375,14.404634659190467
1588959951.8612485,2.5442785073076637,-1.7871644780770086,-9.359974775576823,-0.5323068806620999,-0.030025224423176795,1.011136335534288,-0.26787966466355073,-2.0268983233177535,17.24208490985978
1588959951.8712485,2.5418808642115542,-1.8329702160528887,-9.336731944475998,-0.3855555555555555,-0.08,1.0611111111111111,-0.2939361496694459,-2.0272337960333506,20.15962866619715
1588959951.8812485,2.565694042120097,-1.8356940421200971,-9.41507085257966,-0.3855555555555555,-0.08,1.0611111111111111,-0.2634561183746966,-1.4730877632506068,22.971849800360136
1588959951.8912485,2.55,-1.8206974115519385,-9.467210353792247,-0.3855555555555555,-0.08,1.0611111111111111,-0.3255764665988471,-1.4273058663953884,25.54935288798463
1588959951.9012485,2.55,-1.8325518414435735,-9.412137109894985,-0.3855555555555555,-0.08,1.0611111111111111,-0.547847027067002,-2.4918272075136816,28.48106234284869
1588959951.9112484,2.55,-1.838755509540009,-9.368711433219937,-0.3855555555555555,-0.08,1.0611111111111111,-0.6641658038751664,-3.3836044963762757,29.954433515752108
1588959951.9212484,2.497996754893013,-1.9019870195720514,-9.36,-0.3711111111111111,-0.25,0.88,-1.1000608457560086,-5.100365074536051,33.163372122502786
1588959951.9312484,2.4860956298998684,-1.873904370100132,-9.372689202825429,-0.3711111111111111,-0.25,0.88,-1.280502891407281,-6.0854080959403865,35.53822139641388
1588959951.9412484,2.465928419258628,-1.9545995739241584,-9.496371367703452,-0.3711111111111111,-0.25,0.88,-1.6620526203664252,-7.014373668512995,38.46124201107797
1588959951.9512484,2.5012759585964455,-2.0512759585964453,-9.507448082807109,-0.3711111111111111,-0.25,0.88,-1.8856329883037128,-7.275284540937005,40.382912353796414
1588959951.9612484,2.5285808215610963,-2.078580821561096,-9.452838356877807,-0.3711111111111111,-0.25,0.88,-2.113173513009136,-6.478892704468025,43.2271689126142
1588959951.9712484,2.4380118238048047,-2.057017735707207,-9.41115299183269,-0.5111111111111111,-0.3377777777777778,0.7288888888888889,-2.400845350784267,-6.643639151829956,46.218565253049924
1588959951.9812484,2.3500422318278926,-1.965834948079694,-9.417293685099619,-0.5111111111111111,-0.3377777777777778,0.7288888888888889,-2.9018234212749046,-8.742466587171462,48.81355579569732
1588959951.9912484,2.3726993249407045,-2.075674831235176,-9.56,-0.5111111111111111,-0.3377777777777778,0.7288888888888889,-3.0996938286808975,-10.251726133461048,50.731598362525084
1588959952.0012484,2.299077667004955,-2.0021035560066065,-9.481919089407597,-0.5111111111111111,-0.3377777777777778,0.7288888888888889,-3.439805832487613,-10.92435277495871,52.510376246194255
1588959952.0112484,2.208178844056707,-1.9081679389312978,-9.370894220283533,-0.5244395977220404,-0.32687265236883556,0.6992027141645463,-3.6534214830970555,-12.227099236641221,54.01690294438386
1588959952.0212483,2.225842071139529,-2.055737217465179,-9.459210355697646,-0.56,-0.2977777777777777,0.62,-3.7184223322676564,-13.396051778488228,56.07599515973977
1588959952.0312483,2.2079551479326,-2.12722691124044,-9.45649867454828,-0.56,-0.2977777777777777,0.62,-3.997724260337,-12.632701331545752,58.14741079862275
1588959952.0412483,2.176004905694872,-2.146397056583077,-9.526789207471282,-0.56,-0.2977777777777777,0.62,-4.157475471525641,-10.995251416862184,59.86473631890064
1588959952.0512483,2.031033622252907,-2.0965379560465154,-9.484134489011629,-0.56,-0.2977777777777777,0.62,-4.21980069540335,-8.875,63.35320625863015
1588959952.0612483,2.0380114458733303,-2.2081831339732823,-9.51204578349332,-0.56,-0.2977777777777777,0.62,-4.437857683541566,-8.875,65.31571915187409
1588959952.0712483,1.8757836171068507,-2.271859833757876,-9.485248357688699,-0.5611111111111111,-0.22333333333333333,0.5988888888888889,-4.897213098270545,-10.140763255798364,69.51034823702909
1588959952.0812483,1.657688780826676,-2.246544633553317,-9.548077804793332,-0.5611111111111111,-0.22333333333333333,0.5988888888888889,-5.486365346763923,-13.116084867430821,75.10879066805603
1588959952.0912483,1.7186484366644086,-2.0632421833220436,-9.510134764162714,-0.5611111111111111,-0.22333333333333333,0.5988888888888889,-5.891894541694891,-16.677392687796356,80.09884042211844
1588959952.1012483,1.6778889585011485,-1.8984107521107432,-9.45473432978311,-0.5611111111111111,-0.22333333333333333,0.5988888888888889,-6.259873131656672,-20.776477520212417,83.31255966765119
1588959952.1112483,1.5078188431303532,-1.5060150964058039,-9.385901873362274,-0.5650960147053072,-0.20783648602257074,0.5960109029597472,-6.362783057608823,-27.124056474637257,86.24740530525246
1588959952.1212482,1.6985066666666666,-1.4914933333333333,-9.488133333333334,-0.5811111111111111,-0.14555555555555555,0.5844444444444444,-6.057833333333333,-27.796,89.10733333333333
1588959952.1312482,1.6203837279902853,-1.5696162720097147,-9.473013560008095,-0.5811111111111111,-0.14555555555555555,0.5844444444444444,-6.123201275045537,-15.928610099170209,92.70033900020239
1588959952.1412482,1.4399709631078643,-1.6472965125164287,-9.458895375492862,-0.5811111111111111,-0.14555555555555555,0.5844444444444444,-6.5,-8.471112112968793,94.9663878870312
1588959952.1512482,1.2155815984012106,-1.6890878752013039,-9.292594152001397,-0.5811111111111111,-0.14555555555555555,0.5844444444444444,-6.675313840004657,-9.789592590077417,97.32949805002038
1588959952.1612482,1.3414209377341892,-1.7579088332084325,-9.412091166791567,-0.5737473888472553,-0.11794159706609611,0.5844444444444444,-7.017258724055912,-17.51742774754814,99.19872682545372
1588959952.1712482,1.4301062907162017,-1.6164464210080474,-9.446127548859442,-0.5544444444444444,-0.045555555555555564,0.5844444444444444,-6.913297180371513,-24.022874185675963,100.74800704907122
1588959952.1812482,1.3939662099772903,-1.5533547952384517,-9.455253425170323,-0.5544444444444444,-0.045555555555555564,0.5844444444444444,-6.6875,-23.493664370741932,101.38792237528386
1588959952.1912482,1.3747695938858084,-1.7078456091712872,-9.549539187771618,-0.5544444444444444,-0.045555555555555564,0.5844444444444444,-6.6875,-19.976023949123334,101.51346494267945
1588959952.2012482,1.3561613323629471,-1.7325591117580352,-9.518720444120982,-0.5544444444444444,-0.045555555555555564,0.5844444444444444,-6.6875,-17.306878670683613,101.3483425858538
1588959952.2112482,1.2922703654181407,-1.7751530897212398,-9.49742345513938,-0.5544444444444444,-0.045555555555555564,0.5844444444444444,-6.6875,-15.132811045478395,100.90465531540376
1588959952.2212481,1.2110439884200548,-1.8351177209028258,-9.442558860451413,-0.5466666666666666,-0.008888888888888889,0.62,-6.6875,-13.583962608561986,99.54903383034868
1588959952.2312481,1.0732126157225796,-1.893031539306449,-9.49018107641613,-0.5466666666666666,-0.008888888888888889,0.62,-6.645078848266123,-15.268527381139181,98.2678153930645
1588959952.2412481,1.0232728928119503,-1.8052208265177,-9.5304416530354,-0.5466666666666666,-0.008888888888888889,0.62,-6.452434917132187,-18.21687602234499,97.25828099441375
1588959952.2512481,0.9779654948921329,-1.7922758556834666,-9.504551711366933,-0.5466666666666666,-0.008888888888888889,0.62,-6.492887950989167,-20.158621647480015,96.77284458813
1588959952.261248,0.8803818948206307,-1.8007637896412614,-9.48717585976084,-0.5466666666666666,0.00037299017272604887,0.6214249044710177,-6.407443421314471,-23.343028067731606,96.0348302639434
1588959952.271248,0.8348551838920346,-1.7097103677840693,-9.426473578522712,-0.5466666666666666,0.04421352662248514,0.6281696023863653,-6.265172449662608,-24.670890469815657,95.60801734898783
1588959952.281248,0.7724041090828468,-1.7548082181656937,-9.48404109082847,-0.5466666666666666,0.048888888888888885,0.6288888888888889,-6.0,-25.342551363535584,95.79507704530337
1588959952.291248,0.7762288492706645,-1.7713468395461913,-9.560269367909239,-0.5466666666666666,0.048888888888888885,0.6288888888888889,-5.998316450567261,-25.425715153970827,95.93076580226905
1588959952.301248,0.6262963530493411,-1.82,-9.554012411890898,-0.5466666666666666,0.048888888888888885,0.6288888888888889,-5.894676103279191,-24.857253677597303,95.58757757431812
1588959952.311248,0.5781108369709622,-1.827556652116151,-9.502518884038716,-0.5451273486430063,0.05182758693405875,0.6292387338942663,-5.75,-24.296284873790093,95.22244970582653
1588959952.321248,0.5149295488416205,-1.9546126879826582,-9.545845075193062,-0.5222222222222223,0.09555555555555556,0.6344444444444445,-5.7865317199566455,-22.613555920606963,94.64810726019509
1588959952.331248,0.4298873155904811,-1.990394395433316,-9.560338053228557,-0.5222222222222223,0.09555555555555556,0.6344444444444445,-5.873591444881014,-21.363379420268366,94.24330936318482
1588959952.341248,0.3995933224335255,-2.0547966612167627,-9.612194991825143,-0.5222222222222223,0.09555555555555556,0.6344444444444445,-5.559958265209534,-18.792166121676274,92.72103089235006
1588959952.351248,0.37071938731606574,-2.040359693658033,-9.590539540487049,-0.5222222222222223,0.09555555555555556,0.6344444444444445,-5.379496170725411,-17.348469365803286,91.77360489630841
1588959952.361248,0.2806879247255619,-2.0518624150548876,-9.546895974908521,-0.5207046988441657,0.09921140732996457,0.6363068594993321,-5.308619968635651,-15.660339780449556,90.30515943544171
1588959952.371248,0.14913643491897544,-2.078172713016205,-9.503045478306325,-0.49926667828309235,0.1508575477725504,0.6626171574606493,-5.253806847882906,-15.276647935180344,89.31852326189231
1588959952.381248,0.0005896702557200532,-2.18205774730821,-9.60117934051144,-0.4977777777777778,0.15444444444444444,0.6644444444444444,-5.174639079323688,-16.26293715301144,89.36033447594212
1588959952.391248,0.03365610922931871,-2.13196982924189,-9.646594266159164,-0.4977777777777778,0.15444444444444444,0.6644444444444444,-5.2896493173167585,-17.900773038376926,90.30175341341621
1588959952.401248,0.05562576387191395,-1.9635358103153262,-9.566038865802982,-0.4977777777777778,0.15444444444444444,0.6644444444444444,-5.152338975800538,-19.182336225861647,90.98830512099731
1588959952.411248,0.012878845838570414,-1.8506437510246463,-9.50712115416143,-0.49593851515869114,0.15636367500349138,0.6654840276639281,-5.21401442701787,-20.6519891797366,90.71851262364063
1588959952.421248,0.04344007869282475,-1.7513197442483195,-9.476559921307176,-0.47641328305736197,0.17673783023966094,0.6765200284168533,-4.831999016339691,-20.938500737745233,90.38424913929722
1588959952.431248,-0.05475506740651755,-1.7873775337032587,-9.470328547184563,-0.4722222222222222,0.1811111111111111,0.6788888888888889,-4.803278082870927,-20.7248917872738,89.36116712430639
1588959952.441248,-0.2147115916328204,-1.8673557958164102,-9.582298114142974,-0.4722222222222222,0.1811111111111111,0.6788888888888889,-4.703305255229488,-19.77514992468013,89.21120788284423
1588959952.451248,-0.4037510749417958,-2.0297493550349226,-9.57837510749418,-0.4722222222222222,0.1811111111111111,0.6788888888888889,-4.510155578161378,-16.323465717222142,89.89061156322755
1588959952.461248,-0.3273088856614735,-2.062724452072881,-9.564684446791656,-0.47155777807117916,0.18273530792477188,0.6792580245283573,-4.554194448111962,-14.008722273567468,90.98318053538421
1588959952.471248,-0.43,-1.82,-9.49,-0.4622222222222222,0.20555555555555555,0.6844444444444444,-4.4375,-12.375,91.625
1588959952.481248,-0.40586336509105414,-1.7717267301821082,-9.538273269817891,-0.4622222222222222,0.20555555555555555,0.6844444444444444,-4.407329206363817,-13.823198094536751,90.99141333364017
1588959952.491248,-0.38774276733111224,-1.7308398742635571,-9.593097106932445,-0.4622222222222222,0.20555555555555555,0.6844444444444444,-4.375,-15.771816825719503,90.08989543923052
1588959952.501248,-0.42721704594650556,-1.7861038643251077,-9.608886818378602,-0.4622222222222222,0.20555555555555555,0.6844444444444444,-4.375,-17.794873604758408,88.95500992903797
1588959952.5112479,-0.5596877821603383,-1.8826341301145273,-9.535892695908377,-0.4622222222222222,0.20555555555555555,0.6844444444444444,-4.259207337356841,-18.690152307180536,87.83286603621157
1588959952.5212479,-0.6342949659638741,-1.89,-9.53,-0.43453966743222083,0.23323811034555691,0.6844444444444444,-4.1495391156814465,-18.549078231362895,86.8960824832923
1588959952.5312479,-0.7213210876714526,-1.922311903425042,-9.512972447260768,-0.42777777777777776,0.24,0.6844444444444444,-3.9333716010267104,-17.39415181078046,85.67305060359348
1588959952.5412478,-0.7549643057672255,-1.9811875350926447,-9.588669687976257,-0.42777777777777776,0.24,0.6844444444444444,-3.8282365444774205,-16.290233717012914,85.30507790567097
1588959952.5512478,-0.9460238507314066,-2.1337457028379054,-9.6,-0.42777777777777776,0.24,0.6844444444444444,-3.865347684866877,-15.913609260532493,84.29874167239622
1588959952.5612478,-0.8543087911828007,-1.9924117215770676,-9.566482344315414,-0.42777777777777776,0.24,0.6844444444444444,-3.6655146519713346,-16.71294139211466,82.97283058584235
1588959952.5712478,-0.975487940806792,-1.8920843313491593,-9.50604216567458,-0.4977777777777778,0.24,0.6933333333333334,-3.4103727440889795,-16.14202753337918,80.73404558066734
1588959952.5812478,-1.3035602311180683,-2.0697251444487925,-9.604109942220482,-0.4977777777777778,0.24,0.6933333333333334,-3.3125,-14.740592124951084,80.12843569439009
1588959952.5912478,-1.2298208972752898,-2.0256375274036955,-9.618545842467897,-0.4977777777777778,0.24,0.6933333333333334,-3.303411515424366,-15.305650299483245,80.7340618149076
1588959952.6012478,-1.1723512370811149,-2.0010076730347635,-9.610335891011587,-0.4977777777777778,0.24,0.6933333333333334,-3.252099318822424,-15.972708855308488,81.34980817413091
1588959952.6112478,-1.2598704232344544,-2.009985602581606,-9.56007198709197,-0.4977777777777778,0.24,0.6933333333333334,-3.187589983864962,-14.065289499813826,80.8757198709197
1588959952.6212478,-1.3644984896003696,-2.0262613279972292,-9.536504531198892,-0.6711111111111111,0.25555555555555554,0.6055555555555555,-3.1734422199988455,-11.924962240009236,79.92819107998383
1588959952.6312478,-1.3823560135115955,-1.9081151891907235,-9.49518322972551,-0.6711111111111111,0.25555555555555554,0.6055555555555555,-3.119109966221011,-12.28010481421556,79.1999347128786
1588959952.6412477,-1.4534749943933618,-1.8527850041115348,-9.58904500261643,-0.6711111111111111,0.25555555555555554,0.6055555555555555,-3.0,-11.703249981311206,78.1092500186888
1588959952.6512477,-1.5710546086566495,-1.7665599536517904,-9.53417451596023,-0.6711111111111111,0.25555555555555554,0.6055555555555555,-3.0,-12.095182028855499,77.7173179711445
1588959952.6612477,-1.45379412280482,-1.6726267004033368,-9.510583711200741,-0.6711111111111111,0.25555555555555554,0.6055555555555555,-3.1213518049953652,-12.36770360999073,78.4156108299722
1588959952.6712477,-1.4133310300577464,-1.583999309017324,-9.448666896994224,-1.2,0.2611111111111111,-0.04777777777777778,-2.983336212427817,-12.208340531069542,79.00833189378609
1588959952.6812477,-1.5499659015493055,-1.6427901228917319,-9.466544385198068,-1.2,0.2611111111111111,-0.04777777777777778,-2.8847589651463488,-12.044848616609835,79.05274103485365
1588959952.6912477,-1.8219671304111609,-1.823934260822322,-9.607049304383258,-1.2,0.2611111111111111,-0.04777777777777778,-2.931352717465122,-12.643441847604633,79.07376739041854
1588959952.7012477,-1.8382439800531658,-1.8564879601063315,-9.582634029920252,-1.2,0.2611111111111111,-0.04777777777777778,-2.8804875623338573,-12.796037312998429,79.68414925199372
1588959952.7112477,-1.8493169990787084,-1.766830009212918,-9.524098005527751,-1.2,0.2611111111111111,-0.04777777777777778,-2.8167687557580736,-11.939031336371107,80.68169990787082
1588959952.7212477,-1.7633788983765164,-1.6664534393667314,-9.469223622970645,-0.4544444444444444,1.42,0.2533333333333333,-3.0730590574266134,-11.92903672078279,80.58447245941291
1588959952.7312477,-1.6711525634917725,-1.535799464946678,-9.353940704364716,-0.4544444444444444,1.42,0.2533333333333333,-2.7848517609117893,-15.003247883607578,78.27881408729432
1588959952.7412477,-1.5109430816861158,-1.5889521314598716,-9.66779947606573,-0.4544444444444444,1.42,0.2533333333333333,-2.6848803286496783,-10.697323767563706,75.06605739461777
1588959952.7512476,-1.5858591331269352,-1.5057120743034056,-9.492995356037152,-0.4544444444444444,1.42,0.2533333333333333,-2.476780185758514,-11.477699303405572,70.38380417956657
1588959952.7612476,-1.5546406398781185,-1.4770401828223196,-9.479439725766522,-0.4544444444444444,1.42,0.2533333333333333,-2.4375,-10.612514282993715,65.89555084745763
1588959952.7712476,-1.728099983110961,-1.4898099983110962,-9.430570005066711,-0.26624946048903153,0.7332533918820019,0.750784402034191,-2.1279687763891233,-9.257718818611721,57.49925054889377
1588959952.7812476,-1.678447198390001,-1.438447198390001,-9.41527062811143,-0.2644444444444444,0.7266666666666667,0.7555555555555555,-2.0329414256964307,-8.651619267026797,52.604424849062596
1588959952.7912476,-1.6407081388440974,-1.4690895357718747,-9.599089535771874,-0.2644444444444444,0.7266666666666667,0.7555555555555555,-1.932441865399304,-7.4210610625477385,44.73662798098956
1588959952.8012476,-1.6905428159212423,-1.405016379529831,-9.53501637952983,-0.2644444444444444,0.7266666666666667,0.7555555555555555,-1.5764798862768394,-6.264184630399728,39.397198294152595
1588959952.8112476,-1.880321166859507,-1.362071456120052,-9.465178640300131,-0.2644444444444444,0.7266666666666667,0.7555555555555555,-1.2133932015006486,-5.364286403001297,30.925456242768487
1588959952.8212476,-2.243385757423251,-1.4679212380473075,-9.342267740312028,-0.16633422803780126,0.4683097634625063,0.7762677123525135,-1.126181114745848,-4.024803409662808,25.159351409159537
1588959952.8312476,-1.7318206946026924,-1.2989253913997554,-9.46214921720049,-0.16444444444444445,0.4633333333333333,0.7766666666666666,-1.1962695699877621,-2.8037304300122377,22.953926129889858
1588959952.8412476,-1.829169093134152,-1.2900755369878043,-9.479848926024392,-0.16444444444444445,0.4633333333333333,0.7766666666666666,-0.7537768493902182,-3.246223150609782,18.971491644511964
1588959952.8512475,-1.838002655684705,-1.3780292125317526,-9.488002655684705,-0.16444444444444445,0.4633333333333333,0.7766666666666666,-0.699983401970595,-2.1496348433530907,14.986188755677007
1588959952.8612475,-1.9176916536137838,-1.407062877601253,-9.447622734392482,-0.16444444444444445,0.4633333333333333,0.7766666666666666,-0.5550710449765048,-1.5218561199373462,10.336132244349965
1588959952.8712475,-2.099713283761405,-1.363214598824561,-9.364500438354385,-0.18523795607797297,0.41030987866783564,0.7631508841048732,-0.3830364970614021,-0.9071459882456083,4.192441633925382
1588959952.8812475,-2.031046704599336,-1.3126280227596017,-9.573173897581793,-0.18666666666666668,0.4066666666666667,0.7622222222222222,-0.22696257112375534,0.21060781175912746,1.6544385668563302
1588959952.8912475,-1.499038579301898,-0.9715248009797918,-9.073417023882424,-0.18666666666666668,0.4066666666666667,0.7622222222222222,-0.41560777709736685,1.298377219840784,-1.6747933251684017
1588959952.9012475,-1.8458322744599744,-1.267322842341902,-9.484341706578048,-0.18666666666666668,0.4066666666666667,0.7622222222222222,0.13341193431727105,3.4683437591633273,-4.744483677059916
1588959952.9112475,-1.97,-1.2987610831536065,-9.352168224299065,-0.18666666666666668,0.4066666666666667,0.7622222222222222,-0.08821890726096338,-1.4405403786244904,-8.519080996884735
1588959952.9212475,-2.2015347094164537,-1.3323362679198145,-9.337956992445422,-0.17479309182479727,0.3670880838604353,0.7760747262044032,0.36223120278389154,3.1027006126940693,-10.967619787639046
1588959952.9312475,-2.0367445619233617,-1.3335581520641122,-9.607673917435518,-0.17333333333333334,0.3622222222222222,0.7777777777777778,0.15566915280490268,2.1659918176308173,-12.896508182369184
1588959952.9412475,-1.9134217654557042,-1.0481700127469726,-9.36041148820905,-0.17333333333333334,0.3622222222222222,0.7777777777777778,0.673490778362014,1.6019558636073932,-16.62077009639898
1588959952.9512475,-1.916160895463769,-1.1440223865942265,-9.464826863913071,-0.17333333333333334,0.3622222222222222,0.7777777777777778,0.7739944033514433,3.1122070759965963,-18.535195882699483
1588959952.9612474,-1.9707617837893507,-1.2653808918946754,-9.503857324315975,-0.17333333333333334,0.3622222222222222,0.7777777777777778,0.2741082769748361,4.832810515294037,-19.969864653781453
1588959952.9712474,-1.7595937136688258,-1.2994924015944196,-9.421015196811162,-0.17333333333333334,0.36655386702098214,0.7748900145786045,0.6091375498256104,2.9977773106626806,-22.992705219232686
1588959952.9812474,-2.0180213572699834,-1.426406407180995,-9.516406407180995,-0.17333333333333334,0.3688888888888889,0.7733333333333333,0.8162433258531301,4.478275168304573,-28.86336860636075
1588959952.9912474,-2.0672485862926937,-1.5883064917439493,-9.575872879439041,-0.17333333333333334,0.3688888888888889,0.7733333333333333,0.8707009160823344,5.493714657317349,-31.793643971952047
1588959953.0012474,-2.3539009438552108,-1.6378534591806946,-9.523219811228957,-0.17333333333333334,0.3688888888888889,0.7733333333333333,1.40731426972852,4.852747640361973,-35.31217767831079
1588959953.0112474,-2.39321402839172,-1.5935719432165598,-9.458095924288745,-0.17333333333333334,0.3688888888888889,0.7733333333333333,1.3407748817011664,6.360101892781337,-36.32216350554008
1588959953.0212474,-1.77,-1.52,-9.47,-0.1811111111111111,0.3333333333333333,0.7733333333333333,1.4375,6.25,-34.5625
1588959953.0312474,-1.7841833911383034,-1.5094937843419975,-9.4663228245197,-0.1811111111111111,0.3333333333333333,0.7733333333333333,1.424367230427497,6.3320798098281434,-34.50996892170999
1588959953.0412474,-2.051148702058368,-1.2921282448540805,-9.505912669554494,-0.1811111111111111,0.3333333333333333,0.7733333333333333,1.3268587757295982,10.251278575267968,-33.214103060676
1588959953.0512474,-2.0067875428426354,-1.3705124190750222,-9.536787542842635,-0.1811111111111111,0.3333333333333333,0.7733333333333333,1.2896876190073203,11.596250476029281,-32.161484999788435
1588959953.0612473,-2.032864949981475,-1.4190450166728417,-9.506984994442385,-0.1811111111111111,0.3333333333333333,0.7733333333333333,1.143843784735087,8.131564931456095,-31.625
1588959953.0712473,-1.7882700659482065,-1.3776511983271675,-9.438832636319768,-0.1847054224080925,0.33620878237091845,0.7683012975175594,1.2058720041820814,3.2136958138973784,-32.55502804809394
1588959953.0812473,-1.6349579223786779,-1.2642005251948805,-9.435294543349254,-0.18666666666666668,0.3377777777777778,0.7655555555555555,1.218487014866737,0.9033571635341067,-34.165454479664206
1588959953.0912473,-1.590787951544254,-1.1438586343628359,-9.59417148677653,-0.18666666666666668,0.3377777777777778,0.7655555555555555,1.3508835352322748,4.810471916039143,-36.6796059332824
