time,acc_x,acc_y,acc_z,mag_x,mag_y,mag_z,gyr_x,gyr_y,gyr_z
1589380547.9113019,-0.04,-4.13,8.79,0.4977777777777778,0.22,-0.7766666666666666,-0.0625,0.0,0.0
1589380547.9210038,-0.03,-4.1,8.86,0.49,0.22666666666666666,-0.7833333333333333,-0.0625,0.0,-0.0625
1589380547.9290311,-0.03,-4.11,8.87,0.49,0.22666666666666666,-0.7833333333333333,0.0625,-0.1875,0.0625
1589380547.9392893,-0.03,-4.1,8.78,0.49,0.22666666666666666,-0.7833333333333333,0.125,-0.1875,-0.1875
1589380547.9508085,0.01,-4.02,8.79,0.49,0.22666666666666666,-0.7833333333333333,0.125,0.1875,-1.0625
1589380547.9659708,0.03,-3.97,8.82,0.49,0.22666666666666666,-0.7833333333333333,0.1875,0.375,-2.5
1589380547.9726655,0.01,-3.93,8.86,0.51,0.21333333333333332,-0.7555555555555555,0.375,0.3125,-3.9375
1589380547.984092,-0.06,-3.97,8.92,0.51,0.21333333333333332,-0.7555555555555555,0.125,0.3125,-6.0
1589380547.990293,-0.06,-4.05,8.79,0.51,0.21333333333333332,-0.7555555555555555,0.125,0.625,-7.625
1589380548.000473,-0.05,-4.13,8.86,0.51,0.21333333333333332,-0.7555555555555555,0.0625,0.625,-8.3125
1589380548.0113351,-0.02,-4.25,8.83,0.51,0.21333333333333332,-0.7555555555555555,-0.125,0.8125,-8.125
1589380548.0227873,-0.04,-4.33,8.86,0.49,0.22,-0.7622222222222222,0.1875,0.75,-6.3125
1589380548.0292974,-0.05,-4.27,8.78,0.49,0.22,-0.7622222222222222,-0.0625,0.375,-3.75
1589380548.0421307,-0.03,-4.15,8.71,0.49,0.22,-0.7622222222222222,-0.0625,0.4375,-1.8125
1589380548.0497015,-0.03,-4.11,8.67,0.49,0.22,-0.7622222222222222,0.0,0.4375,-0.6875
1589380548.063605,-0.07,-4.11,8.77,0.49,0.22,-0.7622222222222222,-0.125,0.5625,-0.25
1589380548.070189,-0.06,-4.08,8.83,0.4977777777777778,0.22,-0.7911111111111111,-0.0625,0.5625,-0.125
1589380548.0803251,-0.07,-3.99,8.87,0.4977777777777778,0.22,-0.7911111111111111,0.0,0.375,-0.125
1589380548.0956564,-0.07,-4.01,8.81,0.4977777777777778,0.22,-0.7911111111111111,0.0,0.0625,0.125
1589380548.1019905,0.0,-4.17,8.9,0.4977777777777778,0.22,-0.7911111111111111,0.0625,-0.25,0.125
1589380548.1175106,0.02,-4.2,8.88,0.4977777777777778,0.22,-0.7911111111111111,0.125,-0.375,0.25
1589380548.1241539,0.01,-4.13,8.88,0.5166666666666667,0.20555555555555555,-0.7911111111111111,-0.1875,-0.5625,0.1875
1589380548.1354039,0.02,-4.18,8.84,0.5166666666666667,0.20555555555555555,-0.7911111111111111,-0.0625,-0.125,0.125
1589380548.141568,-0.02,-4.12,8.7,0.5166666666666667,0.20555555555555555,-0.7911111111111111,-0.125,0.3125,-0.1875
1589380548.1541526,-0.03,-4.12,8.73,0.5166666666666667,0.20555555555555555,-0.7911111111111111,-0.0625,0.1875,-0.0625
1589380548.163001,-0.04,-4.11,8.74,0.5166666666666667,0.20555555555555555,-0.7911111111111111,0.0,0.3125,0.0
1589380548.1742446,-0.02,-4.13,8.84,0.4833333333333333,0.22,-0.7688888888888888,0.0,0.3125,-0.1875
1589380548.1808505,-0.02,-4.13,8.88,0.4833333333333333,0.22,-0.7688888888888888,-0.0625,0.1875,-0.1875
1589380548.1930554,0.0,-4.11,8.79,0.4833333333333333,0.22,-0.7688888888888888,-0.0625,-0.375,-0.125
1589380548.2003796,-0.02,-4.12,8.81,0.4833333333333333,0.22,-0.7688888888888888,0.0625,-0.5625,0.125
1589380548.2127109,-0.02,-4.12,8.86,0.4833333333333333,0.22,-0.7688888888888888,-0.125,-0.6875,0.0
1589380548.2204852,-0.02,-4.12,8.84,0.49,0.23222222222222225,-0.7833333333333333,-0.125,-0.375,0.0
1589380548.2343025,-0.04,-4.12,8.86,0.49,0.23222222222222225,-0.7833333333333333,0.0,-0.25,0.125
1589380548.2410812,-0.01,-4.1,8.73,0.49,0.23222222222222225,-0.7833333333333333,0.0625,0.1875,0.0625
1589380548.2529266,-0.03,-4.13,8.8,0.49,0.23222222222222225,-0.7833333333333333,-0.25,0.5,0.0625
1589380548.2626107,-0.03,-4.11,8.81,0.49,0.23222222222222225,-0.7833333333333333,0.0625,0.625,0.0625
1589380548.273449,-0.03,-4.13,8.84,0.49,0.22666666666666666,-0.7833333333333333,0.0625,0.4375,-0.0625
1589380548.2809381,-0.01,-4.13,8.78,0.49,0.22666666666666666,-0.7833333333333333,0.125,-0.0625,0.0625
1589380548.29078,-0.03,-4.12,8.73,0.49,0.22666666666666666,-0.7833333333333333,0.0625,-0.125,-0.0625
1589380548.3045595,-0.01,-4.12,8.79,0.49,0.22666666666666666,-0.7833333333333333,0.125,-0.3125,-0.0625
1589380548.3132794,-0.01,-4.11,8.82,0.49,0.22666666666666666,-0.7833333333333333,0.125,-0.3125,-0.0625
1589380548.3208365,-0.02,-4.12,8.82,0.49,0.22,-0.7688888888888888,0.125,-0.3125,0.0625
1589380548.3320365,-0.02,-4.11,8.85,0.49,0.22,-0.7688888888888888,0.0625,-0.0625,-0.0625
1589380548.3409288,-0.04,-4.13,8.76,0.49,0.22,-0.7688888888888888,-0.0625,0.375,0.1875
1589380548.3523169,-0.03,-4.12,8.84,0.49,0.22,-0.7688888888888888,-0.25,0.3125,0.0625
1589380548.3653538,-0.02,-4.12,8.86,0.49,0.22,-0.7688888888888888,-0.1875,0.125,0.0625
1589380548.3721108,0.0,-4.12,8.84,0.4755555555555556,0.22,-0.7555555555555555,-0.0625,0.0,0.0
1589380548.3847313,-0.02,-4.1,8.84,0.4755555555555556,0.22,-0.7555555555555555,-0.0625,-0.1875,0.0
1589380548.3914425,-0.01,-4.08,8.71,0.4755555555555556,0.22,-0.7555555555555555,0.0,-0.4375,-0.25
1589380548.4033813,-0.02,-4.05,8.77,0.4755555555555556,0.22,-0.7555555555555555,0.0,-0.4375,-0.5
1589380548.4145148,-0.05,-4.09,8.79,0.4755555555555556,0.22,-0.7555555555555555,0.0625,-0.3125,-0.9375
1589380548.4248981,-0.03,-4.07,8.84,0.51,0.23222222222222225,-0.7911111111111111,0.125,-0.0625,-1.25
1589380548.431848,-0.01,-4.17,8.86,0.51,0.23222222222222225,-0.7911111111111111,0.0625,0.5625,-1.375
1589380548.441067,-0.02,-4.13,8.78,0.51,0.23222222222222225,-0.7911111111111111,0.1875,0.5,-1.375
1589380548.4537034,-0.03,-4.18,8.86,0.51,0.23222222222222225,-0.7911111111111111,0.125,0.6875,-1.3125
1589380548.4652185,-0.03,-4.16,8.88,0.51,0.23222222222222225,-0.7911111111111111,-0.125,0.1875,-1.125
1589380548.4772234,-0.03,-4.12,8.85,0.51,0.22,-0.7977777777777778,-0.0625,-0.0625,-0.625
1589380548.4837947,-0.03,-4.13,8.87,0.51,0.22,-0.7977777777777778,-0.375,-0.5625,-0.375
1589380548.4924939,0.02,-4.04,8.73,0.51,0.22,-0.7977777777777778,-0.8125,-0.75,-0.375
1589380548.5042696,0.04,-3.95,8.75,0.51,0.22,-0.7977777777777778,-0.6875,-1.0625,-0.75
1589380548.5166,-0.02,-3.95,8.8,0.51,0.22,-0.7977777777777778,-0.5625,-0.625,-2.0
1589380548.5226574,-0.04,-4.03,8.82,0.4977777777777778,0.23222222222222225,-0.7688888888888888,-0.8125,-0.125,-3.625
1589380548.5366235,-0.06,-3.94,8.8,0.4977777777777778,0.23222222222222225,-0.7688888888888888,-0.625,-0.0625,-4.3125
1589380548.5424955,-0.08,-3.91,8.77,0.4977777777777778,0.23222222222222225,-0.7688888888888888,-0.25,0.5,-5.0
1589380548.5560627,-0.1,-3.87,8.84,0.4977777777777778,0.23222222222222225,-0.7688888888888888,-0.3125,0.3125,-5.75
1589380548.5637727,-0.09,-3.85,8.87,0.4977777777777778,0.23222222222222225,-0.7688888888888888,-0.0625,0.3125,-5.5625
1589380548.571805,-0.2,-3.8,8.87,0.4977777777777778,0.22666666666666666,-0.7622222222222222,-0.0625,-0.125,-5.125
1589380548.580923,-0.25,-3.64,8.9,0.4977777777777778,0.22666666666666666,-0.7622222222222222,-1.0,-1.125,-3.875
1589380548.5922694,-0.3,-3.42,8.87,0.4977777777777778,0.22666666666666666,-0.7622222222222222,-2.25,-2.9375,-1.8125
1589380548.6015425,-0.67,-2.58,8.96,0.4977777777777778,0.22666666666666666,-0.7622222222222222,-2.125,-2.875,0.8125
1589380548.6133075,-1.17,-1.79,9.03,0.4977777777777778,0.22666666666666666,-0.7622222222222222,-0.9375,-0.875,5.75
1589380548.6213286,-0.8,-2.12,8.82,0.49,0.22666666666666666,-0.7688888888888888,1.625,2.875,23.625
1589380548.6315045,-0.58,-2.24,9.15,0.49,0.22666666666666666,-0.7688888888888888,-0.8125,-3.375,44.8125
1589380548.6377707,-0.58,-2.24,9.15,0.49,0.22666666666666666,-0.7688888888888888,-0.8125,-3.375,44.8125
1589380548.6493828,-0.24,-2.47,8.9,0.49,0.22666666666666666,-0.7688888888888888,-1.25,-5.25,58.6875
1589380548.655781,-0.13,-2.52,8.93,0.49,0.22666666666666666,-0.7688888888888888,-1.6875,-5.875,65.25
1589380548.6638572,-0.04,-2.49,8.93,0.49,0.22666666666666666,-0.7688888888888888,-1.6875,-6.6875,67.625
1589380548.6738415,-0.05,-2.6,9.03,0.49,0.22666666666666666,-0.7766666666666666,-1.5,-6.625,67.3125
1589380548.6879563,-0.2,-2.61,9.04,0.49,0.22666666666666666,-0.7766666666666666,-1.375,-6.5625,66.1875
1589380548.6940784,-0.37,-2.59,8.93,0.49,0.22666666666666666,-0.7766666666666666,-1.5,-6.25,65.1875
1589380548.7076638,-0.52,-2.51,8.89,0.49,0.22666666666666666,-0.7766666666666666,-1.75,-5.9375,67.0625
1589380548.715216,-0.38,-2.55,8.95,0.49,0.22666666666666666,-0.7766666666666666,-1.6875,-6.1875,72.875
1589380548.726804,-0.32,-2.63,8.97,0.4977777777777778,0.19333333333333333,-0.7977777777777778,-1.9375,-6.6875,78.5
1589380548.732568,-0.22,-2.66,9.05,0.4977777777777778,0.19333333333333333,-0.7977777777777778,-2.125,-7.375,82.125
1589380548.7433965,-0.27,-2.69,8.91,0.4977777777777778,0.19333333333333333,-0.7977777777777778,-2.125,-7.6875,83.125
1589380548.7530925,-0.38,-2.76,8.9,0.4977777777777778,0.19333333333333333,-0.7977777777777778,-2.125,-7.75,82.1875
1589380548.7652535,-0.4,-2.6,8.89,0.4977777777777778,0.19333333333333333,-0.7977777777777778,-2.25,-7.9375,81.4375
1589380548.7726698,-0.42,-2.65,8.9,0.5022222222222222,0.17888888888888888,-0.8188888888888889,-2.125,-8.0625,82.5625
1589380548.7844539,-0.37,-2.73,8.94,0.5022222222222222,0.17888888888888888,-0.8188888888888889,-1.9375,-8.1875,84.6875
1589380548.793313,-0.32,-2.75,8.89,0.5022222222222222,0.17888888888888888,-0.8188888888888889,-2.0625,-8.3125,85.9375
1589380548.804824,-0.34,-2.77,8.93,0.5022222222222222,0.17888888888888888,-0.8188888888888889,-2.3125,-8.0625,85.75
1589380548.8194914,-0.41,-2.74,8.94,0.5022222222222222,0.17888888888888888,-0.8188888888888889,-2.1875,-7.375,84.25
1589380548.8254235,-0.58,-2.7,8.98,0.49,0.12777777777777774,-0.8188888888888889,-1.75,-7.0625,83.3125
1589380548.8362634,-0.56,-2.74,8.99,0.49,0.12777777777777774,-0.8188888888888889,-1.75,-7.0625,83.3125
1589380548.8434484,-0.61,-2.81,8.94,0.49,0.12777777777777774,-0.8188888888888889,-2.0625,-7.8125,85.0
1589380548.8584268,-0.55,-2.76,8.88,0.49,0.12777777777777774,-0.8188888888888889,-2.4375,-8.3125,87.875
1589380548.8656974,-0.52,-2.71,8.87,0.49,0.12777777777777774,-0.8188888888888889,-2.5,-8.375,88.1875
1589380548.877274,-0.47,-2.71,8.9,0.4444444444444444,0.09222222222222222,-0.84,-2.125,-8.25,86.9375
1589380548.884221,-0.54,-2.7,8.95,0.4444444444444444,0.09222222222222222,-0.84,-2.0625,-8.0,85.0625
1589380548.8975635,-0.55,-2.78,8.83,0.4444444444444444,0.09222222222222222,-0.84,-1.9375,-7.1875,82.75
1589380548.9038243,-0.5,-2.74,9.01,0.4444444444444444,0.09222222222222222,-0.84,-2.1875,-7.625,79.5
1589380548.9164176,-0.55,-2.77,9.0,0.4444444444444444,0.09222222222222222,-0.84,-1.875,-6.625,75.875
1589380548.9236715,-0.57,-2.71,8.97,0.41,0.017777777777777778,-0.84,-1.875,-6.3125,71.9375
1589380548.9353187,-0.6,-2.72,8.94,0.41,0.017777777777777778,-0.84,-1.75,-6.0625,67.6875
1589380548.9446962,-0.64,-2.75,8.89,0.41,0.017777777777777778,-0.84,-1.75,-5.75,63.75
1589380548.9546256,-0.67,-2.75,8.85,0.41,0.017777777777777778,-0.84,-1.8125,-5.4375,60.1875
1589380548.9661243,-0.77,-2.76,8.89,0.41,0.017777777777777778,-0.84,-1.8125,-5.0625,57.25
1589380548.9781835,-0.77,-2.73,8.91,0.37333333333333335,-0.04444444444444445,-0.7977777777777778,-1.5,-4.875,54.75
1589380548.9882507,-0.76,-2.72,8.94,0.37333333333333335,-0.04444444444444445,-0.7977777777777778,-1.5,-4.6875,52.625
1589380548.9942641,-0.75,-2.72,8.88,0.37333333333333335,-0.04444444444444445,-0.7977777777777778,-1.3125,-4.125,50.5
1589380549.0094955,-0.81,-2.73,8.93,0.37333333333333335,-0.04444444444444445,-0.7977777777777778,-1.625,-3.875,48.0
1589380549.016834,-0.91,-2.91,8.95,0.37333333333333335,-0.04444444444444445,-0.7977777777777778,-1.9375,-3.625,45.8125
1589380549.0240705,-0.79,-2.74,8.9,0.3622222222222222,-0.13333333333333333,-0.7744444444444445,-1.9375,-3.75,43.875
1589380549.0351002,-0.83,-2.71,8.83,0.3622222222222222,-0.13333333333333333,-0.7744444444444445,-2.375,-3.5625,41.75
1589380549.0489304,-0.85,-2.74,8.81,0.3622222222222222,-0.13333333333333333,-0.7744444444444445,-2.0625,-3.0,39.625
1589380549.0555687,-0.89,-2.81,8.82,0.3622222222222222,-0.13333333333333333,-0.7744444444444445,-2.125,-2.875,37.9375
1589380549.0671911,-0.93,-2.81,8.9,0.3622222222222222,-0.13333333333333333,-0.7744444444444445,-2.25,-2.5625,36.25
1589380549.0744958,-1.06,-2.95,8.87,0.4211111111111111,-0.15555555555555556,-0.7177777777777777,-2.1875,-2.1875,34.4375
1589380549.0878599,-1.15,-3.05,8.95,0.4211111111111111,-0.15555555555555556,-0.7177777777777777,-2.3125,-1.8125,33.1875
1589380549.094708,-1.15,-3.03,8.84,0.4211111111111111,-0.15555555555555556,-0.7177777777777777,-2.25,-1.875,32.125
1589380549.1052742,-1.22,-3.03,8.89,0.4211111111111111,-0.15555555555555556,-0.7177777777777777,-2.1875,-1.625,30.5
1589380549.1160574,-1.13,-2.98,8.94,0.4211111111111111,-0.15555555555555556,-0.7177777777777777,-2.125,-1.4375,29.25
1589380549.1246006,-1.17,-3.0,8.95,0.4455555555555555,-0.17333333333333334,-0.6966666666666667,-1.9375,-1.4375,27.1875
1589380549.1350367,-1.2,-3.01,8.93,0.4455555555555555,-0.17333333333333334,-0.6966666666666667,-1.6875,-0.9375,24.9375
1589380549.1450644,-1.24,-2.97,8.79,0.4455555555555555,-0.17333333333333334,-0.6966666666666667,-1.25,-0.75,23.375
1589380549.1601536,-1.22,-2.94,8.85,0.4455555555555555,-0.17333333333333334,-0.6966666666666667,-1.0,-0.9375,22.6875
1589380549.16697,-1.2,-2.98,8.89,0.4455555555555555,-0.17333333333333334,-0.6966666666666667,-1.1875,-0.875,21.5
1589380549.17435,-1.26,-2.97,9.04,0.4922222222222222,-0.14888888888888888,-0.6733333333333333,-1.3125,0.1875,19.5
1589380549.1858053,-1.12,-2.88,8.93,0.4922222222222222,-0.14888888888888888,-0.6733333333333333,-0.625,-1.875,16.4375
1589380549.1975675,-1.16,-2.92,8.82,0.4922222222222222,-0.14888888888888888,-0.6733333333333333,-1.1875,-1.25,13.5
1589380549.2052426,-1.25,-2.92,8.91,0.4922222222222222,-0.14888888888888888,-0.6733333333333333,-0.5625,-0.4375,10.75
1589380549.2204528,-1.22,-2.96,8.98,0.4922222222222222,-0.14888888888888888,-0.6733333333333333,-0.5625,-0.75,8.625
1589380549.226261,-1.23,-2.94,8.89,0.5522222222222222,-0.10444444444444444,-0.6733333333333333,-0.5,-0.4375,6.0625
1589380549.2399442,-1.34,-3.13,8.97,0.5522222222222222,-0.10444444444444444,-0.6733333333333333,-0.5,0.1875,3.5
1589380549.2456162,-1.34,-3.0,8.77,0.5522222222222222,-0.10444444444444444,-0.6733333333333333,0.125,0.0,1.5625
1589380549.2557425,-0.98,-2.98,8.89,0.5522222222222222,-0.10444444444444444,-0.6733333333333333,0.0625,-0.125,1.0
1589380549.2674074,-1.25,-2.96,8.91,0.5522222222222222,-0.10444444444444444,-0.6733333333333333,0.5,0.75,-3.3125
1589380549.2752025,-1.62,-3.02,8.85,0.6644444444444444,-0.11666666666666667,-0.7266666666666667,0.1875,0.6875,-4.0
1589380549.2846134,-1.32,-2.97,8.93,0.6644444444444444,-0.11666666666666667,-0.7266666666666667,-0.25,-0.8125,-2.875
1589380549.2902868,-1.32,-2.97,8.93,0.6644444444444444,-0.11666666666666667,-0.7266666666666667,-0.25,-0.8125,-2.875
1589380549.3049679,-1.32,-3.03,8.84,0.6644444444444444,-0.11666666666666667,-0.7266666666666667,0.1875,-0.3125,-1.25
1589380549.3180132,-1.31,-3.07,8.94,0.6644444444444444,-0.11666666666666667,-0.7266666666666667,0.375,-0.125,-1.0625
1589380549.3254616,-1.32,-3.11,8.88,0.5966666666666667,-0.25,-0.7977777777777778,0.625,0.4375,-0.0625
1589380549.3379793,-1.25,-3.15,8.95,0.5966666666666667,-0.25,-0.7977777777777778,0.375,-0.1875,1.0
1589380549.3455195,-1.29,-3.15,8.81,0.5966666666666667,-0.25,-0.7977777777777778,0.5,-0.0625,0.1875
1589380549.3557575,-1.34,-3.21,8.92,0.5966666666666667,-0.25,-0.7977777777777778,0.5,0.125,-0.375
1589380549.372016,-1.28,-3.2,8.89,0.5966666666666667,-0.25,-0.7977777777777778,0.75,0.0625,-0.75
1589380549.378122,-1.28,-3.29,8.94,0.4977777777777778,-0.17777777777777778,-0.6766666666666666,0.4375,0.3125,-1.5
1589380549.391959,-1.26,-3.29,8.9,0.4977777777777778,-0.17777777777777778,-0.6766666666666666,0.5,0.375,-2.5625
1589380549.3986132,-1.29,-3.45,8.82,0.4977777777777778,-0.17777777777777778,-0.6766666666666666,0.5,0.4375,-4.0625
1589380549.4110234,-1.34,-3.47,8.79,0.4977777777777778,-0.17777777777777778,-0.6766666666666666,0.4375,0.4375,-6.0
1589380549.4190075,-1.41,-3.54,8.88,0.4977777777777778,-0.17777777777777778,-0.6766666666666666,0.5625,0.625,-7.4375
1589380549.4294536,-1.37,-3.52,8.89,0.5188888888888888,-0.13111111111111112,-0.6622222222222223,0.8125,1.0,-8.5625
1589380549.4365108,-1.37,-3.55,8.9,0.5188888888888888,-0.13111111111111112,-0.6622222222222223,0.6875,1.1875,-9.625
1589380549.4504378,-1.41,-3.55,8.82,0.5188888888888888,-0.13111111111111112,-0.6622222222222223,0.5625,1.0625,-10.9375
1589380549.45723,-1.36,-3.59,8.86,0.5188888888888888,-0.13111111111111112,-0.6622222222222223,0.8125,1.3125,-11.6875
1589380549.4688625,-1.38,-3.64,8.87,0.5188888888888888,-0.13111111111111112,-0.6622222222222223,0.6875,1.4375,-12.75
1589380549.4762733,-1.36,-3.69,8.9,0.5188888888888888,-0.07777777777777778,-0.67,0.875,1.5,-13.875
1589380549.4865654,-1.3,-3.62,8.66,0.5188888888888888,-0.07777777777777778,-0.67,0.9375,1.375,-14.5
1589380549.4978805,-1.32,-3.71,8.86,0.5188888888888888,-0.07777777777777778,-0.67,0.6875,1.375,-15.3125
1589380549.5085335,-1.3,-3.85,8.82,0.5188888888888888,-0.07777777777777778,-0.67,0.875,1.6875,-16.4375
1589380549.523242,-1.36,-3.94,8.89,0.5188888888888888,-0.07777777777777778,-0.67,1.0625,1.5625,-17.375
1589380549.5293481,-1.22,-3.95,8.78,0.5377777777777778,-0.06555555555555556,-0.6755555555555556,1.4375,2.0,-18.3125
1589380549.5417802,-1.15,-4.1,8.87,0.5377777777777778,-0.06555555555555556,-0.6755555555555556,1.25,1.8125,-21.25
1589380549.5476673,-1.15,-4.11,8.73,0.5377777777777778,-0.06555555555555556,-0.6755555555555556,1.625,2.6875,-25.875
1589380549.5561075,-1.2,-4.25,8.8,0.5377777777777778,-0.06555555555555556,-0.6755555555555556,1.75,3.0,-30.5625
1589380549.5683928,-1.26,-4.39,8.82,0.5377777777777778,-0.06555555555555556,-0.6755555555555556,1.9375,3.5,-34.125
1589380549.5777767,-1.03,-4.28,8.8,0.5377777777777778,-0.03333333333333333,-0.67,2.1875,3.125,-35.6875
1589380549.5865462,-0.9,-4.0,8.83,0.5377777777777778,-0.03333333333333333,-0.67,1.6875,3.1875,-37.8125
1589380549.600368,-0.97,-3.74,8.77,0.5377777777777778,-0.03333333333333333,-0.67,1.8125,3.625,-44.25
1589380549.606755,-1.12,-3.51,8.9,0.5377777777777778,-0.03333333333333333,-0.67,1.8125,4.25,-51.625
1589380549.6183305,-1.19,-3.45,8.88,0.5377777777777778,-0.03333333333333333,-0.67,2.0,5.125,-58.75
1589380549.6270144,-1.24,-3.43,8.92,0.5433333333333333,-0.012222222222222223,-0.67,2.1875,5.5,-63.6875
1589380549.6372404,-1.15,-3.35,8.95,0.5433333333333333,-0.012222222222222223,-0.67,2.1875,5.9375,-67.25
1589380549.6463888,-0.95,-3.21,8.82,0.5433333333333333,-0.012222222222222223,-0.67,2.25,6.3125,-71.375
1589380549.6568935,-0.94,-3.21,8.89,0.5433333333333333,-0.012222222222222223,-0.67,2.5,7.1875,-77.0
1589380549.6720178,-0.97,-3.22,8.92,0.5433333333333333,-0.012222222222222223,-0.67,2.625,7.625,-83.125
1589380549.6778328,-1.08,-3.24,8.91,0.57,0.013333333333333334,-0.6844444444444444,2.875,8.25,-89.4375
1589380549.6883285,-1.14,-3.33,8.87,0.57,0.013333333333333334,-0.6844444444444444,3.0625,8.9375,-94.375
1589380549.7001786,-1.19,-3.4,8.78,0.57,0.013333333333333334,-0.6844444444444444,3.0625,9.0625,-97.5
1589380549.7077696,-1.14,-3.35,8.83,0.57,0.013333333333333334,-0.6844444444444444,2.75,9.25,-99.625
1589380549.7203865,-1.12,-3.32,8.94,0.57,0.013333333333333334,-0.6844444444444444,3.0,9.25,-101.4375
1589380549.7323947,-1.14,-3.32,8.92,0.6233333333333333,0.03333333333333333,-0.6911111111111111,2.875,9.6875,-101.9375
1589380549.739506,-1.24,-3.32,8.65,0.6233333333333333,0.03333333333333333,-0.6911111111111111,2.9375,9.5625,-100.3125
1589380549.7517402,-0.67,-3.35,9.29,0.6233333333333333,0.03333333333333333,-0.6911111111111111,1.875,7.75,-99.75
1589380549.758109,-0.93,-3.46,8.69,0.6233333333333333,0.03333333333333333,-0.6911111111111111,3.75,11.5,-98.9375
1589380549.7693493,-0.79,-3.53,9.11,0.6233333333333333,0.03333333333333333,-0.6911111111111111,1.8125,7.875,-94.0625
1589380549.7792144,-1.19,-3.48,8.85,0.88,0.12444444444444445,-0.7122222222222222,2.9375,9.4375,-92.875
1589380549.7884035,-1.16,-3.66,8.89,0.88,0.12444444444444445,-0.7122222222222222,2.25,8.5625,-86.5625
1589380549.797614,-1.29,-3.75,8.76,0.88,0.12444444444444445,-0.7122222222222222,2.125,7.6875,-78.75
1589380549.8108518,-1.22,-3.91,8.79,0.88,0.12444444444444445,-0.7122222222222222,2.0625,7.0,-67.9375
1589380549.820532,-1.21,-4.02,8.82,0.88,0.12444444444444445,-0.7122222222222222,1.8125,5.75,-55.6875
1589380549.8284342,-0.84,-3.82,8.9,1.7222222222222223,0.3388888888888889,-1.5711111111111111,1.375,4.375,-43.25
1589380549.8379512,-0.52,-3.44,8.87,1.7222222222222223,0.3388888888888889,-1.5711111111111111,0.875,2.9375,-34.25
1589380549.8501625,-0.88,-3.74,8.85,1.7222222222222223,0.3388888888888889,-1.5711111111111111,0.625,2.9375,-31.4375
1589380549.8579545,-0.68,-3.28,8.85,1.7222222222222223,0.3388888888888889,-1.5711111111111111,0.6875,2.625,-26.5625
1589380549.8692155,-0.55,-3.18,8.95,1.7222222222222223,0.3388888888888889,-1.5711111111111111,0.3125,1.75,-22.875
1589380549.8829708,-0.35,-2.99,8.94,0.9522222222222222,-0.3,-0.8622222222222222,0.5625,2.0625,-22.125
1589380549.8889804,-0.25,-2.89,9.0,0.9522222222222222,-0.3,-0.8622222222222222,0.5625,2.25,-25.3125
1589380549.9026961,-0.41,-2.99,8.82,0.9522222222222222,-0.3,-0.8622222222222222,1.0625,3.0625,-32.0
1589380549.9084272,-0.4,-3.06,8.89,0.9522222222222222,-0.3,-0.8622222222222222,1.625,4.3125,-37.8125
1589380549.9241984,-0.46,-3.07,8.92,0.9522222222222222,-0.3,-0.8622222222222222,1.5625,4.25,-40.5
1589380549.9306095,-0.53,-3.07,8.92,0.6233333333333333,0.04777777777777778,-0.72,1.5625,4.125,-41.125
1589380549.939833,-0.68,-3.0,8.9,0.6233333333333333,0.04777777777777778,-0.72,1.25,3.8125,-39.4375
1589380549.9486568,-0.61,-2.89,8.87,0.6233333333333333,0.04777777777777778,-0.72,1.25,3.1875,-35.875
1589380549.959343,-0.63,-2.91,8.87,0.6233333333333333,0.04777777777777778,-0.72,1.125,3.0,-31.9375
1589380549.970691,-0.77,-3.09,8.94,0.6233333333333333,0.04777777777777778,-0.72,1.1875,3.0,-27.375
1589380549.9808311,-0.78,-3.09,8.95,0.5344444444444445,0.12777777777777774,-0.7266666666666667,0.9375,2.625,-21.1875
1589380549.9881506,-0.71,-3.0,8.97,0.5344444444444445,0.12777777777777774,-0.7266666666666667,0.625,1.625,-12.375
1589380550.0000315,-0.73,-2.96,8.88,0.5344444444444445,0.12777777777777774,-0.7266666666666667,0.3125,0.625,-4.875
1589380550.0094724,-0.71,-3.06,8.9,0.5344444444444445,0.12777777777777774,-0.7266666666666667,0.3125,0.0625,3.1875
1589380550.0214047,-0.69,-3.1,8.94,0.5344444444444445,0.12777777777777774,-0.7266666666666667,0.1875,-0.5625,12.0
1589380550.0299428,-0.64,-3.06,8.94,0.5311111111111111,0.18444444444444444,-0.67,-0.0625,-1.5,20.8125
1589380550.038528,-0.47,-3.03,8.88,0.5311111111111111,0.18444444444444444,-0.67,-0.4375,-2.5625,28.375
1589380550.0484445,-0.4,-3.03,8.88,0.5311111111111111,0.18444444444444444,-0.67,-0.3125,-2.9375,33.875
1589380550.0600953,-0.36,-3.05,8.89,0.5311111111111111,0.18444444444444444,-0.67,-0.4375,-3.0625,37.1875
1589380550.0724516,-0.29,-3.1,8.94,0.5311111111111111,0.18444444444444444,-0.67,-0.5,-3.3125,39.3125
1589380550.0776818,-0.24,-3.13,9.0,0.5555555555555556,0.14666666666666667,-0.72,-0.625,-3.1875,40.0
1589380550.0837483,-0.24,-3.13,9.0,0.5555555555555556,0.14666666666666667,-0.72,-0.625,-3.1875,40.0
1589380550.0946047,-0.32,-3.26,8.93,0.5555555555555556,0.14666666666666667,-0.72,-0.5625,-3.375,39.75
1589380550.100661,-0.3,-3.32,8.83,0.5555555555555556,0.14666666666666667,-0.72,-0.4375,-3.125,39.9375
1589380550.112693,-0.28,-3.52,8.91,0.5555555555555556,0.14666666666666667,-0.72,-0.4375,-3.4375,40.1875
1589380550.120225,-0.32,-3.87,8.88,0.5555555555555556,0.14666666666666667,-0.72,-0.25,-3.25,40.9375
1589380550.1301446,-2.57,-10.55,3.93,0.4722222222222222,0.14666666666666667,-0.67,-0.125,-2.9375,41.0
1589380550.1386347,-14.04,-7.22,-9.38,0.4722222222222222,0.14666666666666667,-0.67,-35.0625,13.4375,-79.0
1589380550.1522527,-0.98,-2.84,-1.38,0.4722222222222222,0.14666666666666667,-0.67,-107.625,60.6875,-355.125
1589380550.1592135,-2.27,-3.89,18.26,0.4722222222222222,0.14666666666666667,-0.67,-76.9375,32.9375,-404.6875
1589380550.172279,-0.8,-1.86,1.58,0.4722222222222222,0.14666666666666667,-0.67,-12.0,40.25,-387.3125
1589380550.178452,-1.84,-3.22,16.74,0.5044444444444445,0.2088888888888889,-0.6266666666666667,105.125,65.25,-360.875
1589380550.189666,-2.38,0.96,8.07,0.5044444444444445,0.2088888888888889,-0.6266666666666667,154.75,32.875,-346.75
1589380550.198853,0.18,-2.08,10.0,0.5044444444444445,0.2088888888888889,-0.6266666666666667,16.875,27.625,-323.875
1589380550.2091177,-1.15,-0.63,9.45,0.5044444444444445,0.2088888888888889,-0.6266666666666667,-6.5625,13.6875,-307.0625
1589380550.2209346,-1.19,0.01,8.63,0.5044444444444445,0.2088888888888889,-0.6266666666666667,16.875,39.6875,-283.75
1589380550.2328026,-0.33,-0.13,10.17,0.4011111111111111,0.3144444444444445,-0.6488888888888888,5.875,23.375,-246.375
1589380550.2399554,-0.2,0.01,8.94,0.4011111111111111,0.3144444444444445,-0.6488888888888888,5.625,19.3125,-214.0625
1589380550.251278,-0.03,-0.14,9.23,0.4011111111111111,0.3144444444444445,-0.6488888888888888,4.25,18.25,-190.0
1589380550.2648401,-0.2,-0.53,8.69,0.4011111111111111,0.3144444444444445,-0.6488888888888888,3.9375,16.1875,-161.5625
1589380550.2709482,0.07,-0.95,9.42,0.4011111111111111,0.3144444444444445,-0.6488888888888888,2.125,11.4375,-122.6875
1589380550.2786262,0.1,-1.23,8.78,0.3322222222222222,0.4011111111111111,-0.6488888888888888,2.125,7.625,-78.0625
1589380550.2903163,0.9,-1.93,9.03,0.3322222222222222,0.4011111111111111,-0.6488888888888888,0.625,3.5,-36.9375
1589380550.3033116,0.6,-2.13,8.6,0.3322222222222222,0.4011111111111111,-0.6488888888888888,-0.0625,0.1875,-11.0625
1589380550.3101027,0.73,-2.29,9.33,0.3322222222222222,0.4011111111111111,-0.6488888888888888,-0.6875,-0.625,5.875
1589380550.321432,0.73,-2.31,8.96,0.3322222222222222,0.4011111111111111,-0.6488888888888888,-0.1875,-2.5,23.0
1589380550.329387,1.06,-2.58,9.09,0.30666666666666664,0.44,-0.64,-0.375,-3.0625,35.0
1589380550.340389,3.45,-4.63,9.18,0.30666666666666664,0.44,-0.64,-0.8125,-4.3125,41.8125
1589380550.3494382,11.84,-19.02,6.06,0.30666666666666664,0.44,-0.64,2.625,-3.4375,40.0
1589380550.3599074,1.28,-2.64,9.24,0.30666666666666664,0.44,-0.64,15.125,13.625,27.0625
1589380550.3713224,1.87,-4.05,8.82,0.30666666666666664,0.44,-0.64,-1.0625,-8.0,43.125
1589380550.3802588,1.81,-4.53,8.68,0.3211111111111111,0.4388888888888889,-0.64,-0.875,-3.5,31.375
1589380550.390858,1.55,-3.99,9.0,0.3211111111111111,0.4388888888888889,-0.64,0.0,-1.1875,25.3125
1589380550.399853,1.25,-4.08,8.86,0.3211111111111111,0.4388888888888889,-0.64,-0.125,-1.3125,16.75
1589380550.4139252,1.39,-4.03,8.68,0.3211111111111111,0.4388888888888889,-0.64,0.0,-0.5625,9.0625
1589380550.4226513,1.33,-3.87,8.81,0.3211111111111111,0.4388888888888889,-0.64,-0.3125,-0.625,4.0625
1589380550.4350545,1.25,-3.86,9.0,0.3233333333333333,0.44,-0.6266666666666667,0.125,0.0,0.875
1589380550.4416175,1.29,-3.78,8.84,0.3233333333333333,0.44,-0.6266666666666667,0.1875,-0.1875,0.0625
1589380550.453965,1.23,-3.82,8.81,0.3233333333333333,0.44,-0.6266666666666667,0.0625,0.0625,0.1875
1589380550.460749,1.27,-3.77,8.78,0.3233333333333333,0.44,-0.6266666666666667,-0.0625,0.1875,0.1875
1589380550.47446,1.27,-3.78,8.81,0.3233333333333333,0.44,-0.6266666666666667,-0.375,-0.0625,0.25
1589380550.480751,1.25,-3.77,8.93,0.3422222222222222,0.4211111111111111,-0.6266666666666667,-0.0625,0.0625,0.625
1589380550.4943366,1.27,-3.83,8.89,0.3422222222222222,0.4211111111111111,-0.6266666666666667,0.25,0.125,1.125
1589380550.501785,1.28,-3.8,8.78,0.3422222222222222,0.4211111111111111,-0.6266666666666667,0.0,-0.125,1.1875
1589380550.513275,1.28,-3.81,8.83,0.3422222222222222,0.4211111111111111,-0.6266666666666667,-0.0625,-0.25,0.625
1589380550.5287714,1.27,-3.8,8.85,0.3422222222222222,0.4211111111111111,-0.6266666666666667,-0.25,-0.4375,0.25
1589380550.5348408,1.29,-3.83,8.8,0.35,0.4211111111111111,-0.65,0.0,-0.25,0.0625
1589380550.5417461,1.24,-3.77,8.85,0.35,0.4211111111111111,-0.65,0.25,0.1875,0.0625
1589380550.5526788,1.28,-3.77,8.72,0.35,0.4211111111111111,-0.65,0.4375,0.0625,0.0
1589380550.5648966,1.24,-3.8,8.83,0.35,0.4211111111111111,-0.65,0.25,0.25,-0.125
1589380550.5734873,1.27,-3.79,8.87,0.35,0.4211111111111111,-0.65,0.0,0.0625,-0.0625
1589380550.5865874,1.25,-3.8,8.89,0.33555555555555555,0.4155555555555556,-0.6355555555555555,-0.0625,0.0,0.1875
1589380550.5932925,1.27,-3.82,8.85,0.33555555555555555,0.4155555555555556,-0.6355555555555555,0.0625,-0.125,0.0625
1589380550.607185,1.26,-3.79,8.82,0.33555555555555555,0.4155555555555556,-0.6355555555555555,0.125,0.0625,0.0
1589380550.614059,1.27,-3.8,8.78,0.33555555555555555,0.4155555555555556,-0.6355555555555555,-0.0625,-0.125,0.125
1589380550.624254,1.25,-3.82,8.85,0.33555555555555555,0.4155555555555556,-0.6355555555555555,-0.3125,-0.125,0.0625
1589380550.6312273,1.28,-3.81,8.83,0.3233333333333333,0.42777777777777776,-0.6355555555555555,-0.0625,0.0,0.0625
1589380550.6423461,1.28,-3.77,8.85,0.3233333333333333,0.42777777777777776,-0.6355555555555555,0.0625,-0.0625,0.0
1589380550.6522374,1.25,-3.77,8.78,0.3233333333333333,0.42777777777777776,-0.6355555555555555,0.1875,0.3125,0.0
1589380550.6649525,1.25,-3.8,8.8,0.3233333333333333,0.42777777777777776,-0.6355555555555555,0.3125,0.125,0.0625
1589380550.6753378,1.25,-3.8,8.85,0.3233333333333333,0.42777777777777776,-0.6355555555555555,-0.125,0.0625,-0.0625
1589380550.6858268,1.26,-3.81,8.87,0.31555555555555553,0.4088888888888889,-0.6266666666666667,-0.0625,0.0,0.0
1589380550.6930401,1.27,-3.78,8.81,0.31555555555555553,0.4088888888888889,-0.6266666666666667,-0.1875,-0.1875,0.0625
1589380550.702251,1.27,-3.8,8.76,0.31555555555555553,0.4088888888888889,-0.6266666666666667,0.125,0.0625,-0.0625
1589380550.7141426,1.26,-3.81,8.82,0.31555555555555553,0.4088888888888889,-0.6266666666666667,0.1875,0.0,-0.0625
1589380550.7248685,1.25,-3.79,8.83,0.31555555555555553,0.4088888888888889,-0.6266666666666667,-0.0625,0.125,-0.125
1589380550.7329967,1.28,-3.8,8.89,0.35,0.4155555555555556,-0.65,0.0625,0.3125,0.0
1589380550.7449458,1.25,-3.8,8.86,0.35,0.4155555555555556,-0.65,0.25,0.125,0.0
1589380550.753201,1.27,-3.79,8.76,0.35,0.4155555555555556,-0.65,0.25,0.125,-0.0625
1589380550.7650769,1.26,-3.78,8.84,0.35,0.4155555555555556,-0.65,0.25,0.0,-0.0625
1589380550.777859,1.26,-3.78,8.85,0.35,0.4155555555555556,-0.65,-0.125,0.0,0.0
1589380550.7841015,1.27,-3.79,8.85,0.33555555555555555,0.42777777777777776,-0.6355555555555555,-0.25,-0.1875,0.0625
1589380550.7963965,1.25,-3.82,8.78,0.33555555555555555,0.42777777777777776,-0.6355555555555555,-0.1875,-0.125,0.0
1589380550.8021367,1.27,-3.8,8.75,0.33555555555555555,0.42777777777777776,-0.6355555555555555,0.0625,-0.0625,0.0
1589380550.8165386,1.26,-3.78,8.81,0.33555555555555555,0.42777777777777776,-0.6355555555555555,0.125,0.0625,0.0
1589380550.824761,1.27,-3.8,8.87,0.33555555555555555,0.42777777777777776,-0.6355555555555555,0.125,0.0,-0.125
1589380550.8329318,1.26,-3.81,8.83,0.33555555555555555,0.4211111111111111,-0.6411111111111111,0.0625,0.0625,-0.0625
1589380550.842683,1.26,-3.8,8.86,0.33555555555555555,0.4211111111111111,-0.6411111111111111,0.0,0.125,0.125
1589380550.8537242,1.27,-3.81,8.77,0.33555555555555555,0.4211111111111111,-0.6411111111111111,0.1875,0.0625,0.0625
1589380550.8625245,1.26,-3.8,8.78,0.33555555555555555,0.4211111111111111,-0.6411111111111111,0.25,0.0,0.1875
1589380550.8748484,1.26,-3.79,8.88,0.33555555555555555,0.4211111111111111,-0.6411111111111111,0.0,0.0,0.0625
1589380550.8833468,1.26,-3.82,8.86,0.3477777777777778,0.4088888888888889,-0.6222222222222222,-0.3125,-0.25,0.0625
1589380550.8943179,1.27,-3.8,8.85,0.3477777777777778,0.4088888888888889,-0.6222222222222222,-0.375,0.0,0.0
1589380550.903399,1.27,-3.78,8.78,0.3477777777777778,0.4088888888888889,-0.6222222222222222,0.0,0.0,0.0625
1589380550.915559,1.27,-3.79,8.82,0.3477777777777778,0.4088888888888889,-0.6222222222222222,0.125,0.0625,-0.0625
1589380550.9301982,1.26,-3.8,8.87,0.3477777777777778,0.4088888888888889,-0.6222222222222222,-0.0625,0.0625,-0.125
1589380550.9363732,1.26,-3.82,8.87,0.33555555555555555,0.4155555555555556,-0.6577777777777778,-0.0625,0.0,0.0
1589380550.9452925,1.26,-3.79,8.83,0.33555555555555555,0.4155555555555556,-0.6577777777777778,0.0,0.0,0.0625
1589380550.9528375,1.28,-3.79,8.78,0.33555555555555555,0.4155555555555556,-0.6577777777777778,-0.0625,-0.0625,-0.0625
1589380550.9674895,1.25,-3.78,8.82,0.33555555555555555,0.4155555555555556,-0.6577777777777778,-0.125,-0.1875,0.0625
1589380550.9757068,1.29,-3.77,8.89,0.33555555555555555,0.4155555555555556,-0.6577777777777778,0.0,-0.0625,0.0
1589380550.9868786,1.26,-3.8,8.88,0.35,0.42777777777777776,-0.6355555555555555,-0.125,0.0625,0.0
1589380550.9931269,1.25,-3.82,8.86,0.35,0.42777777777777776,-0.6355555555555555,0.0,0.0625,0.0625
1589380551.0039089,1.25,-3.82,8.77,0.35,0.42777777777777776,-0.6355555555555555,0.1875,0.1875,0.1875
1589380551.0138016,1.25,-3.81,8.82,0.35,0.42777777777777776,-0.6355555555555555,0.125,0.25,-0.0625
1589380551.0256305,1.26,-3.79,8.87,0.35,0.42777777777777776,-0.6355555555555555,0.125,0.3125,-0.0625
1589380551.0339518,1.27,-3.79,8.87,0.33555555555555555,0.4211111111111111,-0.6577777777777778,0.125,0.125,-0.0625
1589380551.045734,1.28,-3.83,8.79,0.33555555555555555,0.4211111111111111,-0.6577777777777778,0.0,-0.1875,-0.0625
1589380551.0540009,1.28,-3.81,8.73,0.33555555555555555,0.4211111111111111,-0.6577777777777778,-0.0625,0.0,0.125
1589380551.0649161,1.27,-3.8,8.8,0.33555555555555555,0.4211111111111111,-0.6577777777777778,0.125,-0.0625,0.0625
1589380551.0765412,1.26,-3.81,8.82,0.33555555555555555,0.4211111111111111,-0.6577777777777778,0.125,0.0,0.0
1589380551.0869825,1.25,-3.8,8.9,0.33555555555555555,0.4211111111111111,-0.6577777777777778,0.0,0.125,-0.125
1589380551.0971875,1.26,-3.8,8.85,0.33555555555555555,0.4211111111111111,-0.6577777777777778,0.0,0.0625,0.0625
1589380551.1036515,1.26,-3.82,8.77,0.33555555555555555,0.4211111111111111,-0.6577777777777778,0.0,0.125,-0.0625
1589380551.1191595,1.27,-3.79,8.79,0.33555555555555555,0.4211111111111111,-0.6577777777777778,-0.125,0.0,0.0
1589380551.127284,1.25,-3.79,8.89,0.33555555555555555,0.4211111111111111,-0.6577777777777778,0.0,0.0,0.0
1589380551.1384525,1.26,-3.78,8.9,0.33555555555555555,0.4155555555555556,-0.6577777777777778,-0.0625,-0.0625,0.0625
1589380551.1449492,1.27,-3.78,8.89,0.33555555555555555,0.4155555555555556,-0.6577777777777778,-0.1875,-0.125,0.0625
1589380551.1583796,1.27,-3.82,8.75,0.33555555555555555,0.4155555555555556,-0.6577777777777778,-0.1875,-0.125,0.0
1589380551.1644766,1.27,-3.81,8.81,0.33555555555555555,0.4155555555555556,-0.6577777777777778,0.125,-0.125,-0.0625
1589380551.1762538,1.25,-3.8,8.87,0.33555555555555555,0.4155555555555556,-0.6577777777777778,0.125,0.125,0.0625
1589380551.1837947,1.25,-3.8,8.87,0.3422222222222222,0.42777777777777776,-0.6266666666666667,0.125,0.25,0.0
1589380551.197162,1.26,-3.79,8.85,0.3422222222222222,0.42777777777777776,-0.6266666666666667,0.0625,0.0625,0.0
1589380551.2036939,1.28,-3.8,8.77,0.3422222222222222,0.42777777777777776,-0.6266666666666667,0.0625,0.125,0.0625
1589380551.2161882,1.25,-3.81,8.79,0.3422222222222222,0.42777777777777776,-0.6266666666666667,0.0625,0.0,0.0625
1589380551.2266095,1.27,-3.8,8.88,0.3422222222222222,0.42777777777777776,-0.6266666666666667,0.0,0.0,0.0
1589380551.2351375,1.27,-3.79,8.87,0.3088888888888889,0.4211111111111111,-0.65,0.125,0.0,0.0625
1589380551.2486355,1.25,-3.79,8.86,0.3088888888888889,0.4211111111111111,-0.65,-0.1875,-0.0625,-0.0625
1589380551.2548938,1.28,-3.81,8.75,0.3088888888888889,0.4211111111111111,-0.65,0.0,0.125,0.0625
1589380551.269974,1.28,-3.79,8.81,0.3088888888888889,0.4211111111111111,-0.65,0.0625,0.125,0.0
1589380551.277262,1.25,-3.8,8.84,0.3088888888888889,0.4211111111111111,-0.65,0.0,0.25,0.0
1589380551.284918,1.26,-3.79,8.88,0.33555555555555555,0.42777777777777776,-0.6355555555555555,0.0625,0.125,0.0
1589380551.2950509,1.26,-3.79,8.88,0.33555555555555555,0.42777777777777776,-0.6355555555555555,0.0,0.0625,0.125
1589380551.3092644,1.25,-3.79,8.76,0.33555555555555555,0.42777777777777776,-0.6355555555555555,-0.0625,0.125,-0.0625
1589380551.3155315,1.26,-3.8,8.81,0.33555555555555555,0.42777777777777776,-0.6355555555555555,-0.125,-0.0625,0.0625
1589380551.3273716,1.26,-3.8,8.82,0.33555555555555555,0.42777777777777776,-0.6355555555555555,0.0,0.1875,0.125
1589380551.3350804,1.28,-3.8,8.88,0.33,0.43333333333333335,-0.6355555555555555,0.0625,0.0,0.0
1589380551.348127,1.26,-3.81,8.88,0.33,0.43333333333333335,-0.6355555555555555,0.0,0.0625,0.1875
1589380551.354884,1.26,-3.81,8.77,0.33,0.43333333333333335,-0.6355555555555555,-0.0625,0.0,0.0
1589380551.3648713,1.25,-3.82,8.78,0.33,0.43333333333333335,-0.6355555555555555,0.125,0.0625,0.0
1589380551.3775337,1.26,-3.8,8.85,0.33,0.43333333333333335,-0.6355555555555555,0.125,0.125,0.0
1589380551.3878903,1.24,-3.8,8.88,0.3422222222222222,0.4155555555555556,-0.65,-0.0625,0.0625,-0.0625
1589380551.3955994,1.24,-3.78,8.9,0.3422222222222222,0.4155555555555556,-0.65,0.125,-0.0625,0.0
1589380551.405874,1.26,-3.81,8.77,0.3422222222222222,0.4155555555555556,-0.65,-0.0625,-0.125,0.0
1589380551.4150062,1.28,-3.77,8.84,0.3422222222222222,0.4155555555555556,-0.65,0.0,0.0,0.1875
1589380551.4275613,1.27,-3.8,8.83,0.3422222222222222,0.4155555555555556,-0.65,-0.125,-0.0625,0.0
1589380551.4356472,1.28,-3.81,8.87,0.33555555555555555,0.4088888888888889,-0.6411111111111111,0.0625,-0.125,-0.0625
1589380551.4474616,1.25,-3.81,8.84,0.33555555555555555,0.4088888888888889,-0.6411111111111111,0.0625,0.1875,0.0625
1589380551.4602516,1.26,-3.8,8.77,0.33555555555555555,0.4088888888888889,-0.6411111111111111,0.125,0.0,0.0625
1589380551.4663265,1.27,-3.79,8.81,0.33555555555555555,0.4088888888888889,-0.6411111111111111,0.0,0.125,0.0
1589380551.478402,1.26,-3.8,8.86,0.33555555555555555,0.4088888888888889,-0.6411111111111111,0.0625,-0.0625,-0.0625
1589380551.485446,1.26,-3.79,8.89,0.33555555555555555,0.43333333333333335,-0.6355555555555555,0.0625,-0.0625,0.0
1589380551.5005212,1.26,-3.81,8.88,0.33555555555555555,0.43333333333333335,-0.6355555555555555,0.0625,-0.0625,0.0
1589380551.506396,1.28,-3.79,8.79,0.33555555555555555,0.43333333333333335,-0.6355555555555555,0.0625,0.125,-0.0625
1589380551.5189486,1.26,-3.81,8.83,0.33555555555555555,0.43333333333333335,-0.6355555555555555,-0.0625,0.0,0.125
1589380551.5284984,1.25,-3.78,8.87,0.33555555555555555,0.43333333333333335,-0.6355555555555555,0.0,0.0,0.0
1589380551.5391095,1.25,-3.81,8.87,0.33555555555555555,0.4211111111111111,-0.65,0.125,0.0,0.1875
1589380551.5453947,1.27,-3.79,8.87,0.33555555555555555,0.4211111111111111,-0.65,0.0,0.0625,0.0625
