time,acc_x,acc_y,acc_z,mag_x,mag_y,mag_z,gyr_x,gyr_y,gyr_z
1589380561.5570905,0.04,-4.14,8.77,0.4888888888888889,0.2344444444444445,-0.78,0.3125,0.25,-2.625
1589380561.5662196,0.02,-4.14,8.78,0.4888888888888889,0.2344444444444445,-0.78,0.0625,0.1875,-2.625
1589380561.5734727,0.0,-4.18,8.82,0.4888888888888889,0.2344444444444445,-0.78,0.125,0.25,-2.1875
1589380561.5807776,0.01,-4.15,8.82,0.4955555555555556,0.2466666666666667,-0.7588888888888888,0.0625,0.125,-1.3125
1589380561.592515,0.03,-4.12,8.78,0.4955555555555556,0.2466666666666667,-0.7588888888888888,0.125,0.0625,-1.0
1589380561.6013372,0.05,-4.13,8.73,0.4955555555555556,0.2466666666666667,-0.7588888888888888,0.125,0.25,-0.375
1589380561.6135163,0.06,-4.1,8.76,0.4955555555555556,0.2466666666666667,-0.7588888888888888,0.25,0.125,-0.125
1589380561.6236804,0.06,-4.12,8.82,0.4955555555555556,0.2466666666666667,-0.7588888888888888,0.1875,0.125,0.0625
1589380561.6316345,0.06,-4.11,8.86,0.4888888888888889,0.24,-0.7733333333333333,0.0,0.25,0.125
1589380561.644982,0.05,-4.11,8.88,0.4888888888888889,0.24,-0.7733333333333333,0.1875,0.125,0.0625
1589380561.65111,0.05,-4.11,8.74,0.4888888888888889,0.24,-0.7733333333333333,0.125,0.0,-0.125
1589380561.664417,0.05,-4.11,8.78,0.4888888888888889,0.24,-0.7733333333333333,0.0625,-0.0625,0.0625
1589380561.673891,0.05,-4.11,8.81,0.4888888888888889,0.24,-0.7733333333333333,0.0,0.0625,0.0
1589380561.6848993,0.06,-4.11,8.8,0.5077777777777778,0.2344444444444445,-0.7588888888888888,0.0625,0.0,-0.125
1589380561.6910412,0.05,-4.1,8.77,0.5077777777777778,0.2344444444444445,-0.7588888888888888,0.125,-0.0625,0.0
1589380561.7018385,0.07,-4.12,8.72,0.5077777777777778,0.2344444444444445,-0.7588888888888888,0.125,-0.0625,0.0
1589380561.7110426,0.06,-4.1,8.77,0.5077777777777778,0.2344444444444445,-0.7588888888888888,0.125,0.1875,-0.0625
1589380561.723634,0.05,-4.11,8.81,0.5077777777777778,0.2344444444444445,-0.7588888888888888,-0.1875,0.0625,-0.125
1589380561.731242,0.06,-4.11,8.85,0.5011111111111111,0.24,-0.7733333333333333,-0.0625,0.1875,-0.125
1589380561.742449,0.05,-4.1,8.86,0.5011111111111111,0.24,-0.7733333333333333,0.0,0.0625,0.125
1589380561.7512224,0.04,-4.12,8.76,0.5011111111111111,0.24,-0.7733333333333333,0.0625,-0.0625,0.0625
1589380561.7614665,0.05,-4.09,8.78,0.5011111111111111,0.24,-0.7733333333333333,0.0625,0.125,0.0
1589380561.7790346,0.07,-4.09,8.8,0.5011111111111111,0.24,-0.7733333333333333,0.125,0.0625,0.125
1589380561.7851145,0.06,-4.1,8.83,0.5077777777777778,0.2466666666666667,-0.78,0.125,0.125,0.0
1589380561.796929,0.05,-4.11,8.87,0.5077777777777778,0.2466666666666667,-0.78,0.0625,0.0625,0.0
1589380561.8027608,0.04,-4.11,8.73,0.5077777777777778,0.2466666666666667,-0.78,0.125,0.0,0.0
1589380561.8168142,0.04,-4.12,8.79,0.5077777777777778,0.2466666666666667,-0.78,-0.0625,0.125,-0.0625
1589380561.8244152,0.05,-4.12,8.85,0.5077777777777778,0.2466666666666667,-0.78,0.0,0.0,-0.0625
1589380561.8323846,0.06,-4.12,8.86,0.4811111111111111,0.2344444444444445,-0.7511111111111111,-0.0625,-0.0625,0.0
1589380561.8415375,0.05,-4.13,8.82,0.4811111111111111,0.2344444444444445,-0.7511111111111111,0.0,-0.0625,-0.1875
1589380561.8558097,0.03,-4.1,8.67,0.4811111111111111,0.2344444444444445,-0.7511111111111111,-0.1875,-0.1875,-0.125
1589380561.8618758,0.05,-4.1,8.71,0.4811111111111111,0.2344444444444445,-0.7511111111111111,-0.1875,-0.125,0.0
1589380561.875905,0.09,-4.08,8.79,0.4811111111111111,0.2344444444444445,-0.7511111111111111,0.0625,0.0,-0.25
1589380561.8824859,0.07,-4.08,8.88,0.4888888888888889,0.2466666666666667,-0.7655555555555555,0.1875,0.0,-0.5625
1589380561.8920019,0.06,-4.11,8.86,0.4888888888888889,0.2466666666666667,-0.7655555555555555,-0.0625,-0.0625,-0.75
1589380561.9024994,0.07,-4.08,8.74,0.4888888888888889,0.2466666666666667,-0.7655555555555555,0.0625,0.0,-0.8125
1589380561.9128034,0.09,-4.1,8.82,0.4888888888888889,0.2466666666666667,-0.7655555555555555,0.1875,0.0,-1.0625
1589380561.9275088,0.06,-4.14,8.82,0.4888888888888889,0.2466666666666667,-0.7655555555555555,0.125,0.0,-1.125
1589380561.9340248,0.06,-4.11,8.82,0.4955555555555556,0.2344444444444445,-0.7944444444444444,0.1875,0.0,-0.9375
1589380561.948052,0.06,-4.1,8.79,0.4955555555555556,0.2344444444444445,-0.7944444444444444,0.1875,0.0625,-1.0625
1589380561.954185,0.08,-4.07,8.71,0.4955555555555556,0.2344444444444445,-0.7944444444444444,0.1875,0.1875,-1.25
1589380561.963663,0.07,-4.07,8.74,0.4955555555555556,0.2344444444444445,-0.7944444444444444,0.125,0.3125,-1.4375
1589380561.9741232,0.07,-4.1,8.79,0.4955555555555556,0.2344444444444445,-0.7944444444444444,0.125,0.1875,-1.5625
1589380561.9872525,0.07,-4.07,8.9,0.4811111111111111,0.2344444444444445,-0.7733333333333333,0.1875,0.3125,-1.75
1589380561.9933095,0.01,-4.15,8.87,0.4811111111111111,0.2344444444444445,-0.7733333333333333,0.0625,0.125,-1.875
1589380562.0066516,0.03,-4.17,8.76,0.4811111111111111,0.2344444444444445,-0.7733333333333333,0.1875,0.0,-1.4375
1589380562.01301,0.05,-4.12,8.79,0.4811111111111111,0.2344444444444445,-0.7733333333333333,0.125,0.0625,-1.0625
1589380562.025892,0.03,-4.15,8.79,0.4811111111111111,0.2344444444444445,-0.7733333333333333,0.25,0.125,-1.0
1589380562.0326662,0.08,-4.11,8.84,0.5011111111111111,0.24,-0.7733333333333333,0.1875,0.0,-0.8125
1589380562.0439365,0.06,-4.17,8.87,0.5011111111111111,0.24,-0.7733333333333333,0.0625,0.0625,-0.5
1589380562.0526285,0.06,-4.11,8.75,0.5011111111111111,0.24,-0.7733333333333333,0.0,0.1875,-0.125
1589380562.0627215,0.08,-4.1,8.76,0.5011111111111111,0.24,-0.7733333333333333,-0.0625,0.1875,-0.125
1589380562.0754824,0.06,-4.11,8.82,0.5011111111111111,0.24,-0.7733333333333333,-0.125,0.25,-0.125
1589380562.0836694,0.08,-4.11,8.84,0.4744444444444445,0.2466666666666667,-0.7588888888888888,0.1875,0.125,0.0625
1589380562.09301,0.05,-4.11,8.81,0.4744444444444445,0.2466666666666667,-0.7588888888888888,0.3125,0.0,0.125
1589380562.104819,0.08,-4.11,8.71,0.4744444444444445,0.2466666666666667,-0.7588888888888888,0.3125,0.0,0.0
1589380562.1135252,0.07,-4.09,8.76,0.4744444444444445,0.2466666666666667,-0.7588888888888888,0.125,0.0,0.0625
1589380562.1256313,0.08,-4.11,8.83,0.4744444444444445,0.2466666666666667,-0.7588888888888888,0.25,0.1875,0.0625
1589380562.1383276,0.06,-4.1,8.88,0.4811111111111111,0.24,-0.7866666666666666,0.1875,0.25,0.125
1589380562.1449356,0.04,-4.12,8.88,0.4811111111111111,0.24,-0.7866666666666666,0.0625,0.3125,0.0625
1589380562.157594,0.06,-4.09,8.8,0.4811111111111111,0.24,-0.7866666666666666,-0.125,0.1875,0.0625
1589380562.1635778,0.06,-4.1,8.83,0.4811111111111111,0.24,-0.7866666666666666,-0.125,0.1875,0.0
1589380562.1769269,0.07,-4.11,8.84,0.4811111111111111,0.24,-0.7866666666666666,-0.25,0.0,0.0
1589380562.18388,0.09,-4.13,8.82,0.4888888888888889,0.2344444444444445,-0.7588888888888888,-0.25,-0.0625,-0.0625
1589380562.193447,0.07,-4.12,8.74,0.4888888888888889,0.2344444444444445,-0.7588888888888888,-0.1875,-0.125,-0.1875
1589380562.2055795,0.05,-4.11,8.68,0.4888888888888889,0.2344444444444445,-0.7588888888888888,-0.1875,0.0,-0.0625
1589380562.2172234,0.06,-4.11,8.74,0.4888888888888889,0.2344444444444445,-0.7588888888888888,-0.125,0.0625,-0.0625
1589380562.2265875,0.06,-4.1,8.79,0.4888888888888889,0.2344444444444445,-0.7588888888888888,-0.125,0.125,-0.0625
1589380562.23701,0.04,-4.13,8.85,0.5077777777777778,0.2533333333333333,-0.78,-0.0625,-0.125,-0.0625
1589380562.243644,0.04,-4.11,8.81,0.5077777777777778,0.2533333333333333,-0.78,0.125,0.125,-0.0625
1589380562.253849,0.06,-4.1,8.77,0.5077777777777778,0.2533333333333333,-0.78,0.0,-0.0625,-0.0625
1589380562.2640445,0.06,-4.09,8.84,0.5077777777777778,0.2533333333333333,-0.78,0.0625,-0.0625,0.0625
1589380562.2766676,0.09,-4.1,8.84,0.5077777777777778,0.2533333333333333,-0.78,0.0,0.0,0.1875
1589380562.2843735,0.06,-4.12,8.85,0.4888888888888889,0.2466666666666667,-0.7733333333333333,-0.25,0.0,0.0625
1589380562.2942848,0.03,-4.09,8.79,0.4888888888888889,0.2466666666666667,-0.7733333333333333,-0.375,0.0625,0.0625
1589380562.3088748,0.05,-4.11,8.69,0.4888888888888889,0.2466666666666667,-0.7733333333333333,-0.25,0.25,0.0
1589380562.315149,0.04,-4.11,8.74,0.4888888888888889,0.2466666666666667,-0.7733333333333333,-0.3125,0.1875,0.125
1589380562.3303125,0.05,-4.12,8.75,0.4888888888888889,0.2466666666666667,-0.7733333333333333,-0.25,-0.125,0.0
1589380562.3364403,0.11,-4.14,8.94,0.4811111111111111,0.2344444444444445,-0.7588888888888888,-1.1875,-0.875,0.0
1589380562.3477044,-0.08,-4.11,8.85,0.4811111111111111,0.2344444444444445,-0.7588888888888888,-0.6875,-1.3125,-0.0625
1589380562.3543196,-0.02,-3.62,8.72,0.4811111111111111,0.2344444444444445,-0.7588888888888888,-2.125,-3.0,0.0625
1589380562.381757,-0.51,-2.72,9.0,0.4811111111111111,0.2344444444444445,-0.7588888888888888,-1.75,-3.5,3.875
1589380562.3881128,-0.81,-2.08,9.02,0.5155555555555555,0.24,-0.78,-1.3125,-3.9375,35.0625
1589380562.4039702,-0.52,-2.2,9.0,0.5155555555555555,0.24,-0.78,-1.25,-5.125,51.1875
1589380562.4241614,-0.33,-2.33,8.9,0.5155555555555555,0.24,-0.78,-1.5,-5.5,60.6875
1589380562.4393167,-0.06,-2.66,8.94,0.4955555555555556,0.24,-0.7733333333333333,-1.5,-5.75,61.6875
1589380562.4457731,-0.28,-2.6,8.89,0.4955555555555556,0.24,-0.7733333333333333,-1.3125,-5.8125,60.5
1589380562.465997,-0.36,-2.59,8.88,0.4955555555555556,0.24,-0.7733333333333333,-1.25,-5.8125,61.4375
1589380562.4776511,-0.36,-2.64,8.98,0.4955555555555556,0.24,-0.7733333333333333,-1.6875,-6.625,68.1875
1589380562.5015676,-0.31,-2.67,8.99,0.5011111111111111,0.2288888888888889,-0.7655555555555555,-1.8125,-6.625,71.8125
1589380562.5083435,-0.32,-2.72,8.84,0.5011111111111111,0.2288888888888889,-0.7655555555555555,-1.6875,-6.625,75.125
1589380562.528261,-0.37,-2.73,8.91,0.5011111111111111,0.2288888888888889,-0.7655555555555555,-1.875,-6.75,76.4375
1589380562.5478742,-0.37,-2.78,8.97,0.4888888888888889,0.1955555555555556,-0.8011111111111111,-1.9375,-7.625,80.9375
1589380562.5557542,-0.32,-2.87,8.85,0.4888888888888889,0.1955555555555556,-0.8011111111111111,-2.0,-8.125,81.8125
1589380562.5691595,-0.35,-2.83,8.9,0.4888888888888889,0.1955555555555556,-0.8011111111111111,-1.9375,-8.0625,80.3125
1589380562.596846,-0.46,-2.81,8.97,0.4888888888888889,0.14222222222222222,-0.8155555555555556,-2.0,-7.1875,79.0
1589380562.6071384,-0.45,-2.8,8.84,0.4888888888888889,0.14222222222222222,-0.8155555555555556,-1.875,-7.3125,79.0
1589380562.6210425,-0.47,-2.84,8.87,0.4888888888888889,0.14222222222222222,-0.8155555555555556,-1.8125,-7.0,79.0
1589380562.6376562,-0.5,-2.89,8.91,0.4888888888888889,0.14222222222222222,-0.8155555555555556,-1.75,-7.0625,78.25
1589380562.6466105,-0.46,-2.92,8.92,0.4744444444444445,0.11333333333333333,-0.83,-2.0,-6.8125,74.875
1589380562.66984,-0.47,-2.89,8.8,0.4744444444444445,0.11333333333333333,-0.83,-1.8125,-7.0,71.9375
1589380562.681067,-0.53,-2.99,9.05,0.4744444444444445,0.11333333333333333,-0.83,-1.5625,-6.25,65.5
1589380562.6911962,-0.58,-3.03,8.7,0.4222222222222222,0.03555555555555556,-0.8366666666666667,-1.3125,-5.5625,62.25
1589380562.7066252,-0.63,-2.91,8.88,0.4222222222222222,0.03555555555555556,-0.8366666666666667,-1.75,-5.6875,59.375
1589380562.7247627,-0.62,-2.94,8.89,0.4222222222222222,0.03555555555555556,-0.8366666666666667,-1.3125,-4.9375,54.9375
1589380562.740482,-0.71,-2.96,8.9,0.37777777777777777,-0.012222222222222223,-0.8388888888888889,-1.375,-4.1875,49.1875
1589380562.7754295,-0.69,-2.96,8.88,0.37777777777777777,-0.012222222222222223,-0.8388888888888889,-1.4375,-4.125,46.3125
1589380562.7813046,-0.81,-2.98,9.1,0.37777777777777777,-0.012222222222222223,-0.8388888888888889,-0.875,-3.0625,38.5625
1589380562.7912865,-0.81,-2.96,8.95,0.38222222222222224,-0.08888888888888889,-0.7866666666666666,-1.5,-3.0625,36.6875
1589380562.7975874,-0.84,-3.0,9.05,0.38222222222222224,-0.08888888888888889,-0.7866666666666666,-1.875,-3.0,34.875
1589380562.81048,-0.84,-2.98,8.81,0.38222222222222224,-0.08888888888888889,-0.7866666666666666,-1.9375,-3.25,33.6875
1589380562.819914,-0.83,-2.97,8.81,0.38222222222222224,-0.08888888888888889,-0.7866666666666666,-1.625,-3.0625,32.8125
1589380562.8290062,-0.86,-2.99,8.79,0.38222222222222224,-0.08888888888888889,-0.7866666666666666,-1.375,-2.5625,31.75
1589380562.836414,-0.86,-3.04,8.9,0.3977777777777778,-0.14333333333333334,-0.7288888888888889,-1.75,-2.125,30.6875
1589380562.8464146,-0.9,-3.07,8.88,0.3977777777777778,-0.14333333333333334,-0.7288888888888889,-1.75,-1.3125,29.5625
1589380562.8601155,-0.93,-3.09,8.76,0.3977777777777778,-0.14333333333333334,-0.7288888888888889,-1.625,-1.125,28.0625
1589380562.8671794,-0.9,-3.07,8.84,0.3977777777777778,-0.14333333333333334,-0.7288888888888889,-1.3125,-1.4375,26.4375
1589380562.881691,-1.03,-3.18,9.0,0.3977777777777778,-0.14333333333333334,-0.7288888888888889,-1.0625,-1.1875,25.0
1589380562.887719,-1.05,-3.2,9.01,0.44222222222222224,-0.14555555555555555,-0.7,-1.625,-1.375,24.0
1589380562.900896,-1.05,-3.2,8.95,0.44222222222222224,-0.14555555555555555,-0.7,-2.125,-1.0,22.9375
1589380562.9075992,-1.07,-3.24,8.78,0.44222222222222224,-0.14555555555555555,-0.7,-2.375,-1.0625,22.0
1589380562.9175427,-1.04,-3.21,8.94,0.44222222222222224,-0.14555555555555555,-0.7,-2.0,-1.1875,20.625
1589380562.9292045,-1.1,-3.22,8.9,0.44222222222222224,-0.14555555555555555,-0.7,-1.75,-1.5,18.75
1589380562.9406376,-0.99,-3.09,8.77,0.4888888888888889,-0.12444444444444445,-0.6711111111111111,-2.375,-2.0625,17.0
1589380562.9469106,-0.96,-3.06,8.72,0.4888888888888889,-0.12444444444444445,-0.6711111111111111,-1.9375,-1.6875,14.1875
1589380562.9573722,-1.05,-3.22,8.61,0.4888888888888889,-0.12444444444444445,-0.6711111111111111,-1.1875,-1.0,10.9375
1589380562.967538,-1.22,-3.56,8.79,0.4888888888888889,-0.12444444444444445,-0.6711111111111111,-0.5,0.5,7.25
1589380562.9796774,-1.1,-3.17,9.0,0.4888888888888889,-0.12444444444444445,-0.6711111111111111,0.0625,2.4375,3.5625
1589380562.9860682,-1.08,-3.18,9.11,0.5288888888888889,-0.09777777777777777,-0.6588888888888889,0.4375,1.375,0.5625
1589380562.9975922,-1.07,-3.16,9.04,0.5288888888888889,-0.09777777777777777,-0.6588888888888889,0.125,1.625,-2.0
1589380563.0076954,-1.09,-3.16,8.99,0.5288888888888889,-0.09777777777777777,-0.6588888888888889,-0.125,1.3125,-5.0
1589380563.0199687,-1.09,-3.11,8.75,0.5288888888888889,-0.09777777777777777,-0.6588888888888889,-0.1875,0.5625,-7.75
1589380563.0326982,-1.15,-3.22,8.79,0.5288888888888889,-0.09777777777777777,-0.6588888888888889,-0.4375,0.125,-10.3125
1589380563.038162,-1.08,-3.09,8.69,0.5877777777777777,-0.06333333333333334,-0.6944444444444444,-0.5625,0.375,-12.4375
1589380563.0520954,-1.06,-3.05,8.79,0.5877777777777777,-0.06333333333333334,-0.6944444444444444,-0.3125,0.9375,-14.75
1589380563.0579412,-1.08,-3.09,8.79,0.5877777777777777,-0.06333333333333334,-0.6944444444444444,0.4375,1.75,-16.5
1589380563.071957,-1.08,-3.07,8.99,0.5877777777777777,-0.06333333333333334,-0.6944444444444444,0.875,2.375,-18.0
1589380563.0801244,-1.11,-3.08,9.0,0.5877777777777777,-0.06333333333333334,-0.6944444444444444,1.1875,2.8125,-19.5625
1589380563.0893548,-1.12,-3.13,9.08,0.6911111111111111,-0.06,-0.8011111111111111,1.0625,2.625,-21.25
1589380563.0982778,-1.15,-3.12,9.0,0.6911111111111111,-0.06,-0.8011111111111111,0.8125,2.4375,-22.75
1589380563.1086519,-1.07,-3.15,8.89,0.6911111111111111,-0.06,-0.8011111111111111,0.625,1.75,-23.3125
1589380563.1187491,-1.05,-3.16,8.83,0.6911111111111111,-0.06,-0.8011111111111111,0.5,1.0625,-23.8125
1589380563.1303272,-1.12,-3.1,8.7,0.6911111111111111,-0.06,-0.8011111111111111,1.0,2.125,-24.5625
1589380563.1386573,-1.04,-3.04,8.73,0.5866666666666667,-0.20222222222222225,-0.7588888888888888,0.625,1.375,-22.25
1589380563.1508214,-1.29,-3.11,8.79,0.5866666666666667,-0.20222222222222225,-0.7588888888888888,1.0625,2.125,-21.75
1589380563.1592836,-1.15,-3.19,8.82,0.5866666666666667,-0.20222222222222225,-0.7588888888888888,1.25,2.625,-20.3125
1589380563.1712918,-1.31,-3.29,9.11,0.5866666666666667,-0.20222222222222225,-0.7588888888888888,1.125,2.0,-19.625
1589380563.1850188,-1.18,-3.25,8.81,0.5866666666666667,-0.20222222222222225,-0.7588888888888888,1.375,2.3125,-18.5625
1589380563.1913302,-1.07,-3.25,9.11,0.5344444444444445,-0.12777777777777774,-0.68,0.8125,1.5,-16.25
1589380563.2024682,-1.12,-3.25,8.86,0.5344444444444445,-0.12777777777777774,-0.68,0.4375,0.875,-15.4375
1589380563.2085063,-1.13,-3.28,8.8,0.5344444444444445,-0.12777777777777774,-0.68,0.1875,0.6875,-13.625
1589380563.2230885,-1.18,-3.32,8.73,0.5344444444444445,-0.12777777777777774,-0.68,0.5,0.75,-12.6875
1589380563.2306595,-1.12,-3.28,8.74,0.5344444444444445,-0.12777777777777774,-0.68,0.625,1.0625,-11.5
1589380563.2381728,-1.14,-3.37,8.75,0.54,-0.042222222222222223,-0.6733333333333333,0.875,1.6875,-10.1875
1589380563.2484758,-1.17,-3.43,8.89,0.54,-0.042222222222222223,-0.6733333333333333,1.0,1.8125,-9.0
1589380563.259135,-1.17,-3.44,8.88,0.54,-0.042222222222222223,-0.6733333333333333,0.9375,1.5,-7.375
1589380563.268687,-1.16,-3.49,9.03,0.54,-0.042222222222222223,-0.6733333333333333,0.8125,1.0,-5.3125
1589380563.2829342,-1.12,-3.44,8.93,0.54,-0.042222222222222223,-0.6733333333333333,0.625,0.4375,-3.1875
1589380563.2889385,-1.1,-3.54,8.91,0.5277777777777778,-0.008888888888888889,-0.6666666666666666,0.375,-0.625,-0.25
1589380563.2996705,-1.03,-3.5,8.85,0.5277777777777778,-0.008888888888888889,-0.6666666666666666,0.0625,-0.6875,2.125
1589380563.3091927,-0.92,-3.48,8.73,0.5277777777777778,-0.008888888888888889,-0.6666666666666666,-0.0625,-0.75,2.875
1589380563.321456,-0.93,-3.43,8.83,0.5277777777777778,-0.008888888888888889,-0.6666666666666666,0.3125,-0.375,2.0
1589380563.3370402,-0.89,-3.32,8.82,0.5277777777777778,-0.008888888888888889,-0.6666666666666666,0.9375,0.3125,0.125
1589380563.34343,-0.96,-3.46,8.88,0.5344444444444445,0.017777777777777778,-0.6588888888888889,1.125,0.625,-1.375
1589380563.3553185,-0.83,-3.52,8.89,0.5344444444444445,0.017777777777777778,-0.6588888888888889,1.3125,0.875,-1.4375
1589380563.3612866,-0.8,-3.6,8.88,0.5344444444444445,0.017777777777777778,-0.6588888888888889,1.6875,1.0625,-3.125
1589380563.3750556,-0.82,-3.61,8.97,0.5344444444444445,0.017777777777777778,-0.6588888888888889,1.125,0.3125,-5.6875
1589380563.3810904,-0.88,-3.6,8.9,0.5344444444444445,0.017777777777777778,-0.6588888888888889,1.125,0.25,-8.4375
1589380563.3936415,-0.85,-3.56,8.8,0.5455555555555556,0.022222222222222227,-0.68,1.125,0.1875,-10.25
1589380563.3994482,-0.91,-3.63,8.74,0.5455555555555556,0.022222222222222227,-0.68,1.0625,0.375,-11.4375
1589380563.4098113,-1.02,-3.75,8.65,0.5455555555555556,0.022222222222222227,-0.68,1.1875,1.0,-12.9375
1589380563.4194539,-0.94,-3.61,8.87,0.5455555555555556,0.022222222222222227,-0.68,1.1875,2.125,-15.0
1589380563.4315345,-0.99,-3.58,8.95,0.5455555555555556,0.022222222222222227,-0.68,1.3125,2.375,-17.625
1589380563.4388824,-0.97,-3.51,8.93,0.5277777777777778,0.042222222222222223,-0.6433333333333333,1.5625,2.5625,-21.4375
1589380563.453441,-1.03,-3.49,9.0,0.5277777777777778,0.042222222222222223,-0.6433333333333333,1.25,2.875,-25.25
1589380563.4600518,-1.01,-3.35,8.8,0.5277777777777778,0.042222222222222223,-0.6433333333333333,1.3125,3.0,-28.625
1589380563.469782,-0.94,-3.31,8.91,0.5277777777777778,0.042222222222222223,-0.6433333333333333,1.3125,2.5,-31.3125
1589380563.481805,-0.97,-3.34,8.93,0.5277777777777778,0.042222222222222223,-0.6433333333333333,1.375,2.3125,-33.3125
1589380563.4932845,-0.89,-3.35,8.75,0.5522222222222222,0.03555555555555556,-0.6944444444444444,1.25,2.6875,-35.0
1589380563.5024295,-0.91,-3.5,8.81,0.5522222222222222,0.03555555555555556,-0.6944444444444444,1.625,2.9375,-36.125
1589380563.5124097,-1.01,-3.61,8.65,0.5522222222222222,0.03555555555555556,-0.6944444444444444,1.75,3.3125,-37.625
1589380563.5203855,-0.86,-3.47,8.79,0.5522222222222222,0.03555555555555556,-0.6944444444444444,1.8125,4.25,-38.875
1589380563.531716,-0.75,-3.25,9.0,0.5522222222222222,0.03555555555555556,-0.6944444444444444,2.125,3.1875,-40.0625
1589380563.538184,-0.75,-3.14,9.07,0.6588888888888889,0.027777777777777776,-0.6666666666666666,1.875,3.75,-42.6875
1589380563.548636,-0.75,-3.14,9.07,0.6588888888888889,0.027777777777777776,-0.6666666666666666,1.875,3.75,-42.6875
1589380563.554445,-0.78,-3.11,8.99,0.6588888888888889,0.027777777777777776,-0.6666666666666666,1.5625,4.125,-46.375
1589380563.5651345,-0.58,-3.13,9.02,0.6588888888888889,0.027777777777777776,-0.6666666666666666,1.375,4.375,-48.3125
1589380563.5713036,-0.56,-3.1,8.67,0.6588888888888889,0.027777777777777776,-0.6666666666666666,0.875,3.5,-45.3125
1589380563.5829165,-1.15,-3.29,8.81,0.6588888888888889,0.027777777777777776,-0.6666666666666666,1.0625,3.75,-48.5625
1589380563.5890176,-1.17,-3.44,8.82,0.9488888888888888,0.0011111111111111113,-0.7022222222222222,2.6875,6.5625,-48.25
1589380563.5947006,-1.17,-3.44,8.82,0.9488888888888888,0.0011111111111111113,-0.7022222222222222,2.6875,6.5625,-48.25
1589380563.6053107,-0.9,-3.48,8.87,0.9488888888888888,0.0011111111111111113,-0.7022222222222222,0.6875,3.125,-41.5625
1589380563.6119778,-1.06,-3.51,8.71,0.9488888888888888,0.0011111111111111113,-0.7022222222222222,1.625,3.875,-38.5625
1589380563.6230679,-0.72,-3.45,8.87,0.9488888888888888,0.0011111111111111113,-0.7022222222222222,1.8125,4.5,-32.3125
1589380563.6316721,-0.59,-3.07,9.0,0.9488888888888888,0.0011111111111111113,-0.7022222222222222,0.625,2.1875,-26.75
1589380563.6426053,-0.51,-2.92,9.05,1.7988888888888892,-0.16,-1.0666666666666669,1.0,2.5625,-27.0
1589380563.6498024,-0.49,-2.84,8.98,1.7988888888888892,-0.16,-1.0666666666666669,0.5,2.4375,-29.3125
1589380563.6597414,-0.57,-2.76,8.78,1.7988888888888892,-0.16,-1.0666666666666669,0.375,2.4375,-32.75
1589380563.6696787,-0.7,-2.88,8.82,1.7988888888888892,-0.16,-1.0666666666666669,0.8125,3.375,-36.0625
1589380563.681449,-0.79,-3.04,8.86,1.7988888888888892,-0.16,-1.0666666666666669,1.1875,3.9375,-37.3125
1589380563.690425,-0.9,-3.22,8.96,0.8633333333333333,-0.11333333333333333,-0.7588888888888888,1.4375,4.1875,-36.0625
1589380563.7022913,-0.95,-3.13,8.89,0.8633333333333333,-0.11333333333333333,-0.7588888888888888,1.375,4.25,-32.25
1589380563.7114265,-1.24,-3.1,8.87,0.8633333333333333,-0.11333333333333333,-0.7588888888888888,1.5,3.0625,-26.0625
1589380563.7198744,-1.21,-3.05,8.92,0.8633333333333333,-0.11333333333333333,-0.7588888888888888,0.9375,1.625,-15.875
1589380563.7326205,-1.11,-3.09,9.0,0.8633333333333333,-0.11333333333333333,-0.7588888888888888,0.6875,0.5,-2.8125
1589380563.7392607,-0.8,-3.11,8.95,0.6055555555555555,0.07111111111111111,-0.7088888888888889,-0.125,-1.8125,19.3125
1589380563.7453554,-0.8,-3.11,8.95,0.6055555555555555,0.07111111111111111,-0.7088888888888889,-0.125,-1.8125,19.3125
1589380563.756034,-0.59,-3.0,8.9,0.6055555555555555,0.07111111111111111,-0.7088888888888889,-0.125,-1.8125,19.3125
1589380563.762182,-0.53,-2.94,8.79,0.6055555555555555,0.07111111111111111,-0.7088888888888889,-0.4375,-2.25,24.875
1589380563.7732222,-0.51,-2.95,8.78,0.6055555555555555,0.07111111111111111,-0.7088888888888889,-0.4375,-2.5625,26.5
1589380563.7820482,-0.46,-2.93,8.93,0.6055555555555555,0.07111111111111111,-0.7088888888888889,0.0,-2.0,24.625
1589380563.7935252,-0.44,-3.0,8.94,0.5422222222222223,0.11555555555555555,-0.7066666666666667,0.1875,-1.625,23.5
1589380563.8000655,-0.36,-2.93,9.03,0.5422222222222223,0.11555555555555555,-0.7066666666666667,-0.1875,-2.1875,20.75
1589380563.8116937,-0.38,-3.01,8.89,0.5422222222222223,0.11555555555555555,-0.7066666666666667,0.0,-1.4375,17.0625
1589380563.8217564,-0.47,-3.12,8.91,0.5422222222222223,0.11555555555555555,-0.7066666666666667,-0.0625,-1.0625,14.5
1589380563.8323722,-0.54,-3.19,8.92,0.5422222222222223,0.11555555555555555,-0.7066666666666667,0.1875,-1.125,13.6875
1589380563.839463,-0.65,-3.41,8.89,0.5511111111111111,0.10444444444444444,-0.6944444444444444,0.125,-0.8125,14.75
1589380563.8503232,-0.65,-3.41,8.89,0.5511111111111111,0.10444444444444444,-0.6944444444444444,0.125,-0.8125,14.75
1589380563.8620546,-0.42,-3.33,8.85,0.5511111111111111,0.10444444444444444,-0.6944444444444444,0.1875,-0.875,15.6875
1589380563.8741186,-0.32,-3.3,8.84,0.5511111111111111,0.10444444444444444,-0.6944444444444444,0.6875,-0.5,13.0625
1589380563.8869634,-0.21,-3.48,8.97,0.5511111111111111,0.10444444444444444,-0.6944444444444444,0.75,-0.3125,8.9375
1589380563.89371,-0.13,-3.59,8.95,0.5433333333333333,0.07777777777777778,-0.6877777777777778,0.8125,0.125,2.875
1589380563.905568,-0.14,-3.65,9.28,0.5433333333333333,0.07777777777777778,-0.6877777777777778,1.4375,0.0,-5.6875
1589380563.912225,-0.15,-3.74,8.94,0.5433333333333333,0.07777777777777778,-0.6877777777777778,1.125,1.3125,-16.5
1589380563.9218204,-3.93,10.22,2.99,0.5433333333333333,0.07777777777777778,-0.6877777777777778,-40.6875,35.0625,-167.6875
1589380563.9329565,2.71,2.19,1.08,0.5433333333333333,0.07777777777777778,-0.6877777777777778,-65.6875,44.1875,-358.5625
1589380563.9436615,-1.41,-2.27,-0.51,0.4988888888888889,0.13666666666666666,-0.6522222222222223,-46.375,21.8125,-379.0625
1589380563.9514296,-0.63,-3.69,17.6,0.4988888888888889,0.13666666666666666,-0.6522222222222223,31.25,47.25,-357.9375
1589380563.9651008,-0.77,-1.01,10.39,0.4988888888888889,0.13666666666666666,-0.6522222222222223,128.6875,54.6875,-339.8125
1589380563.971098,-2.41,0.28,7.46,0.4988888888888889,0.13666666666666666,-0.6522222222222223,38.25,30.25,-321.0
1589380563.9826608,0.23,-1.95,9.56,0.4988888888888889,0.13666666666666666,-0.6522222222222223,-11.75,8.1875,-300.25
1589380563.990638,-1.69,-0.08,8.96,0.4988888888888889,0.2488888888888889,-0.6311111111111111,15.6875,36.75,-285.625
1589380564.0007162,-1.27,-0.09,9.12,0.4988888888888889,0.2488888888888889,-0.6311111111111111,7.4375,26.5625,-256.375
1589380564.0066526,-1.27,-0.09,9.12,0.4988888888888889,0.2488888888888889,-0.6311111111111111,7.4375,26.5625,-256.375
1589380564.0139453,-0.87,0.03,9.06,0.4988888888888889,0.2488888888888889,-0.6311111111111111,5.875,20.1875,-222.0625
1589380564.0249686,-0.96,0.09,9.33,0.4988888888888889,0.2488888888888889,-0.6311111111111111,4.375,17.75,-188.4375
1589380564.0355794,-0.27,-0.26,9.35,0.4988888888888889,0.2488888888888889,-0.6311111111111111,3.3125,14.4375,-150.8125
1589380564.0446699,0.34,-0.71,9.12,0.43,0.31777777777777777,-0.6355555555555555,1.9375,10.25,-116.5625
1589380564.0521462,0.66,-1.11,8.98,0.43,0.31777777777777777,-0.6355555555555555,2.0625,8.25,-90.5
1589380564.0635562,0.25,-1.85,8.78,0.43,0.31777777777777777,-0.6355555555555555,1.9375,7.0,-67.5
1589380564.0721705,0.2,-2.11,9.24,0.43,0.31777777777777777,-0.6355555555555555,1.4375,4.375,-42.1875
1589380564.0838852,0.23,-2.23,8.78,0.43,0.31777777777777777,-0.6355555555555555,-0.125,1.4375,-18.0
1589380564.0951676,-0.32,-2.41,9.08,0.3911111111111111,0.3888888888888889,-0.6433333333333333,0.0,-0.125,7.5625
1589380564.1022336,0.5,-2.51,8.85,0.3911111111111111,0.3888888888888889,-0.6433333333333333,-0.375,-3.0,31.8125
1589380564.1164474,0.68,-2.61,9.0,0.3911111111111111,0.3888888888888889,-0.6433333333333333,-0.875,-5.5625,42.75
1589380564.122891,0.65,-2.6,8.73,0.3911111111111111,0.3888888888888889,-0.6433333333333333,-0.8125,-4.3125,44.875
1589380564.1340456,0.43,-2.72,9.05,0.3911111111111111,0.3888888888888889,-0.6433333333333333,-1.1875,-4.25,46.875
1589380564.1412685,0.59,-2.68,8.78,0.37666666666666665,0.3922222222222223,-0.6288888888888889,-1.3125,-4.25,51.3125
1589380564.1517904,0.75,-2.73,9.01,0.37666666666666665,0.3922222222222223,-0.6288888888888889,-1.375,-5.25,52.5
1589380564.1617205,0.46,-2.67,8.9,0.37666666666666665,0.3922222222222223,-0.6288888888888889,-0.6875,-4.125,51.4375
1589380564.1718955,2.99,-23.33,10.13,0.37666666666666665,0.3922222222222223,-0.6288888888888889,1.8125,-4.5,53.3125
1589380564.1859126,-0.5,-4.77,5.8,0.37666666666666665,0.3922222222222223,-0.6288888888888889,17.0,9.125,98.9375
1589380564.1936526,1.84,-2.13,9.93,0.38333333333333336,0.38333333333333336,-0.6522222222222223,-5.6875,-24.9375,148.9375
1589380564.202559,0.38,-4.24,9.15,0.38333333333333336,0.38333333333333336,-0.6522222222222223,-2.3125,-10.0625,139.3125
1589380564.2145312,0.82,-4.24,9.18,0.38333333333333336,0.38333333333333336,-0.6522222222222223,-3.5625,-13.0625,141.75
1589380564.2226784,0.47,-4.05,8.56,0.38333333333333336,0.38333333333333336,-0.6522222222222223,-3.5,-13.3125,138.1875
1589380564.2341185,0.27,-3.99,8.89,0.38333333333333336,0.38333333333333336,-0.6522222222222223,-3.125,-12.75,137.875
1589380564.2434564,0.19,-4.25,8.82,0.4122222222222222,0.3588888888888889,-0.6355555555555555,-3.6875,-13.25,137.625
1589380564.2531884,0.25,-3.9,8.79,0.4122222222222222,0.3588888888888889,-0.6355555555555555,-3.0,-11.875,137.9375
1589380564.266326,0.13,-4.17,8.62,0.4122222222222222,0.3588888888888889,-0.6355555555555555,-3.5,-12.625,137.5625
1589380564.272516,0.23,-4.29,8.9,0.4122222222222222,0.3588888888888889,-0.6355555555555555,-2.875,-12.0,137.125
1589380564.288676,-0.06,-4.39,8.78,0.4122222222222222,0.3588888888888889,-0.6355555555555555,-3.625,-12.75,136.6875
1589380564.2941985,8.46,-17.32,9.35,0.4511111111111111,0.31222222222222223,-0.6311111111111111,-2.125,-15.5,133.9375
1589380564.3037393,1.09,-4.49,7.42,0.4511111111111111,0.31222222222222223,-0.6311111111111111,2.0625,-10.875,72.0625
1589380564.3129926,-0.38,-4.0,8.68,0.4511111111111111,0.31222222222222223,-0.6311111111111111,1.9375,3.8125,34.625
1589380564.322754,-0.41,-3.71,8.8,0.4511111111111111,0.31222222222222223,-0.6311111111111111,-0.6875,-2.4375,14.875
1589380564.3341115,-0.18,-4.17,8.88,0.4511111111111111,0.31222222222222223,-0.6311111111111111,0.4375,-1.5,1.0
1589380564.345946,-0.06,-4.12,8.87,0.4711111111111111,0.2733333333333333,-0.6355555555555555,-0.4375,-1.875,-0.6875
1589380564.352244,-0.21,-4.05,8.78,0.4711111111111111,0.2733333333333333,-0.6355555555555555,0.125,-0.0625,-0.1875
1589380564.3660152,-0.13,-4.18,8.72,0.4711111111111111,0.2733333333333333,-0.6355555555555555,-0.3125,-0.5,-0.25
1589380564.3727255,-0.15,-4.15,8.8,0.4711111111111111,0.2733333333333333,-0.6355555555555555,0.125,-0.25,-0.25
1589380564.3846517,-0.19,-4.12,8.81,0.4711111111111111,0.2733333333333333,-0.6355555555555555,0.1875,0.5,0.0
1589380564.3955245,-0.21,-4.12,8.84,0.4711111111111111,0.2588888888888889,-0.6355555555555555,0.125,-0.0625,-0.0625
1589380564.4035866,-0.16,-4.17,8.82,0.4711111111111111,0.2588888888888889,-0.6355555555555555,-0.375,0.0625,0.0
1589380564.418829,-0.14,-4.18,8.77,0.4711111111111111,0.2588888888888889,-0.6355555555555555,0.125,0.0,0.125
1589380564.4255552,-0.15,-4.15,8.8,0.4711111111111111,0.2588888888888889,-0.6355555555555555,0.3125,0.125,0.0
1589380564.440159,-0.19,-4.08,8.86,0.4711111111111111,0.2588888888888889,-0.6355555555555555,0.75,-0.0625,0.0625
1589380564.4459212,-0.15,-4.12,8.87,0.4633333333333333,0.2788888888888889,-0.6444444444444445,0.25,0.0,0.0625
1589380564.4576194,-0.15,-4.11,8.89,0.4633333333333333,0.2788888888888889,-0.6444444444444445,0.125,0.0,0.0625
1589380564.4637055,-0.16,-4.19,8.75,0.4633333333333333,0.2788888888888889,-0.6444444444444445,-0.3125,-0.125,0.125
1589380564.477861,-0.16,-4.11,8.79,0.4633333333333333,0.2788888888888889,-0.6444444444444445,0.0,-0.125,0.0625
1589380564.486701,-0.16,-4.17,8.78,0.4633333333333333,0.2788888888888889,-0.6444444444444445,-0.0625,-0.1875,0.0
1589380564.496577,-0.19,-4.13,8.86,0.4711111111111111,0.2788888888888889,-0.6433333333333333,0.1875,0.125,0.0
1589380564.5043359,-0.15,-4.16,8.81,0.4711111111111111,0.2788888888888889,-0.6433333333333333,0.0,0.1875,0.0625
1589380564.5169337,-0.15,-4.13,8.75,0.4711111111111111,0.2788888888888889,-0.6433333333333333,0.125,0.125,0.0
1589380564.5244446,-0.17,-4.16,8.76,0.4711111111111111,0.2788888888888889,-0.6433333333333333,0.3125,0.1875,0.0625
