time,acc_x,acc_y,acc_z,mag_x,mag_y,mag_z,gyr_x,gyr_y,gyr_z
1589380582.6317587,-0.1,-4.13,8.81,0.5022222222222222,0.21666666666666667,-0.7866666666666666,-0.1875,0.125,0.0
1589380582.6419828,-0.1,-4.13,8.79,0.5022222222222222,0.21666666666666667,-0.7866666666666666,-0.0625,-0.0625,0.0
1589380582.6481571,-0.1,-4.13,8.71,0.5022222222222222,0.21666666666666667,-0.7866666666666666,-0.1875,0.125,0.0
1589380582.6560938,-0.07,-4.13,8.73,0.5022222222222222,0.21666666666666667,-0.7866666666666666,-0.125,-0.0625,-0.125
1589380582.6682642,-0.08,-4.12,8.82,0.5022222222222222,0.21666666666666667,-0.7866666666666666,-0.125,-0.25,-0.125
1589380582.6792045,-0.1,-4.13,8.83,0.51,0.22333333333333333,-0.7866666666666666,-0.1875,-0.0625,-0.0625
1589380582.6852093,-0.09,-4.15,8.85,0.51,0.22333333333333333,-0.7866666666666666,0.0,-0.125,-0.0625
1589380582.6998534,-0.1,-4.13,8.77,0.51,0.22333333333333333,-0.7866666666666666,-0.0625,-0.25,0.0
1589380582.70571,-0.09,-4.12,8.78,0.51,0.22333333333333333,-0.7866666666666666,0.0,-0.0625,-0.0625
1589380582.7181668,-0.08,-4.13,8.78,0.51,0.22333333333333333,-0.7866666666666666,0.0,0.0,-0.0625
1589380582.725678,-0.07,-4.12,8.83,0.51,0.21666666666666667,-0.7733333333333333,-0.125,0.25,0.0
1589380582.7369893,-0.1,-4.1,8.8,0.51,0.21666666666666667,-0.7733333333333333,-0.0625,0.25,-0.1875
1589380582.7464054,-0.12,-4.14,8.73,0.51,0.21666666666666667,-0.7733333333333333,-0.0625,0.125,-0.0625
1589380582.7565165,-0.1,-4.14,8.77,0.51,0.21666666666666667,-0.7733333333333333,-0.0625,0.1875,0.0
1589380582.7700493,-0.12,-4.13,8.81,0.51,0.21666666666666667,-0.7733333333333333,0.0,0.0,0.0
1589380582.7782488,-0.11,-4.12,8.83,0.5022222222222222,0.21666666666666667,-0.7733333333333333,-0.125,-0.125,0.0
1589380582.79006,-0.08,-4.13,8.83,0.5022222222222222,0.21666666666666667,-0.7733333333333333,0.0,-0.25,-0.0625
1589380582.796225,-0.1,-4.14,8.71,0.5022222222222222,0.21666666666666667,-0.7733333333333333,0.0625,0.0625,-0.1875
1589380582.8104932,-0.06,-4.14,8.76,0.5022222222222222,0.21666666666666667,-0.7733333333333333,0.1875,0.125,-0.125
1589380582.8187945,-0.05,-4.13,8.78,0.5022222222222222,0.21666666666666667,-0.7733333333333333,-0.0625,0.375,-0.125
1589380582.8298414,-0.1,-4.12,8.84,0.5155555555555555,0.22333333333333333,-0.7655555555555555,0.125,0.3125,0.0
1589380582.8367555,-0.12,-4.12,8.79,0.5155555555555555,0.22333333333333333,-0.7655555555555555,0.125,0.1875,0.0625
1589380582.8512616,-0.12,-4.13,8.72,0.5155555555555555,0.22333333333333333,-0.7655555555555555,0.0625,0.1875,0.125
1589380582.8572707,-0.12,-4.13,8.76,0.5155555555555555,0.22333333333333333,-0.7655555555555555,-0.0625,0.0,0.1875
1589380582.868706,-0.09,-4.12,8.78,0.5155555555555555,0.22333333333333333,-0.7655555555555555,0.0625,-0.125,-0.0625
1589380582.8763282,-0.07,-4.14,8.82,0.5022222222222222,0.22333333333333333,-0.7655555555555555,0.1875,-0.0625,0.0
1589380582.8862402,-0.05,-4.12,8.79,0.5022222222222222,0.22333333333333333,-0.7655555555555555,0.125,0.1875,0.0625
1589380582.8961465,-0.05,-4.11,8.69,0.5022222222222222,0.22333333333333333,-0.7655555555555555,0.1875,0.125,0.1875
1589380582.9071414,-0.09,-4.12,8.76,0.5022222222222222,0.22333333333333333,-0.7655555555555555,0.0625,0.125,0.0
1589380582.9223864,-0.1,-4.11,8.86,0.5022222222222222,0.22333333333333333,-0.7655555555555555,0.125,0.125,0.0
1589380582.928475,-0.13,-4.12,8.87,0.4955555555555556,0.21666666666666667,-0.78,-0.0625,0.0,0.0625
1589380582.936529,-0.09,-4.13,8.89,0.4955555555555556,0.21666666666666667,-0.78,-0.0625,0.0625,0.125
1589380582.947711,-0.09,-4.11,8.71,0.4955555555555556,0.21666666666666667,-0.78,-0.1875,-0.1875,0.0625
1589380582.9566786,-0.04,-4.13,8.74,0.4955555555555556,0.21666666666666667,-0.78,-0.0625,-0.25,-0.0625
1589380582.9693086,-0.06,-4.11,8.79,0.4955555555555556,0.21666666666666667,-0.78,0.0,-0.25,0.0
1589380582.9790163,-0.09,-4.11,8.8,0.51,0.2088888888888889,-0.7733333333333333,0.125,0.0625,0.0625
1589380582.9866107,-0.1,-4.12,8.8,0.51,0.2088888888888889,-0.7733333333333333,0.0625,-0.0625,0.0625
1589380583.0001047,-0.12,-4.12,8.73,0.51,0.2088888888888889,-0.7733333333333333,0.0,0.0625,0.0625
1589380583.0067768,-0.11,-4.13,8.77,0.51,0.2088888888888889,-0.7733333333333333,-0.0625,0.125,0.125
1589380583.0200331,-0.08,-4.13,8.83,0.51,0.2088888888888889,-0.7733333333333333,0.125,0.125,-0.0625
1589380583.0270743,-0.06,-4.11,8.84,0.5288888888888889,0.2088888888888889,-0.7655555555555555,0.0,0.0,0.0
1589380583.0402524,-0.08,-4.12,8.81,0.5288888888888889,0.2088888888888889,-0.7655555555555555,0.125,-0.125,0.0625
1589380583.0470526,-0.09,-4.1,8.7,0.5288888888888889,0.2088888888888889,-0.7655555555555555,0.0625,-0.0625,0.0625
1589380583.0576718,-0.09,-4.12,8.75,0.5288888888888889,0.2088888888888889,-0.7655555555555555,0.0625,0.0,0.125
1589380583.0729938,-0.11,-4.12,8.8,0.5288888888888889,0.2088888888888889,-0.7655555555555555,0.0,0.0625,0.0
1589380583.07902,-0.12,-4.12,8.81,0.4955555555555556,0.21666666666666667,-0.78,-0.0625,0.1875,0.0625
1589380583.0876632,-0.12,-4.12,8.86,0.4955555555555556,0.21666666666666667,-0.78,0.0,0.0625,0.0625
1589380583.100208,-0.1,-4.13,8.78,0.4955555555555556,0.21666666666666667,-0.78,0.0,-0.125,0.1875
1589380583.107818,-0.08,-4.1,8.82,0.4955555555555556,0.21666666666666667,-0.78,-0.0625,0.0625,-0.125
1589380583.1203597,-0.08,-4.13,8.84,0.4955555555555556,0.21666666666666667,-0.78,-0.125,-0.0625,-0.0625
1589380583.1294167,-0.09,-4.12,8.82,0.5022222222222222,0.20222222222222225,-0.78,-0.125,-0.25,0.0625
1589380583.137456,-0.09,-4.14,8.77,0.5022222222222222,0.20222222222222225,-0.78,0.125,-0.0625,0.0625
1589380583.1526554,-0.1,-4.12,8.66,0.5022222222222222,0.20222222222222225,-0.78,0.0625,0.0625,0.0
1589380583.158709,-0.11,-4.12,8.68,0.5022222222222222,0.20222222222222225,-0.78,0.0,0.0625,0.0
1589380583.1741445,-0.12,-4.13,8.8,0.5022222222222222,0.20222222222222225,-0.78,0.0625,0.0625,0.0
1589380583.1808102,-0.1,-4.12,8.84,0.51,0.22333333333333333,-0.7733333333333333,0.0,0.0,0.0625
1589380583.1920516,-0.11,-4.12,8.88,0.51,0.22333333333333333,-0.7733333333333333,-0.0625,-0.3125,0.0
1589380583.1985073,-0.06,-4.1,8.78,0.51,0.22333333333333333,-0.7733333333333333,-0.1875,-0.4375,-0.0625
1589380583.211494,-0.02,-4.06,8.88,0.51,0.22333333333333333,-0.7733333333333333,-0.125,-0.3125,-0.1875
1589380583.220024,-0.02,-4.03,8.86,0.51,0.22333333333333333,-0.7733333333333333,0.0,-0.1875,-1.125
1589380583.2318752,-0.07,-4.1,8.85,0.5022222222222222,0.2288888888888889,-0.7733333333333333,0.0625,0.125,-2.5625
1589380583.238255,-0.1,-4.16,8.76,0.5022222222222222,0.2288888888888889,-0.7733333333333333,0.0625,0.3125,-3.3125
1589380583.2479882,-0.11,-4.16,8.67,0.5022222222222222,0.2288888888888889,-0.7733333333333333,0.25,0.5625,-3.1875
1589380583.2582936,-0.13,-4.17,8.75,0.5022222222222222,0.2288888888888889,-0.7733333333333333,0.1875,0.6875,-3.0625
1589380583.2701206,-0.08,-4.16,8.8,0.5022222222222222,0.2288888888888889,-0.7733333333333333,0.0625,0.5625,-2.4375
1589380583.2773464,-0.09,-4.15,8.85,0.51,0.22333333333333333,-0.7944444444444444,0.1875,0.25,-1.8125
1589380583.2881198,-0.09,-4.15,8.85,0.51,0.22333333333333333,-0.7944444444444444,0.1875,0.25,-1.8125
1589380583.2989776,-0.08,-4.13,8.74,0.51,0.22333333333333333,-0.7944444444444444,0.1875,-0.125,-0.25
1589380583.308645,-0.09,-4.12,8.82,0.51,0.22333333333333333,-0.7944444444444444,0.3125,-0.0625,-0.125
1589380583.3251836,-0.1,-4.11,8.84,0.51,0.22333333333333333,-0.7944444444444444,0.125,0.0,0.0
1589380583.3308904,-0.09,-4.13,8.82,0.4955555555555556,0.22333333333333333,-0.7588888888888888,0.0,0.1875,-0.0625
1589380583.3428185,-0.08,-4.14,8.82,0.4955555555555556,0.22333333333333333,-0.7588888888888888,0.0,0.375,0.0
1589380583.3487575,-0.08,-4.12,8.7,0.4955555555555556,0.22333333333333333,-0.7588888888888888,0.125,0.375,0.0
1589380583.362527,-0.05,-4.15,8.76,0.4955555555555556,0.22333333333333333,-0.7588888888888888,0.125,0.4375,-0.125
1589380583.3711052,-0.06,-4.13,8.79,0.4955555555555556,0.22333333333333333,-0.7588888888888888,0.125,0.375,-0.0625
1589380583.3826563,-0.12,-4.14,8.87,0.5155555555555555,0.21666666666666667,-0.7655555555555555,0.0625,0.0625,-0.1875
1589380583.3886359,-0.1,-4.12,8.82,0.5155555555555555,0.21666666666666667,-0.7655555555555555,-0.0625,-0.0625,-0.25
1589380583.4016645,-0.09,-4.12,8.72,0.5155555555555555,0.21666666666666667,-0.7655555555555555,-0.0625,-0.0625,-0.0625
1589380583.4085755,-0.09,-4.13,8.72,0.5155555555555555,0.21666666666666667,-0.7655555555555555,-0.0625,-0.3125,0.0625
1589380583.4232178,-0.05,-4.13,8.83,0.5155555555555555,0.21666666666666667,-0.7655555555555555,-0.125,-0.1875,-0.0625
1589380583.4299738,-0.05,-4.15,8.83,0.5022222222222222,0.22333333333333333,-0.7655555555555555,-0.0625,0.0,-0.0625
1589380583.440119,-0.07,-4.13,8.84,0.5022222222222222,0.22333333333333333,-0.7655555555555555,0.0625,0.125,-0.125
1589380583.4490082,-0.07,-4.1,8.72,0.5022222222222222,0.22333333333333333,-0.7655555555555555,0.0,0.3125,-0.25
1589380583.4599025,-0.1,-4.09,8.79,0.5022222222222222,0.22333333333333333,-0.7655555555555555,0.0625,0.375,-0.3125
1589380583.4716597,-0.09,-4.11,8.82,0.5022222222222222,0.22333333333333333,-0.7655555555555555,0.0625,0.125,-0.0625
1589380583.4828675,-0.09,-4.13,8.84,0.5366666666666666,0.2288888888888889,-0.78,-0.0625,-0.125,-0.125
1589380583.4897616,-0.1,-4.12,8.79,0.5366666666666666,0.2288888888888889,-0.78,-0.125,-0.25,0.0
1589380583.501811,-0.1,-4.12,8.73,0.5366666666666666,0.2288888888888889,-0.78,-0.0625,-0.3125,-0.0625
1589380583.5138679,-0.07,-4.12,8.75,0.5366666666666666,0.2288888888888889,-0.78,-0.0625,-0.4375,0.0625
1589380583.521802,-0.1,-4.13,8.79,0.5366666666666666,0.2288888888888889,-0.78,0.0,-0.3125,0.0625
1589380583.5342677,-0.07,-4.12,8.85,0.5155555555555555,0.2088888888888889,-0.7733333333333333,0.0,-0.25,0.0
1589380583.5407903,-0.07,-4.12,8.83,0.5155555555555555,0.2088888888888889,-0.7733333333333333,-0.0625,0.0625,0.1875
1589380583.5527046,-0.05,-4.15,8.74,0.5155555555555555,0.2088888888888889,-0.7733333333333333,-0.1875,0.0625,-0.0625
1589380583.5593526,-0.08,-4.11,8.75,0.5155555555555555,0.2088888888888889,-0.7733333333333333,0.0,0.125,0.0
1589380583.5719788,-0.08,-4.13,8.81,0.5155555555555555,0.2088888888888889,-0.7733333333333333,-0.125,0.0625,-0.125
1589380583.580044,-0.1,-4.13,8.81,0.51,0.22333333333333333,-0.7655555555555555,0.0,-0.0625,-0.3125
1589380583.591402,-0.09,-4.12,8.8,0.51,0.22333333333333333,-0.7655555555555555,-0.1875,-0.3125,-0.125
1589380583.5998929,-0.02,-4.07,8.74,0.51,0.22333333333333333,-0.7655555555555555,-0.3125,-0.375,-0.625
1589380583.6116152,-0.01,-4.07,8.81,0.51,0.22333333333333333,-0.7655555555555555,-0.25,-0.5,-1.8125
1589380583.6213455,-0.04,-4.07,8.83,0.51,0.22333333333333333,-0.7655555555555555,-0.3125,-0.3125,-3.4375
1589380583.6312475,-0.1,-4.15,8.91,0.5155555555555555,0.22333333333333333,-0.78,-0.3125,0.0625,-4.5
1589380583.6399875,-0.09,-4.18,8.85,0.5155555555555555,0.22333333333333333,-0.78,-0.4375,-0.1875,-4.6875
1589380583.6497648,-0.1,-4.18,8.71,0.5155555555555555,0.22333333333333333,-0.78,-0.5,-0.0625,-3.1875
1589380583.662522,-0.1,-4.16,8.74,0.5155555555555555,0.22333333333333333,-0.78,-0.6875,-0.125,-1.4375
1589380583.672719,-0.04,-4.15,8.78,0.5155555555555555,0.22333333333333333,-0.78,-0.75,-0.375,-0.5625
1589380583.6852612,-0.04,-4.15,8.77,0.5155555555555555,0.21666666666666667,-0.7655555555555555,-0.6875,-0.4375,-0.25
1589380583.6913776,-0.05,-4.15,8.76,0.5155555555555555,0.21666666666666667,-0.7655555555555555,-0.5,-0.375,0.0
1589380583.7057984,-0.08,-4.1,8.69,0.5155555555555555,0.21666666666666667,-0.7655555555555555,-0.3125,-0.25,-0.0625
1589380583.7117858,-0.12,-4.06,8.8,0.5155555555555555,0.21666666666666667,-0.7655555555555555,-0.5625,-0.875,-0.1875
1589380583.721947,-0.1,-3.95,8.89,0.5155555555555555,0.21666666666666667,-0.7655555555555555,-1.5,-2.0625,-0.3125
1589380583.7289221,-0.13,-3.71,8.93,0.4955555555555556,0.2344444444444445,-0.78,-2.3125,-3.3125,-0.6875
1589380583.735193,-0.13,-3.71,8.93,0.4955555555555556,0.2344444444444445,-0.78,-2.3125,-3.3125,-0.6875
1589380583.7442956,-0.58,-2.7,8.8,0.4955555555555556,0.2344444444444445,-0.78,-2.6875,-2.8125,0.1875
1589380583.7505722,-0.87,-2.11,9.23,0.4955555555555556,0.2344444444444445,-0.78,-1.875,-1.1875,8.5625
1589380583.7617276,-0.68,-2.02,8.72,0.4955555555555556,0.2344444444444445,-0.78,0.1875,-0.0625,21.5625
1589380583.7720838,-0.49,-2.38,8.88,0.4955555555555556,0.2344444444444445,-0.78,0.5,-1.0625,37.5625
1589380583.7802868,-0.21,-2.57,8.95,0.5022222222222222,0.2088888888888889,-0.7733333333333333,-1.5625,-4.9375,46.75
1589380583.7909155,-0.15,-2.63,8.88,0.5022222222222222,0.2088888888888889,-0.7733333333333333,-1.0625,-4.375,51.125
1589380583.800873,-0.11,-2.66,8.78,0.5022222222222222,0.2088888888888889,-0.7733333333333333,-1.4375,-5.1875,52.125
1589380583.8135662,-0.18,-2.69,8.99,0.5022222222222222,0.2088888888888889,-0.7733333333333333,-1.0,-5.125,51.5625
1589380583.8221552,-0.26,-2.71,9.04,0.5022222222222222,0.2088888888888889,-0.7733333333333333,-1.0,-5.375,51.125
1589380583.8311884,-0.29,-2.76,9.08,0.5022222222222222,0.21666666666666667,-0.7866666666666666,-0.875,-5.0625,51.3125
1589380583.8425455,-0.36,-2.7,9.03,0.5022222222222222,0.21666666666666667,-0.7866666666666666,-1.25,-5.375,52.9375
1589380583.8516386,-0.38,-2.73,8.81,0.5022222222222222,0.21666666666666667,-0.7866666666666666,-1.1875,-5.375,55.75
1589380583.862672,-0.37,-2.74,8.87,0.5022222222222222,0.21666666666666667,-0.7866666666666666,-1.5625,-5.5,58.9375
1589380583.87679,-0.4,-2.76,8.93,0.5022222222222222,0.21666666666666667,-0.7866666666666666,-1.5625,-5.5625,62.0625
1589380583.8826196,-0.37,-2.8,8.96,0.5022222222222222,0.20222222222222225,-0.7866666666666666,-1.4375,-5.625,64.8125
1589380583.8962429,-0.41,-2.78,8.91,0.5022222222222222,0.20222222222222225,-0.7866666666666666,-1.6875,-6.0,66.8125
1589380583.9022725,-0.37,-2.82,8.79,0.5022222222222222,0.20222222222222225,-0.7866666666666666,-1.75,-6.4375,68.0625
1589380583.9156346,-0.4,-2.78,8.78,0.5022222222222222,0.20222222222222225,-0.7866666666666666,-1.8125,-6.625,68.8125
1589380583.923534,-0.37,-2.82,8.93,0.5022222222222222,0.20222222222222225,-0.7866666666666666,-1.625,-7.0,69.4375
1589380583.9343038,-0.4,-2.87,9.0,0.5155555555555555,0.17,-0.8088888888888889,-1.5,-7.375,70.6875
1589380583.9418962,-0.38,-2.89,9.0,0.5155555555555555,0.17,-0.8088888888888889,-1.8125,-7.25,71.25
1589380583.952024,-0.37,-2.91,8.89,0.5155555555555555,0.17,-0.8088888888888889,-1.75,-7.25,71.375
1589380583.9618893,-0.45,-2.87,8.89,0.5155555555555555,0.17,-0.8088888888888889,-1.75,-6.625,70.6875
1589380583.9741573,-0.5,-2.89,8.9,0.5155555555555555,0.17,-0.8088888888888889,-1.8125,-6.1875,70.4375
1589380583.9812107,-0.55,-2.82,8.99,0.5022222222222222,0.1288888888888889,-0.8366666666666667,-1.6875,-6.25,70.625
1589380583.9930327,-0.63,-2.84,8.9,0.5022222222222222,0.1288888888888889,-0.8366666666666667,-1.75,-6.25,72.0
1589380584.0026948,-0.58,-2.91,8.83,0.5022222222222222,0.1288888888888889,-0.8366666666666667,-1.75,-6.5625,74.1875
1589380584.0143318,-0.52,-2.89,8.78,0.5022222222222222,0.1288888888888889,-0.8366666666666667,-2.0625,-7.5625,76.5
1589380584.0269222,-0.53,-2.88,8.88,0.5022222222222222,0.1288888888888889,-0.8366666666666667,-2.0625,-7.8125,76.8125
1589380584.0331945,-0.56,-2.85,8.98,0.4833333333333333,0.07555555555555556,-0.8222222222222222,-1.9375,-7.75,75.875
1589380584.0461285,-0.6,-2.87,8.98,0.4833333333333333,0.07555555555555556,-0.8222222222222222,-1.8125,-7.625,74.375
1589380584.0525355,-0.58,-2.88,8.88,0.4833333333333333,0.07555555555555556,-0.8222222222222222,-1.8125,-7.25,73.125
1589380584.0662787,-0.63,-2.89,8.88,0.4833333333333333,0.07555555555555556,-0.8222222222222222,-1.8125,-6.625,72.0
1589380584.0741036,-0.65,-2.87,8.95,0.4833333333333333,0.07555555555555556,-0.8222222222222222,-1.875,-6.3125,70.25
1589380584.0845478,-0.68,-2.88,8.95,0.4222222222222222,0.03,-0.8444444444444444,-1.625,-5.9375,68.0625
1589380584.092952,-0.67,-2.89,8.97,0.4222222222222222,0.03,-0.8444444444444444,-1.5,-5.6875,66.375
1589380584.1030533,-0.71,-2.86,8.78,0.4222222222222222,0.03,-0.8444444444444444,-1.6875,-5.8125,64.0625
1589380584.1124682,-0.78,-2.88,8.8,0.4222222222222222,0.03,-0.8444444444444444,-1.6875,-5.6875,61.875
1589380584.1260636,-0.81,-2.87,8.85,0.4222222222222222,0.03,-0.8444444444444444,-1.75,-5.6875,59.875
1589380584.1322665,-0.75,-2.82,8.94,0.4044444444444445,-0.05111111111111112,-0.8155555555555556,-1.75,-5.6875,58.125
1589380584.1436286,-0.81,-2.85,8.94,0.4044444444444445,-0.05111111111111112,-0.8155555555555556,-1.6875,-5.75,56.3125
1589380584.1531699,-0.84,-2.87,8.87,0.4044444444444445,-0.05111111111111112,-0.8155555555555556,-1.6875,-5.0,54.25
1589380584.1651044,-0.89,-2.86,8.9,0.4044444444444445,-0.05111111111111112,-0.8155555555555556,-1.5,-4.5,52.6875
1589380584.1807349,-0.9,-2.83,8.96,0.4044444444444445,-0.05111111111111112,-0.8155555555555556,-1.4375,-4.4375,51.875
1589380584.1870186,-0.88,-2.8,8.94,0.4155555555555556,-0.10111111111111112,-0.7655555555555555,-1.4375,-4.375,50.875
1589380584.1980605,-0.9,-2.8,8.91,0.4155555555555556,-0.10111111111111112,-0.7655555555555555,-1.9375,-4.1875,49.6875
1589380584.2042868,-0.91,-2.82,8.82,0.4155555555555556,-0.10111111111111112,-0.7655555555555555,-2.0625,-4.125,48.4375
1589380584.217907,-0.91,-2.79,8.85,0.4155555555555556,-0.10111111111111112,-0.7655555555555555,-2.125,-3.75,47.0625
1589380584.2253304,-0.87,-2.77,8.86,0.4155555555555556,-0.10111111111111112,-0.7655555555555555,-2.1875,-3.9375,45.875
1589380584.234693,-0.95,-2.92,8.86,0.4,-0.14666666666666667,-0.7233333333333334,-2.4375,-3.875,44.25
1589380584.2439759,-0.92,-2.82,8.84,0.4,-0.14666666666666667,-0.7233333333333334,-2.625,-4.0,41.3125
1589380584.2538981,-0.99,-2.92,8.88,0.4,-0.14666666666666667,-0.7233333333333334,-1.8125,-2.3125,38.375
1589380584.2631915,-1.15,-2.97,8.81,0.4,-0.14666666666666667,-0.7233333333333334,-2.125,-2.4375,35.0
1589380584.2768984,-1.16,-2.97,8.97,0.4,-0.14666666666666667,-0.7233333333333334,-1.9375,-1.8125,32.5
1589380584.2824447,-1.24,-2.99,8.93,0.46,-0.15555555555555556,-0.6933333333333334,-2.125,-1.875,31.6875
1589380584.292658,-1.19,-2.93,8.89,0.46,-0.15555555555555556,-0.6933333333333334,-1.9375,-1.5625,31.0625
1589380584.3037539,-1.22,-2.94,8.77,0.46,-0.15555555555555556,-0.6933333333333334,-1.6875,-1.6875,30.5
1589380584.3132699,-1.18,-2.92,8.84,0.46,-0.15555555555555556,-0.6933333333333334,-1.8125,-1.625,29.375
1589380584.3252573,-1.26,-3.02,8.9,0.46,-0.15555555555555556,-0.6933333333333334,-1.4375,-1.5625,25.5625
1589380584.3369124,-1.22,-2.91,8.89,0.4955555555555556,-0.13444444444444445,-0.6666666666666666,-1.1875,-1.6875,23.375
1589380584.3454866,-1.24,-2.96,8.91,0.4955555555555556,-0.13444444444444445,-0.6666666666666666,-1.125,-1.5,21.4375
1589380584.3535607,-1.3,-2.9,8.76,0.4955555555555556,-0.13444444444444445,-0.6666666666666666,-1.125,-1.25,19.8125
1589380584.368512,-1.31,-2.93,8.97,0.4955555555555556,-0.13444444444444445,-0.6666666666666666,-0.9375,-1.625,18.5625
1589380584.375556,-1.29,-2.88,8.93,0.4955555555555556,-0.13444444444444445,-0.6666666666666666,-0.875,-1.3125,17.8125
1589380584.3888702,-1.31,-2.92,8.98,0.56,-0.12,-0.6711111111111111,-0.75,-1.3125,16.625
1589380584.3948262,-1.32,-2.88,8.9,0.56,-0.12,-0.6711111111111111,-0.8125,-1.0625,15.75
1589380584.4073002,-1.33,-2.87,8.81,0.56,-0.12,-0.6711111111111111,-0.4375,-1.0625,14.8125
1589380584.4137983,-1.36,-2.9,8.83,0.56,-0.12,-0.6711111111111111,-0.5625,-0.875,14.0625
1589380584.428079,-1.36,-2.85,8.95,0.56,-0.12,-0.6711111111111111,-0.375,-1.1875,13.625
1589380584.4342046,-1.46,-2.92,8.91,0.6266666666666667,-0.09777777777777777,-0.6944444444444444,-0.3125,-1.125,13.875
1589380584.444437,-1.46,-2.92,8.93,0.6266666666666667,-0.09777777777777777,-0.6944444444444444,-0.4375,-1.25,14.3125
1589380584.453731,-1.43,-2.89,8.87,0.6266666666666667,-0.09777777777777777,-0.6944444444444444,-0.3125,-1.625,14.5
1589380584.4637892,-1.49,-2.94,8.92,0.6266666666666667,-0.09777777777777777,-0.6944444444444444,-0.4375,-1.6875,14.625
1589380584.4766445,-1.44,-2.88,8.94,0.6266666666666667,-0.09777777777777777,-0.6944444444444444,-0.0625,-1.625,15.3125
1589380584.4843836,-1.3,-2.76,9.0,0.6766666666666666,-0.16444444444444445,-0.8511111111111112,0.0625,-1.6875,15.625
1589380584.4968615,-1.33,-2.7,8.9,0.6766666666666666,-0.16444444444444445,-0.8511111111111112,0.25,-1.625,15.625
1589380584.5041769,-1.3,-2.66,8.85,0.6766666666666666,-0.16444444444444445,-0.8511111111111112,0.3125,-1.5625,16.0
1589380584.5196779,-1.22,-2.62,8.87,0.6766666666666666,-0.16444444444444445,-0.8511111111111112,0.125,-1.5625,15.9375
1589380584.526149,-1.34,-2.72,8.95,0.6766666666666666,-0.16444444444444445,-0.8511111111111112,0.1875,-1.375,15.6875
1589380584.534182,-1.3,-2.68,8.97,0.5255555555555556,-0.23555555555555555,-0.7088888888888889,0.1875,-1.6875,15.75
1589380584.5447006,-1.36,-2.69,8.94,0.5255555555555556,-0.23555555555555555,-0.7088888888888889,0.0,-1.75,15.9375
1589380584.5549984,-1.37,-2.69,8.85,0.5255555555555556,-0.23555555555555555,-0.7088888888888889,0.125,-1.8125,16.1875
1589380584.5645275,-1.38,-2.68,8.94,0.5255555555555556,-0.23555555555555555,-0.7088888888888889,-0.125,-1.8125,16.9375
1589380584.580828,-1.4,-2.69,8.94,0.5255555555555556,-0.23555555555555555,-0.7088888888888889,-0.1875,-2.0625,18.0625
1589380584.587021,-1.46,-2.74,8.99,0.5277777777777778,-0.15555555555555556,-0.6711111111111111,-0.0625,-2.1875,19.0625
1589380584.599062,-1.42,-2.72,9.0,0.5277777777777778,-0.15555555555555556,-0.6711111111111111,0.0,-2.0625,20.375
1589380584.6051672,-1.51,-2.76,8.86,0.5277777777777778,-0.15555555555555556,-0.6711111111111111,-0.0625,-2.0,21.4375
1589380584.6153846,-1.63,-2.87,8.82,0.5277777777777778,-0.15555555555555556,-0.6711111111111111,0.0,-2.125,22.5625
1589380584.6266606,-1.49,-2.77,9.05,0.5277777777777778,-0.15555555555555556,-0.6711111111111111,-0.1875,-2.25,23.5
1589380584.637009,-1.43,-2.68,8.95,0.5155555555555555,-0.11666666666666667,-0.6666666666666666,-0.1875,-2.5,24.125
1589380584.6441991,-1.5,-2.77,8.92,0.5155555555555555,-0.11666666666666667,-0.6666666666666666,-0.125,-2.4375,24.1875
1589380584.6554089,-1.48,-2.8,8.86,0.5155555555555555,-0.11666666666666667,-0.6666666666666666,-0.3125,-2.5,24.0625
1589380584.664874,-1.49,-2.8,8.83,0.5155555555555555,-0.11666666666666667,-0.6666666666666666,-0.25,-2.5,23.625
1589380584.676999,-1.52,-2.78,9.01,0.5155555555555555,-0.11666666666666667,-0.6666666666666666,-0.125,-2.5625,23.0
1589380584.6843402,-1.48,-2.73,8.98,0.5333333333333333,-0.09555555555555556,-0.6577777777777778,0.125,-2.375,22.375
1589380584.6948185,-1.4,-2.7,9.0,0.5333333333333333,-0.09555555555555556,-0.6577777777777778,0.375,-2.5625,21.4375
1589380584.7077935,-1.42,-2.73,8.93,0.5333333333333333,-0.09555555555555556,-0.6577777777777778,0.4375,-2.1875,20.375
1589380584.7152667,-1.4,-2.71,8.94,0.5333333333333333,-0.09555555555555556,-0.6577777777777778,0.625,-2.125,19.0
1589380584.7280908,-1.38,-2.73,8.92,0.5333333333333333,-0.09555555555555556,-0.6577777777777778,0.6875,-2.0,17.5
1589380584.7353652,-1.38,-2.67,8.94,0.5255555555555556,-0.09555555555555556,-0.6711111111111111,0.6875,-1.875,15.5625
1589380584.7498026,-1.37,-2.71,8.91,0.5255555555555556,-0.09555555555555556,-0.6711111111111111,0.8125,-1.6875,14.0625
1589380584.7558842,-1.3,-2.68,8.82,0.5255555555555556,-0.09555555555555556,-0.6711111111111111,0.75,-1.6875,11.625
1589380584.7658193,-1.25,-2.64,8.9,0.5255555555555556,-0.09555555555555556,-0.6711111111111111,0.625,-1.375,9.1875
1589380584.7770514,-1.28,-2.65,8.95,0.5255555555555556,-0.09555555555555556,-0.6711111111111111,0.6875,-1.125,7.0
1589380584.7882955,-0.75,-2.68,9.38,0.5188888888888888,-0.09,-0.6588888888888889,0.6875,-1.25,-0.1875
1589380584.7951398,-0.45,-3.19,8.94,0.5188888888888888,-0.09,-0.6588888888888889,0.375,-0.4375,-16.25
1589380584.80833,-1.83,-3.81,8.82,0.5188888888888888,-0.09,-0.6588888888888889,4.125,6.875,-26.125
1589380584.8150294,-0.86,-3.4,8.43,0.5188888888888888,-0.09,-0.6588888888888889,1.1875,2.0625,-24.6875
1589380584.8265646,-1.33,-3.29,9.05,0.5188888888888888,-0.09,-0.6588888888888889,-0.0625,0.5,-37.0625
1589380584.8354325,-1.39,-3.65,8.78,0.5311111111111111,-0.11,-0.6877777777777778,2.625,5.1875,-41.375
1589380584.8451235,-1.02,-3.88,8.86,0.5311111111111111,-0.11,-0.6877777777777778,1.75,4.25,-41.125
1589380584.8552287,0.0,-3.34,8.82,0.5311111111111111,-0.11,-0.6877777777777778,1.875,4.5625,-48.0
1589380584.865361,-0.47,-3.38,9.0,0.5311111111111111,-0.11,-0.6877777777777778,1.9375,6.0,-68.3125
1589380584.8806741,-0.86,-3.01,8.82,0.5311111111111111,-0.11,-0.6877777777777778,3.4375,9.9375,-86.8125
1589380584.8863986,-0.68,-2.83,8.9,0.5822222222222222,-0.18222222222222226,-0.6733333333333333,1.9375,8.5625,-99.9375
1589380584.8958244,-1.13,-2.87,8.9,0.5822222222222222,-0.18222222222222226,-0.6733333333333333,2.9375,10.5,-112.125
1589380584.9076164,-1.35,-3.06,8.78,0.5822222222222222,-0.18222222222222226,-0.6733333333333333,3.4375,12.0625,-119.375
1589380584.9193766,-1.36,-3.33,8.87,0.5822222222222222,-0.18222222222222226,-0.6733333333333333,3.5625,12.375,-121.4375
1589380584.9273155,-1.52,-4.11,8.87,0.5822222222222222,-0.18222222222222226,-0.6733333333333333,3.625,12.375,-119.4375
1589380584.939688,-1.57,-4.2,8.75,0.8133333333333334,-0.5311111111111111,-0.51,3.6875,12.125,-112.5
1589380584.9462972,-1.11,-3.79,8.78,0.8133333333333334,-0.5311111111111111,-0.51,3.3125,10.6875,-101.75
1589380584.95979,-0.95,-3.39,8.9,0.8133333333333334,-0.5311111111111111,-0.51,2.1875,9.3125,-98.75
1589380584.9658732,-1.02,-3.04,8.89,0.8133333333333334,-0.5311111111111111,-0.51,2.5625,10.0,-99.375
1589380584.9791455,-1.04,-3.04,8.91,0.8133333333333334,-0.5311111111111111,-0.51,2.375,9.5625,-99.5625
1589380584.9850786,-2.02,-3.78,9.08,1.4522222222222223,-0.0811111111111111,-0.46,2.625,9.875,-96.75
1589380584.9968634,-1.11,-4.37,9.03,1.4522222222222223,-0.0811111111111111,-0.46,1.8125,7.5,-81.0625
1589380585.0060544,-1.0,-4.34,8.43,1.4522222222222223,-0.0811111111111111,-0.46,3.75,9.1875,-73.0625
1589380585.016042,-0.61,-4.48,8.81,1.4522222222222223,-0.0811111111111111,-0.46,1.9375,7.0625,-66.0625
1589380585.031032,-0.5,-3.83,8.95,1.4522222222222223,-0.0811111111111111,-0.46,1.6875,6.0625,-66.375
1589380585.0376933,-0.76,-3.23,9.02,0.72,0.015555555555555557,-0.6822222222222222,2.125,7.0,-67.375
1589380585.0460274,-0.9,-3.13,8.87,0.72,0.015555555555555557,-0.6822222222222222,2.0,6.4375,-66.1875
1589380585.0578287,-0.9,-3.15,8.88,0.72,0.015555555555555557,-0.6822222222222222,1.3125,5.6875,-64.1875
1589380585.0663106,-1.39,-3.45,8.83,0.72,0.015555555555555557,-0.6822222222222222,2.375,6.375,-57.125
1589380585.0775876,-0.86,-3.2,8.97,0.72,0.015555555555555557,-0.6822222222222222,1.625,4.5625,-45.1875
1589380585.090175,-0.82,-3.26,8.96,0.5811111111111111,0.048888888888888885,-0.7111111111111111,0.5,2.5,-39.25
1589380585.0958688,-0.74,-3.26,8.88,0.5811111111111111,0.048888888888888885,-0.7111111111111111,1.875,4.625,-35.1875
1589380585.1100314,-0.45,-3.18,8.84,0.5811111111111111,0.048888888888888885,-0.7111111111111111,0.75,3.25,-33.8125
1589380585.1159885,-0.61,-3.32,8.84,0.5811111111111111,0.048888888888888885,-0.7111111111111111,1.125,3.5,-35.4375
1589380585.1284635,-0.73,-3.41,8.92,0.5811111111111111,0.048888888888888885,-0.7111111111111111,1.5,4.25,-37.3125
1589380585.1365974,-0.74,-3.31,9.06,0.57,0.0811111111111111,-0.6755555555555556,1.0,3.5625,-37.375
1589380585.147259,-0.77,-3.21,8.89,0.57,0.0811111111111111,-0.6755555555555556,1.625,3.875,-35.5625
1589380585.1571028,-0.61,-3.02,8.83,0.57,0.0811111111111111,-0.6755555555555556,1.125,3.4375,-32.6875
1589380585.1692452,-0.78,-3.19,8.81,0.57,0.0811111111111111,-0.6755555555555556,1.1875,3.25,-30.9375
1589380585.1807,-1.35,-4.25,8.91,0.57,0.0811111111111111,-0.6755555555555556,1.3125,3.0,-26.1875
1589380585.1873152,-1.56,-4.78,8.64,0.5522222222222222,0.09888888888888887,-0.6733333333333333,1.5625,2.875,-14.375
1589380585.1969626,-0.65,-4.32,8.84,0.5522222222222222,0.09888888888888887,-0.6733333333333333,0.625,-0.0625,7.375
1589380585.2089546,-0.2,-3.81,8.57,0.5522222222222222,0.09888888888888887,-0.6733333333333333,-0.3125,-2.125,15.5625
1589380585.216378,-0.19,-3.39,9.03,0.5522222222222222,0.09888888888888887,-0.6733333333333333,0.125,-0.8125,11.0625
1589380585.230274,-22.7,-25.97,4.26,0.5522222222222222,0.09888888888888887,-0.6733333333333333,-4.3125,0.3125,-4.5
1589380585.235852,3.22,17.73,2.84,0.5277777777777778,0.14222222222222222,-0.6444444444444445,-53.4375,56.0625,-212.125
1589380585.2471402,0.23,-0.85,0.74,0.5277777777777778,0.14222222222222222,-0.6444444444444445,-64.5625,51.75,-337.875
1589380585.2600913,-4.56,-3.06,20.35,0.5277777777777778,0.14222222222222222,-0.6444444444444445,-55.1875,36.375,-336.8125
1589380585.2664607,-0.84,-1.83,8.26,0.5277777777777778,0.14222222222222222,-0.6444444444444445,20.875,-25.4375,-319.4375
1589380585.2792256,-0.16,-2.0,6.11,0.5277777777777778,0.14222222222222222,-0.6444444444444445,132.3125,8.6875,-280.3125
1589380585.286702,-0.17,-1.13,7.5,0.5244444444444445,0.21777777777777774,-0.6311111111111111,85.75,97.6875,-238.5625
1589380585.3004858,-0.72,-0.93,9.9,0.5244444444444445,0.21777777777777774,-0.6311111111111111,-21.375,-1.625,-233.375
1589380585.3068461,-1.38,0.13,9.04,0.5244444444444445,0.21777777777777774,-0.6311111111111111,10.1875,21.4375,-212.1875
1589380585.317958,-1.29,0.18,9.3,0.5244444444444445,0.21777777777777774,-0.6311111111111111,8.625,22.4375,-180.0625
1589380585.3287446,-0.06,0.16,9.24,0.5244444444444445,0.21777777777777774,-0.6311111111111111,2.5625,11.75,-145.875
1589380585.3400204,0.44,-0.22,9.27,0.4744444444444445,0.3,-0.6355555555555555,3.1875,10.75,-118.9375
1589380585.3473055,0.84,-0.54,8.94,0.4744444444444445,0.3,-0.6355555555555555,1.4375,8.375,-102.5625
1589380585.3569384,0.87,-1.43,8.65,0.4744444444444445,0.3,-0.6355555555555555,2.375,9.5625,-91.75
1589380585.3675568,0.86,-1.76,9.05,0.4744444444444445,0.3,-0.6355555555555555,1.125,7.0625,-82.0625
1589380585.3801384,0.67,-2.08,9.11,0.4744444444444445,0.3,-0.6355555555555555,2.625,8.125,-71.0625
1589380585.3898282,0.48,-2.24,8.86,0.4355555555555555,0.3588888888888889,-0.6311111111111111,1.25,5.4375,-61.0
1589380585.3973253,0.31,-2.39,8.6,0.4355555555555555,0.3588888888888889,-0.6311111111111111,1.125,4.625,-51.0625
1589380585.4075165,0.36,-2.58,8.98,0.4355555555555555,0.3588888888888889,-0.6311111111111111,0.875,4.125,-42.3125
1589380585.4194415,0.29,-2.56,9.0,0.4355555555555555,0.3588888888888889,-0.6311111111111111,1.125,3.0,-33.625
1589380585.4344518,0.25,-2.59,9.23,0.4355555555555555,0.3588888888888889,-0.6311111111111111,1.0,2.375,-25.3125
1589380585.440569,0.2,-2.54,8.86,0.4211111111111111,0.3855555555555555,-0.6166666666666667,0.875,2.125,-17.4375
1589380585.452338,0.18,-2.6,9.0,0.4211111111111111,0.3855555555555555,-0.6166666666666667,-0.0625,0.6875,-9.75
1589380585.4582322,0.2,-2.68,8.85,0.4211111111111111,0.3855555555555555,-0.6166666666666667,-0.25,0.1875,-1.375
1589380585.4720685,0.2,-2.79,9.04,0.4211111111111111,0.3855555555555555,-0.6166666666666667,-0.3125,-0.4375,7.3125
1589380585.4794116,1.29,-7.98,9.88,0.4211111111111111,0.3855555555555555,-0.6166666666666667,0.0625,-1.25,15.875
1589380585.4867694,-1.62,-18.96,4.85,0.4088888888888889,0.4033333333333333,-0.6355555555555555,10.0625,4.625,29.8125
1589380585.4986007,0.89,-1.12,8.39,0.4088888888888889,0.4033333333333333,-0.6355555555555555,9.9375,1.25,115.3125
1589380585.5077648,0.67,-5.24,8.48,0.4088888888888889,0.4033333333333333,-0.6355555555555555,-8.3125,-22.9375,133.8125
1589380585.5177195,1.02,-3.74,8.32,0.4088888888888889,0.4033333333333333,-0.6355555555555555,-0.5625,-6.4375,127.625
1589380585.5298731,0.74,-4.52,9.12,0.4088888888888889,0.4033333333333333,-0.6355555555555555,-3.4375,-12.8125,123.875
1589380585.5371113,0.38,-3.87,8.82,0.4133333333333333,0.38333333333333336,-0.6444444444444445,-2.875,-10.9375,120.75
1589380585.5486007,0.38,-3.87,8.82,0.4133333333333333,0.38333333333333336,-0.6444444444444445,-2.875,-10.9375,120.75
1589380585.5578434,0.27,-3.53,8.65,0.4133333333333333,0.38333333333333336,-0.6444444444444445,-3.0625,-10.875,118.9375
1589380585.5697227,-0.02,-4.17,8.81,0.4133333333333333,0.38333333333333336,-0.6444444444444445,-3.0625,-11.3125,120.0625
1589380585.585233,-0.09,-4.09,8.88,0.4133333333333333,0.38333333333333336,-0.6444444444444445,-3.0625,-11.1875,122.8125
1589380585.5909908,-0.09,-4.06,8.87,0.4477777777777778,0.36,-0.6355555555555555,-3.0,-11.3125,124.4375
1589380585.6031642,-0.13,-4.14,8.8,0.4477777777777778,0.36,-0.6355555555555555,-3.0625,-11.625,125.8125
1589380585.609956,6.65,-13.83,9.63,0.4477777777777778,0.36,-0.6355555555555555,-3.375,-11.625,128.0
1589380585.6232972,2.87,-6.4,6.08,0.4477777777777778,0.36,-0.6355555555555555,0.0,-15.6875,120.0625
1589380585.6303134,-1.35,-2.48,9.23,0.4477777777777778,0.36,-0.6355555555555555,2.3125,-3.0,52.125
1589380585.6428945,-0.34,-3.98,8.8,0.4744444444444445,0.31555555555555553,-0.6311111111111111,1.8125,2.0,24.3125
1589380585.648759,-0.04,-4.28,8.85,0.4744444444444445,0.31555555555555553,-0.6311111111111111,-0.625,-2.5625,6.3125
1589380585.657824,-0.14,-4.05,8.74,0.4744444444444445,0.31555555555555553,-0.6311111111111111,-0.0625,-1.375,-0.25
1589380585.665231,-0.14,-4.05,8.74,0.4744444444444445,0.31555555555555553,-0.6311111111111111,-0.0625,-1.375,-0.25
1589380585.67154,-0.19,-4.17,8.78,0.4744444444444445,0.31555555555555553,-0.6311111111111111,0.1875,0.4375,0.0625
1589380585.6805365,-0.17,-4.19,8.84,0.4744444444444445,0.31555555555555553,-0.6311111111111111,-0.125,-0.4375,-0.1875
1589380585.6879122,-0.18,-4.11,8.84,0.4866666666666667,0.29444444444444445,-0.6311111111111111,0.0625,0.0625,0.0625
1589380585.6991525,-0.15,-4.15,8.88,0.4866666666666667,0.29444444444444445,-0.6311111111111111,0.125,0.125,0.0625
1589380585.7100596,-0.16,-4.14,8.74,0.4866666666666667,0.29444444444444445,-0.6311111111111111,-0.0625,0.1875,0.0625
1589380585.7208328,-0.13,-4.14,8.83,0.4866666666666667,0.29444444444444445,-0.6311111111111111,-0.125,-0.125,-0.0625
1589380585.7316241,-0.15,-4.16,8.78,0.4866666666666667,0.29444444444444445,-0.6311111111111111,0.0,-0.25,0.0
1589380585.742582,-0.14,-4.1,8.83,0.4744444444444445,0.2888888888888889,-0.6311111111111111,0.375,-0.0625,0.0
1589380585.750168,-0.18,-4.14,8.87,0.4744444444444445,0.2888888888888889,-0.6311111111111111,0.4375,0.125,0.0
1589380585.7625802,-0.13,-4.12,8.76,0.4744444444444445,0.2888888888888889,-0.6311111111111111,0.25,0.1875,0.0
1589380585.7742805,-0.16,-4.14,8.78,0.4744444444444445,0.2888888888888889,-0.6311111111111111,-0.0625,0.0,-0.0625
1589380585.7822115,-0.16,-4.13,8.84,0.4744444444444445,0.2888888888888889,-0.6311111111111111,-0.0625,0.0,0.0625
1589380585.7939947,-0.13,-4.14,8.86,0.48,0.29444444444444445,-0.6355555555555555,-0.1875,0.1875,0.1875
1589380585.800777,-0.15,-4.13,8.86,0.48,0.29444444444444445,-0.6355555555555555,0.0,0.125,-0.0625
1589380585.809896,-0.13,-4.15,8.74,0.48,0.29444444444444445,-0.6355555555555555,0.0625,0.125,-0.125
1589380585.819834,-0.15,-4.13,8.78,0.48,0.29444444444444445,-0.6355555555555555,-0.125,-0.0625,-0.0625
1589380585.8332682,-0.17,-4.14,8.83,0.48,0.29444444444444445,-0.6355555555555555,-0.0625,0.0,0.0
1589380585.8402035,-0.14,-4.12,8.86,0.4866666666666667,0.2888888888888889,-0.6522222222222223,0.3125,-0.0625,-0.0625
1589380585.8504398,-0.13,-4.12,8.87,0.4866666666666667,0.2888888888888889,-0.6522222222222223,0.1875,-0.0625,-0.0625
1589380585.8599405,-0.17,-4.13,8.78,0.4866666666666667,0.2888888888888889,-0.6522222222222223,0.25,0.0625,0.0
1589380585.8699088,-0.14,-4.13,8.79,0.4866666666666667,0.2888888888888889,-0.6522222222222223,-0.0625,0.1875,-0.1875
1589380585.888066,-0.15,-4.14,8.82,0.4866666666666667,0.2888888888888889,-0.6522222222222223,-0.3125,-0.125,0.0625
1589380585.8935986,-0.14,-4.15,8.86,0.48,0.2888888888888889,-0.6522222222222223,-0.125,-0.125,0.0625
1589380585.9002926,-0.14,-4.16,8.78,0.48,0.2888888888888889,-0.6522222222222223,0.0625,0.0,0.0625
1589380585.9098234,-0.15,-4.15,8.75,0.48,0.2888888888888889,-0.6522222222222223,0.125,0.125,-0.0625
1589380585.9224415,-0.16,-4.14,8.79,0.48,0.2888888888888889,-0.6522222222222223,0.125,0.125,0.0625
1589380585.9330034,-0.16,-4.15,8.79,0.48,0.2888888888888889,-0.6522222222222223,-0.0625,0.0,-0.0625
1589380585.9455698,-0.14,-4.15,8.85,0.48,0.29444444444444445,-0.6433333333333333,0.0,0.0625,0.0625
1589380585.951495,-0.15,-4.15,8.86,0.48,0.29444444444444445,-0.6433333333333333,0.0625,0.0,0.0625
1589380585.9654849,-0.15,-4.12,8.76,0.48,0.29444444444444445,-0.6433333333333333,0.1875,-0.0625,0.0625
1589380585.9715333,-0.17,-4.14,8.8,0.48,0.29444444444444445,-0.6433333333333333,0.0625,-0.125,-0.0625
1589380585.9831493,-0.15,-4.12,8.84,0.48,0.29444444444444445,-0.6433333333333333,-0.125,0.0,0.0625
1589380585.9910154,-0.17,-4.16,8.83,0.4744444444444445,0.2822222222222222,-0.6355555555555555,-0.125,-0.125,0.125
1589380586.0048056,-0.15,-4.13,8.85,0.4744444444444445,0.2822222222222222,-0.6355555555555555,0.0,0.1875,0.0
1589380586.0117247,-0.15,-4.13,8.77,0.4744444444444445,0.2822222222222222,-0.6355555555555555,0.25,0.0625,0.125
1589380586.022642,-0.16,-4.13,8.79,0.4744444444444445,0.2822222222222222,-0.6355555555555555,0.25,0.0625,0.0
1589380586.0338454,-0.15,-4.13,8.81,0.4744444444444445,0.2822222222222222,-0.6355555555555555,0.0625,0.125,0.125
1589380586.0442545,-0.15,-4.15,8.85,0.48,0.3022222222222222,-0.6222222222222222,0.0,0.0,0.125
1589380586.0508125,-0.15,-4.14,8.83,0.48,0.3022222222222222,-0.6222222222222222,-0.125,0.0,-0.0625
1589380586.0610654,-0.16,-4.13,8.74,0.48,0.3022222222222222,-0.6222222222222222,0.0625,-0.125,0.0
1589380586.0708385,-0.16,-4.11,8.77,0.48,0.3022222222222222,-0.6222222222222222,0.125,0.0,-0.0625
1589380586.0836818,-0.14,-4.15,8.82,0.48,0.3022222222222222,-0.6222222222222222,0.0625,0.125,0.0625
1589380586.090889,-0.15,-4.12,8.83,0.4933333333333334,0.29444444444444445,-0.6355555555555555,-0.0625,0.125,0.0
1589380586.102447,-0.13,-4.14,8.85,0.4933333333333334,0.29444444444444445,-0.6355555555555555,0.0625,0.0625,0.0625
1589380586.1110823,-0.15,-4.12,8.75,0.4933333333333334,0.29444444444444445,-0.6355555555555555,0.1875,0.125,-0.125
1589380586.1215465,-0.14,-4.14,8.81,0.4933333333333334,0.29444444444444445,-0.6355555555555555,0.1875,0.0625,0.0
1589380586.1352274,-0.14,-4.13,8.83,0.4933333333333334,0.29444444444444445,-0.6355555555555555,0.0,0.125,0.0625
1589380586.1415668,-0.15,-4.15,8.86,0.4866666666666667,0.29444444444444445,-0.6222222222222222,-0.125,0.1875,-0.0625
1589380586.1551688,-0.14,-4.14,8.78,0.4866666666666667,0.29444444444444445,-0.6222222222222222,-0.0625,-0.0625,-0.0625
1589380586.161366,-0.14,-4.14,8.72,0.4866666666666667,0.29444444444444445,-0.6222222222222222,0.0,-0.0625,0.0625
1589380586.176343,-0.15,-4.14,8.76,0.4866666666666667,0.29444444444444445,-0.6222222222222222,0.1875,0.0,0.0625
1589380586.1844153,-0.14,-4.15,8.81,0.4866666666666667,0.29444444444444445,-0.6222222222222222,0.125,-0.0625,0.0
1589380586.1956382,-0.15,-4.15,8.85,0.5011111111111111,0.2888888888888889,-0.6311111111111111,0.0,0.0,0.0625
1589380586.2020135,-0.15,-4.12,8.84,0.5011111111111111,0.2888888888888889,-0.6311111111111111,0.0,0.0,0.0625
1589380586.2150288,-0.15,-4.11,8.75,0.5011111111111111,0.2888888888888889,-0.6311111111111111,0.125,0.125,0.0625
1589380586.221402,-0.14,-4.13,8.85,0.5011111111111111,0.2888888888888889,-0.6311111111111111,0.0,0.0625,-0.125
1589380586.235243,-0.15,-4.15,8.82,0.5011111111111111,0.2888888888888889,-0.6311111111111111,-0.125,0.0,-0.125
1589380586.242368,-0.15,-4.14,8.86,0.5011111111111111,0.2888888888888889,-0.6222222222222222,-0.25,0.0625,0.0
1589380586.254044,-0.14,-4.13,8.85,0.5011111111111111,0.2888888888888889,-0.6222222222222222,0.0625,0.0625,0.125
1589380586.2624302,-0.14,-4.14,8.73,0.5011111111111111,0.2888888888888889,-0.6222222222222222,0.0625,0.0,0.0625
1589380586.2742915,-0.14,-4.11,8.78,0.5011111111111111,0.2888888888888889,-0.6222222222222222,0.1875,-0.0625,0.0
1589380586.2884116,-0.16,-4.12,8.81,0.5011111111111111,0.2888888888888889,-0.6222222222222222,0.125,0.0625,-0.125
1589380586.2945578,-0.15,-4.12,8.88,0.4866666666666667,0.29444444444444445,-0.6311111111111111,0.0625,0.1875,0.0
