time,acc_x,acc_y,acc_z,mag_x,mag_y,mag_z,gyr_x,gyr_y,gyr_z
1589380593.8411026,-0.27,-4.1,8.75,0.5277777777777778,0.20444444444444448,-0.7711111111111111,-0.125,-0.375,-0.0625
1589380593.8504364,-0.24,-4.12,8.78,0.5277777777777778,0.20444444444444448,-0.7711111111111111,0.1875,-0.5,0.0
1589380593.8565125,-0.22,-4.11,8.84,0.5277777777777778,0.20444444444444448,-0.7711111111111111,0.125,-0.375,-0.0625
1589380593.8690338,-0.24,-4.11,8.94,0.5277777777777778,0.20444444444444448,-0.7711111111111111,-0.1875,-0.1875,-0.0625
1589380593.8762178,-0.26,-4.1,8.95,0.5277777777777778,0.2088888888888889,-0.7855555555555556,-0.0625,0.25,-0.125
1589380593.8870418,-0.27,-4.14,8.87,0.5277777777777778,0.2088888888888889,-0.7855555555555556,-0.125,0.375,0.125
1589380593.896826,-0.28,-4.11,8.76,0.5277777777777778,0.2088888888888889,-0.7855555555555556,-0.125,0.375,-0.0625
1589380593.907171,-0.26,-4.1,8.78,0.5277777777777778,0.2088888888888889,-0.7855555555555556,-0.125,0.375,-0.0625
1589380593.9187064,-0.22,-4.09,8.71,0.5277777777777778,0.2088888888888889,-0.7855555555555556,-0.1875,0.3125,0.0625
1589380593.9264386,-0.16,-4.01,8.71,0.5488888888888889,0.20444444444444448,-0.7644444444444445,-0.1875,0.0625,-0.5
1589380593.9364195,-0.16,-3.97,8.75,0.5488888888888889,0.20444444444444448,-0.7644444444444445,0.1875,0.125,-1.9375
1589380593.9471939,-0.24,-4.08,8.66,0.5488888888888889,0.20444444444444448,-0.7644444444444445,0.0625,-0.125,-3.25
1589380593.957864,-0.35,-4.19,8.86,0.5488888888888889,0.20444444444444448,-0.7644444444444445,0.1875,-0.3125,-2.5
1589380593.96892,-0.3,-4.17,8.91,0.5488888888888889,0.20444444444444448,-0.7644444444444445,0.0,-0.25,-1.125
1589380593.9823773,-0.24,-4.15,8.96,0.5222222222222223,0.2311111111111111,-0.7777777777777778,0.0625,-0.0625,-0.1875
1589380593.9889045,-0.21,-4.12,8.87,0.5222222222222223,0.2311111111111111,-0.7777777777777778,-0.125,0.0625,0.0
1589380594.0020466,-0.24,-4.13,8.82,0.5222222222222223,0.2311111111111111,-0.7777777777777778,0.0,0.5625,0.0625
1589380594.0085914,-0.25,-4.11,8.77,0.5222222222222223,0.2311111111111111,-0.7777777777777778,0.0,1.25,0.25
1589380594.0225728,-0.25,-4.1,8.76,0.5222222222222223,0.2311111111111111,-0.7777777777777778,-0.0625,0.9375,0.125
1589380594.029384,-0.29,-4.1,8.74,0.5422222222222223,0.21666666666666667,-0.7711111111111111,0.0,1.25,0.25
1589380594.041333,-0.29,-4.11,8.72,0.5422222222222223,0.21666666666666667,-0.7711111111111111,0.0625,0.6875,0.125
1589380594.0474973,-0.29,-4.11,8.64,0.5422222222222223,0.21666666666666667,-0.7711111111111111,0.0625,0.3125,0.0625
1589380594.0604205,-0.26,-4.12,8.72,0.5422222222222223,0.21666666666666667,-0.7711111111111111,0.0,-0.125,0.125
1589380594.0699105,-0.26,-4.13,8.88,0.5422222222222223,0.21666666666666667,-0.7711111111111111,0.0,-0.5625,0.125
1589380594.0790546,-0.24,-4.13,8.89,0.5277777777777778,0.20444444444444448,-0.7644444444444445,-0.1875,-0.6875,0.4375
1589380594.087299,-0.25,-4.14,8.91,0.5277777777777778,0.20444444444444448,-0.7644444444444445,-0.25,-0.5625,0.5
1589380594.0978248,-0.33,-4.2,8.74,0.5277777777777778,0.20444444444444448,-0.7644444444444445,-0.1875,-0.3125,0.875
1589380594.107168,-0.33,-4.19,8.84,0.5277777777777778,0.20444444444444448,-0.7644444444444445,-0.25,-0.0625,1.9375
1589380594.1191952,-0.35,-4.21,8.82,0.5277777777777778,0.20444444444444448,-0.7644444444444445,-0.375,-0.25,2.9375
1589380594.1265392,-0.23,-4.05,8.8,0.5488888888888889,0.2088888888888889,-0.7644444444444445,-0.125,0.25,3.3125
1589380594.1370006,-0.17,-4.01,8.71,0.5488888888888889,0.2088888888888889,-0.7644444444444445,-0.1875,-0.0625,1.8125
1589380594.1476665,-0.25,-4.1,8.65,0.5488888888888889,0.2088888888888889,-0.7644444444444445,0.0625,-0.375,0.5
1589380594.1603296,-0.26,-4.11,8.75,0.5488888888888889,0.2088888888888889,-0.7644444444444445,0.125,-0.5625,0.1875
1589380594.173661,-0.28,-4.12,8.88,0.5488888888888889,0.2088888888888889,-0.7644444444444445,0.0625,-0.625,0.0625
1589380594.180104,-0.26,-4.13,8.87,0.5422222222222223,0.2088888888888889,-0.7711111111111111,0.0625,-0.75,0.0
1589380594.1923714,-0.25,-4.1,8.86,0.5422222222222223,0.2088888888888889,-0.7711111111111111,0.0,-0.625,0.0625
1589380594.1983962,-0.25,-4.12,8.79,0.5422222222222223,0.2088888888888889,-0.7711111111111111,-0.0625,-0.1875,-0.125
1589380594.2123086,-0.24,-4.11,8.85,0.5422222222222223,0.2088888888888889,-0.7711111111111111,0.0,0.25,0.0
1589380594.2209105,-0.26,-4.13,8.86,0.5422222222222223,0.2088888888888889,-0.7711111111111111,-0.1875,0.5,0.0625
1589380594.2318327,-0.27,-4.1,8.84,0.5422222222222223,0.20444444444444448,-0.7777777777777778,-0.125,0.5,0.1875
1589380594.238607,-0.29,-4.12,8.83,0.5422222222222223,0.20444444444444448,-0.7777777777777778,-0.1875,0.375,-0.25
1589380594.2486124,-0.29,-4.11,8.64,0.5422222222222223,0.20444444444444448,-0.7777777777777778,-0.125,0.125,0.0
1589380594.258326,-0.26,-4.13,8.69,0.5422222222222223,0.20444444444444448,-0.7777777777777778,0.0625,-0.375,-0.125
1589380594.2717032,-0.26,-4.09,8.74,0.5422222222222223,0.20444444444444448,-0.7777777777777778,0.125,-0.75,-0.125
1589380594.2781794,-0.24,-4.13,8.88,0.5422222222222223,0.21666666666666667,-0.7711111111111111,0.125,-1.1875,-0.0625
1589380594.2905724,-0.24,-4.12,8.83,0.5422222222222223,0.21666666666666667,-0.7711111111111111,-0.0625,-1.125,-0.125
1589380594.2988074,-0.24,-4.1,8.77,0.5422222222222223,0.21666666666666667,-0.7711111111111111,0.0,-0.875,-0.125
1589380594.310865,-0.24,-4.11,8.84,0.5422222222222223,0.21666666666666667,-0.7711111111111111,-0.0625,-0.375,-0.25
1589380594.3260381,-0.23,-4.11,8.94,0.5422222222222223,0.21666666666666667,-0.7711111111111111,0.0625,0.125,-0.4375
1589380594.332292,-0.26,-4.13,8.91,0.5277777777777778,0.2088888888888889,-0.7711111111111111,0.0,0.4375,-0.5625
1589380594.3438926,-0.25,-4.13,8.83,0.5277777777777778,0.2088888888888889,-0.7711111111111111,-0.1875,0.5,-0.4375
1589380594.3505685,-0.28,-4.13,8.64,0.5277777777777778,0.2088888888888889,-0.7711111111111111,-0.0625,0.5,-0.1875
1589380594.3637187,-0.27,-4.11,8.68,0.5277777777777778,0.2088888888888889,-0.7711111111111111,0.0,0.1875,0.0625
1589380594.3711634,-0.29,-4.11,8.77,0.5277777777777778,0.2088888888888889,-0.7711111111111111,0.0625,0.0,0.0
1589380594.383376,-0.29,-4.09,8.78,0.5222222222222223,0.21666666666666667,-0.7644444444444445,0.25,-0.1875,0.0
1589380594.39085,-0.26,-4.12,8.78,0.5222222222222223,0.21666666666666667,-0.7644444444444445,0.1875,-0.0625,-0.0625
1589380594.4025948,-0.24,-4.1,8.74,0.5222222222222223,0.21666666666666667,-0.7644444444444445,0.1875,-0.125,0.1875
1589380594.4093876,-0.25,-4.11,8.82,0.5222222222222223,0.21666666666666667,-0.7644444444444445,0.25,-0.1875,-0.0625
1589380594.4228256,-0.23,-4.09,8.9,0.5222222222222223,0.21666666666666667,-0.7644444444444445,0.3125,0.125,0.0
1589380594.4290016,-0.25,-4.11,8.95,0.5544444444444444,0.21666666666666667,-0.7711111111111111,0.1875,0.25,-0.0625
1589380594.4417276,-0.26,-4.12,8.9,0.5544444444444444,0.21666666666666667,-0.7711111111111111,0.0,0.5625,0.0
1589380594.4482856,-0.26,-4.12,8.75,0.5544444444444444,0.21666666666666667,-0.7711111111111111,-0.1875,0.375,0.0625
1589380594.4601548,-0.27,-4.11,8.72,0.5544444444444444,0.21666666666666667,-0.7711111111111111,-0.25,0.375,0.0
1589380594.4714732,-0.24,-4.11,8.75,0.5544444444444444,0.21666666666666667,-0.7711111111111111,-0.125,0.25,0.0
1589380594.4823153,-0.25,-4.12,8.77,0.5422222222222223,0.2088888888888889,-0.7855555555555556,0.0,0.0,0.0
1589380594.4888506,-0.26,-4.13,8.8,0.5422222222222223,0.2088888888888889,-0.7855555555555556,0.0625,-0.0625,0.0625
1589380594.4992385,-0.26,-4.13,8.71,0.5422222222222223,0.2088888888888889,-0.7855555555555556,0.125,0.0,-0.125
1589380594.5085485,-0.27,-4.08,8.76,0.5422222222222223,0.2088888888888889,-0.7855555555555556,0.25,0.0625,0.0
1589380594.5217214,-0.25,-4.13,8.89,0.5422222222222223,0.2088888888888889,-0.7855555555555556,0.1875,-0.0625,0.0
1589380594.5286088,-0.25,-4.12,8.93,0.5277777777777778,0.19666666666666666,-0.7566666666666667,0.0,0.0625,0.0625
1589380594.540631,-0.26,-4.12,8.9,0.5277777777777778,0.19666666666666666,-0.7566666666666667,-0.0625,0.0625,-0.0625
1589380594.5488713,-0.24,-4.12,8.76,0.5277777777777778,0.19666666666666666,-0.7566666666666667,-0.125,0.1875,0.0625
1589380594.5602384,-0.24,-4.12,8.73,0.5277777777777778,0.19666666666666666,-0.7566666666666667,-0.1875,0.1875,-0.0625
1589380594.5748484,-0.27,-4.13,8.73,0.5277777777777778,0.19666666666666666,-0.7566666666666667,-0.125,0.3125,0.125
1589380594.5815387,-0.26,-4.1,8.79,0.5488888888888889,0.19666666666666666,-0.7644444444444445,-0.0625,0.0,0.0625
1589380594.5934238,-0.25,-4.12,8.79,0.5488888888888889,0.19666666666666666,-0.7644444444444445,0.125,-0.0625,-0.0625
1589380594.5999048,-0.25,-4.13,8.74,0.5488888888888889,0.19666666666666666,-0.7644444444444445,0.0625,-0.25,0.125
1589380594.609096,-0.26,-4.11,8.78,0.5488888888888889,0.19666666666666666,-0.7644444444444445,0.0,-0.4375,0.0
1589380594.6218445,-0.24,-4.1,8.8,0.5488888888888889,0.19666666666666666,-0.7644444444444445,0.125,-0.625,-0.125
1589380594.6324582,-0.23,-4.1,8.89,0.5422222222222223,0.2088888888888889,-0.7777777777777778,-0.0625,-0.625,-0.0625
1589380594.6401436,-0.19,-4.09,8.85,0.5422222222222223,0.2088888888888889,-0.7777777777777778,-0.125,-0.5,0.0
1589380594.6503055,-0.21,-4.08,8.8,0.5422222222222223,0.2088888888888889,-0.7777777777777778,0.0625,-0.25,-0.25
1589380594.6592188,-0.21,-4.07,8.78,0.5422222222222223,0.2088888888888889,-0.7777777777777778,-0.125,0.125,-0.75
1589380594.6711972,-0.22,-4.08,8.78,0.5422222222222223,0.2088888888888889,-0.7777777777777778,-0.3125,0.5625,-1.4375
1589380594.678615,-0.24,-4.05,8.81,0.5422222222222223,0.20444444444444448,-0.7644444444444445,-0.1875,0.5625,-2.0625
1589380594.689943,-0.26,-4.09,8.81,0.5422222222222223,0.20444444444444448,-0.7644444444444445,0.0,0.5,-2.625
1589380594.6999085,-0.23,-4.04,8.72,0.5422222222222223,0.20444444444444448,-0.7644444444444445,-0.0625,0.25,-3.0625
1589380594.7094893,-0.22,-4.1,8.81,0.5422222222222223,0.20444444444444448,-0.7644444444444445,-0.0625,0.125,-4.0
1589380594.7251005,-0.24,-4.1,8.84,0.5422222222222223,0.20444444444444448,-0.7644444444444445,0.0625,-0.125,-4.8125
1589380594.7310438,-0.23,-4.15,8.83,0.5422222222222223,0.22333333333333333,-0.7922222222222223,0.125,0.0625,-5.4375
1589380594.7431078,-0.27,-4.16,8.89,0.5422222222222223,0.22333333333333333,-0.7922222222222223,0.3125,0.125,-5.4375
1589380594.7498162,-0.27,-4.17,8.76,0.5422222222222223,0.22333333333333333,-0.7922222222222223,0.3125,0.4375,-4.5625
1589380594.763364,-0.29,-4.24,8.84,0.5422222222222223,0.22333333333333333,-0.7922222222222223,0.125,0.625,-3.5625
1589380594.7723212,-0.3,-4.22,8.78,0.5422222222222223,0.22333333333333333,-0.7922222222222223,0.1875,0.4375,-2.25
1589380594.7832415,-0.22,-4.11,8.85,0.5422222222222223,0.2088888888888889,-0.7644444444444445,-0.0625,0.6875,-0.875
1589380594.7907386,-0.22,-4.12,8.79,0.5422222222222223,0.2088888888888889,-0.7644444444444445,0.1875,0.9375,-0.0625
1589380594.800654,-0.23,-4.12,8.73,0.5422222222222223,0.2088888888888889,-0.7644444444444445,0.1875,0.6875,0.125
1589380594.8103838,-0.24,-4.12,8.76,0.5422222222222223,0.2088888888888889,-0.7644444444444445,0.1875,0.375,0.1875
1589380594.823045,-0.24,-4.13,8.8,0.5422222222222223,0.2088888888888889,-0.7644444444444445,0.125,0.1875,0.0625
1589380594.8306732,-0.24,-4.12,8.79,0.5277777777777778,0.22333333333333333,-0.75,0.125,0.0625,-0.0625
1589380594.8428602,-0.23,-4.13,8.84,0.5277777777777778,0.22333333333333333,-0.75,0.1875,0.125,0.0625
1589380594.8513525,-0.24,-4.11,8.75,0.5277777777777778,0.22333333333333333,-0.75,0.125,0.125,-0.125
1589380594.8628294,-0.22,-4.11,8.82,0.5277777777777778,0.22333333333333333,-0.75,0.0625,0.25,0.125
1589380594.8767636,-0.24,-4.12,8.87,0.5277777777777778,0.22333333333333333,-0.75,0.0,0.375,0.125
1589380594.8829384,-0.25,-4.11,8.81,0.5422222222222223,0.22333333333333333,-0.7644444444444445,-0.3125,0.375,0.0625
1589380594.895065,-0.26,-4.13,8.77,0.5422222222222223,0.22333333333333333,-0.7644444444444445,0.0,0.125,0.0
1589380594.900994,-0.22,-4.12,8.71,0.5422222222222223,0.22333333333333333,-0.7644444444444445,-0.375,-0.125,-0.125
1589380594.9147465,-0.24,-4.11,8.79,0.5422222222222223,0.22333333333333333,-0.7644444444444445,-0.3125,-0.375,0.0625
1589380594.9234586,-0.23,-4.1,8.77,0.5422222222222223,0.22333333333333333,-0.7644444444444445,-0.1875,-0.3125,0.0
1589380594.9342484,-0.23,-4.13,8.85,0.5488888888888889,0.22333333333333333,-0.7644444444444445,-0.3125,-0.1875,-0.0625
1589380594.9407055,-0.24,-4.11,8.81,0.5488888888888889,0.22333333333333333,-0.7644444444444445,-0.3125,-0.3125,-0.125
1589380594.954377,-0.25,-4.11,8.74,0.5488888888888889,0.22333333333333333,-0.7644444444444445,-0.375,-0.375,0.125
1589380594.961329,-0.24,-4.13,8.83,0.5488888888888889,0.22333333333333333,-0.7644444444444445,-0.5,-0.5,0.0
1589380594.972853,-0.24,-4.11,8.89,0.5488888888888889,0.22333333333333333,-0.7644444444444445,-0.625,-0.375,-0.0625
1589380594.9806259,-0.24,-4.14,8.84,0.5422222222222223,0.2088888888888889,-0.7644444444444445,-0.5625,-0.125,-0.0625
1589380594.9909053,-0.24,-4.12,8.84,0.5422222222222223,0.2088888888888889,-0.7644444444444445,-0.6875,-0.25,-0.0625
1589380595.0013757,-0.24,-4.1,8.68,0.5422222222222223,0.2088888888888889,-0.7644444444444445,-0.4375,-0.125,0.0625
1589380595.0109518,-0.24,-4.13,8.71,0.5422222222222223,0.2088888888888889,-0.7644444444444445,-0.4375,0.0625,0.0625
1589380595.0284386,-0.3,-4.12,8.8,0.5422222222222223,0.2088888888888889,-0.7644444444444445,-0.875,-0.4375,0.125
1589380595.034013,-0.34,-3.94,8.81,0.5277777777777778,0.2088888888888889,-0.7566666666666667,-1.5625,-1.25,1.125
1589380595.0415199,-0.9,-2.28,9.18,0.5277777777777778,0.2088888888888889,-0.7566666666666667,-2.0,-2.625,3.6875
1589380595.0514402,-1.1,-1.57,8.86,0.5277777777777778,0.2088888888888889,-0.7566666666666667,-1.25,-2.0625,9.625
1589380595.0616186,-0.86,-1.99,8.94,0.5277777777777778,0.2088888888888889,-0.7566666666666667,0.3125,-1.8125,27.4375
1589380595.0730536,-0.5,-2.21,9.03,0.5277777777777778,0.2088888888888889,-0.7566666666666667,-1.4375,-4.75,42.75
1589380595.0853605,-0.39,-2.36,9.09,0.5488888888888889,0.2311111111111111,-0.7711111111111111,-1.25,-5.1875,52.875
1589380595.0921948,-0.31,-2.4,8.98,0.5488888888888889,0.2311111111111111,-0.7711111111111111,-1.625,-5.5625,58.125
1589380595.105442,-0.26,-2.47,8.87,0.5488888888888889,0.2311111111111111,-0.7711111111111111,-1.625,-5.875,60.0625
1589380595.111514,-0.26,-2.56,8.91,0.5488888888888889,0.2311111111111111,-0.7711111111111111,-1.5625,-5.625,60.1875
1589380595.1258352,-0.34,-2.61,8.94,0.5488888888888889,0.2311111111111111,-0.7711111111111111,-1.5,-5.5625,59.5625
1589380595.1319606,-0.47,-2.63,9.02,0.5344444444444445,0.19666666666666666,-0.7711111111111111,-1.375,-5.4375,59.5
1589380595.1440823,-0.62,-2.57,8.9,0.5344444444444445,0.19666666666666666,-0.7711111111111111,-1.5,-5.8125,62.0
1589380595.1515095,-0.65,-2.6,8.84,0.5344444444444445,0.19666666666666666,-0.7711111111111111,-1.4375,-6.0625,67.375
1589380595.1612608,-0.51,-2.63,8.87,0.5344444444444445,0.19666666666666666,-0.7711111111111111,-1.875,-6.875,73.625
1589380595.174033,-0.46,-2.65,9.0,0.5344444444444445,0.19666666666666666,-0.7711111111111111,-2.0625,-7.8125,78.4375
1589380595.182059,-0.36,-2.73,9.01,0.56,0.19,-0.7711111111111111,-2.0,-7.8125,80.5625
1589380595.1916072,-0.4,-2.7,9.0,0.56,0.19,-0.7711111111111111,-2.4375,-8.0625,80.4375
1589380595.2032835,-0.46,-2.69,8.83,0.56,0.19,-0.7711111111111111,-2.1875,-7.8125,79.6875
1589380595.2123744,-0.56,-2.79,8.92,0.56,0.19,-0.7711111111111111,-2.0625,-7.4375,79.5625
1589380595.2242875,-0.54,-2.74,8.92,0.56,0.19,-0.7711111111111111,-1.9375,-7.3125,80.3125
1589380595.2370787,-0.5,-2.75,8.98,0.5488888888888889,0.1511111111111111,-0.8066666666666666,-1.8125,-7.625,81.5
1589380595.244135,-0.52,-2.79,9.0,0.5488888888888889,0.1511111111111111,-0.8066666666666666,-2.0625,-7.6875,82.1875
1589380595.256366,-0.6,-2.78,8.88,0.5488888888888889,0.1511111111111111,-0.8066666666666666,-2.125,-7.75,82.125
1589380595.2632241,-0.6,-2.76,8.89,0.5488888888888889,0.1511111111111111,-0.8066666666666666,-2.0625,-7.8125,82.375
1589380595.2785733,-0.71,-2.8,8.93,0.5488888888888889,0.1511111111111111,-0.8066666666666666,-2.0625,-8.0,82.375
1589380595.2848575,-0.68,-2.83,9.01,0.5422222222222223,0.13111111111111112,-0.8355555555555556,-2.1875,-8.0,83.0
1589380595.2935324,-0.65,-2.83,8.92,0.5422222222222223,0.13111111111111112,-0.8355555555555556,-2.1875,-7.875,83.875
1589380595.3028588,-0.62,-2.86,8.87,0.5422222222222223,0.13111111111111112,-0.8355555555555556,-2.125,-8.0625,84.1875
1589380595.3127148,-0.64,-2.78,8.8,0.5422222222222223,0.13111111111111112,-0.8355555555555556,-2.25,-7.9375,83.375
1589380595.325498,-0.72,-2.78,8.99,0.5422222222222223,0.13111111111111112,-0.8355555555555556,-2.0625,-7.5625,81.5625
1589380595.3360162,-0.72,-2.78,8.9,0.4888888888888889,0.07777777777777778,-0.8566666666666667,-1.9375,-7.375,80.0
1589380595.3427722,-0.69,-2.77,8.99,0.4888888888888889,0.07777777777777778,-0.8566666666666667,-2.125,-7.125,78.75
1589380595.3542824,-0.7,-2.81,8.9,0.4888888888888889,0.07777777777777778,-0.8566666666666667,-1.9375,-7.3125,77.0
1589380595.3635645,-0.76,-2.8,8.92,0.4888888888888889,0.07777777777777778,-0.8566666666666667,-2.0625,-7.125,74.5
1589380595.3749747,-0.8,-2.84,8.92,0.4888888888888889,0.07777777777777778,-0.8566666666666667,-2.0,-6.875,71.9375
1589380595.3833938,-0.74,-2.82,8.94,0.4222222222222222,0.022222222222222227,-0.8655555555555555,-1.9375,-6.6875,69.0625
1589380595.395284,-0.81,-2.83,8.89,0.4222222222222222,0.022222222222222227,-0.8655555555555555,-1.8125,-6.1875,65.8125
1589380595.4076085,-0.82,-2.83,8.82,0.4222222222222222,0.022222222222222227,-0.8655555555555555,-1.6875,-5.8125,62.4375
1589380595.4135592,-0.83,-2.82,8.91,0.4222222222222222,0.022222222222222227,-0.8655555555555555,-1.6875,-5.3125,58.8125
1589380595.4296837,-0.82,-2.76,8.88,0.4222222222222222,0.022222222222222227,-0.8655555555555555,-1.625,-5.0,54.9375
1589380595.4358153,-0.93,-2.81,8.99,0.3511111111111111,-0.06,-0.8355555555555556,-1.5,-4.375,51.125
1589380595.4471238,-0.93,-2.79,8.92,0.3511111111111111,-0.06,-0.8355555555555556,-1.4375,-3.9375,47.5625
1589380595.45332,-0.94,-2.81,8.88,0.3511111111111111,-0.06,-0.8355555555555556,-1.5,-3.8125,45.0
1589380595.464053,-1.02,-2.86,8.85,0.3511111111111111,-0.06,-0.8355555555555556,-1.5,-3.875,42.25
1589380595.475356,-1.01,-2.86,8.91,0.3511111111111111,-0.06,-0.8355555555555556,-1.75,-3.4375,39.875
1589380595.4869773,-1.01,-2.84,8.89,0.36,-0.14333333333333334,-0.7855555555555556,-1.75,-3.3125,37.6875
1589380595.4933074,-1.03,-2.83,8.92,0.36,-0.14333333333333334,-0.7855555555555556,-1.875,-3.0,35.875
1589380595.5040526,-1.02,-2.85,8.83,0.36,-0.14333333333333334,-0.7855555555555556,-1.6875,-2.625,33.5625
1589380595.5142233,-0.98,-2.81,8.88,0.36,-0.14333333333333334,-0.7855555555555556,-1.875,-2.1875,31.8125
1589380595.5257847,-1.08,-2.89,8.96,0.36,-0.14333333333333334,-0.7855555555555556,-1.875,-2.0625,29.5
1589380595.5330956,-1.08,-2.9,8.97,0.4044444444444445,-0.17888888888888888,-0.7066666666666667,-1.875,-1.375,24.6875
1589380595.543507,-1.11,-2.82,8.91,0.4044444444444445,-0.17888888888888888,-0.7066666666666667,-1.875,-1.375,24.6875
1589380595.5568945,-1.08,-2.84,8.79,0.4044444444444445,-0.17888888888888888,-0.7066666666666667,-1.6875,-1.0625,22.3125
1589380595.5642376,-1.05,-2.84,8.87,0.4044444444444445,-0.17888888888888888,-0.7066666666666667,-1.6875,-0.25,16.0
1589380595.5800714,-1.24,-2.9,8.85,0.4044444444444445,-0.17888888888888888,-0.7066666666666667,-1.375,0.125,13.0
1589380595.5859938,-1.23,-2.91,8.96,0.4544444444444444,-0.17888888888888888,-0.6933333333333334,-1.1875,0.5,11.3125
1589380595.598536,-1.23,-2.91,8.9,0.4544444444444444,-0.17888888888888888,-0.6933333333333334,-1.3125,0.375,9.9375
1589380595.604486,-1.25,-2.94,8.85,0.4544444444444444,-0.17888888888888888,-0.6933333333333334,-1.0,0.1875,8.375
1589380595.6147034,-1.17,-2.84,8.89,0.4544444444444444,-0.17888888888888888,-0.6933333333333334,-0.8125,0.625,6.25
1589380595.6266153,-1.15,-2.92,8.93,0.4544444444444444,-0.17888888888888888,-0.6933333333333334,-0.625,0.5625,3.5625
1589380595.6346865,-1.24,-3.17,8.91,0.5366666666666666,-0.16666666666666666,-0.6577777777777778,-0.5625,0.9375,-0.375
1589380595.6448467,-1.14,-2.8,8.77,0.5366666666666666,-0.16666666666666666,-0.6577777777777778,-0.3125,0.875,-4.875
1589380595.6575086,-1.2,-2.86,8.85,0.5366666666666666,-0.16666666666666666,-0.6577777777777778,-0.25,1.375,-7.875
1589380595.6641927,-1.19,-2.82,8.82,0.5366666666666666,-0.16666666666666666,-0.6577777777777778,-0.1875,1.375,-10.25
1589380595.676293,-1.15,-2.81,8.93,0.5366666666666666,-0.16666666666666666,-0.6577777777777778,0.0625,1.75,-12.5
1589380595.6842134,-1.21,-2.87,8.89,0.5688888888888889,-0.14666666666666667,-0.6577777777777778,0.1875,1.8125,-14.9375
1589380595.6964972,-1.23,-2.92,9.01,0.5688888888888889,-0.14666666666666667,-0.6577777777777778,0.0625,1.6875,-15.875
1589380595.7088814,-0.96,-2.85,8.84,0.5688888888888889,-0.14666666666666667,-0.6577777777777778,0.6875,1.8125,-18.375
1589380595.7149794,-1.52,-2.94,8.88,0.5688888888888889,-0.14666666666666667,-0.6577777777777778,0.8125,2.75,-21.5625
1589380595.7304206,-1.18,-2.91,8.93,0.5688888888888889,-0.14666666666666667,-0.6577777777777778,0.0,1.25,-19.375
1589380595.735576,-1.21,-2.87,8.99,0.6466666666666666,-0.11666666666666667,-0.7144444444444444,0.8125,2.0625,-20.0
1589380595.7454967,-1.45,-2.85,8.92,0.6466666666666666,-0.11666666666666667,-0.7144444444444444,0.8125,2.25,-19.375
1589380595.754481,-1.21,-2.93,8.87,0.6466666666666666,-0.11666666666666667,-0.7144444444444444,0.375,0.9375,-17.625
1589380595.7672932,-1.35,-2.96,8.84,0.6466666666666666,-0.11666666666666667,-0.7144444444444444,1.25,2.0625,-17.4375
1589380595.7768154,-1.28,-2.93,8.88,0.6466666666666666,-0.11666666666666667,-0.7144444444444444,1.0,1.5,-15.5
1589380595.7885876,-1.16,-3.0,8.99,0.64,-0.1988888888888889,-0.75,0.875,1.3125,-14.9375
1589380595.7942026,-1.21,-2.96,8.94,0.64,-0.1988888888888889,-0.75,0.9375,1.4375,-15.0
1589380595.808432,-1.17,-2.98,8.83,0.64,-0.1988888888888889,-0.75,0.9375,1.3125,-14.8125
1589380595.81512,-1.13,-2.95,8.84,0.64,-0.1988888888888889,-0.75,0.8125,1.3125,-15.0
1589380595.827199,-1.1,-3.02,8.91,0.64,-0.1988888888888889,-0.75,0.9375,1.25,-15.0
1589380595.834317,-1.07,-3.05,8.88,0.5611111111111111,-0.17,-0.6788888888888889,0.8125,1.375,-15.3125
1589380595.8473914,-1.12,-3.13,8.99,0.5611111111111111,-0.17,-0.6788888888888889,1.0,1.6875,-15.875
1589380595.8556776,-1.1,-3.13,8.78,0.5611111111111111,-0.17,-0.6788888888888889,1.0,1.625,-16.3125
1589380595.8658993,-1.08,-3.15,8.9,0.5611111111111111,-0.17,-0.6788888888888889,0.9375,1.75,-17.0625
1589380595.8773208,-1.1,-3.16,8.83,0.5611111111111111,-0.17,-0.6788888888888889,0.875,2.125,-17.9375
1589380595.888674,-1.08,-3.2,8.97,0.5466666666666666,-0.10444444444444444,-0.65,1.0,1.75,-19.0
1589380595.894715,-1.09,-3.26,8.84,0.5466666666666666,-0.10444444444444444,-0.65,0.6875,2.0,-20.5
1589380595.905192,-1.19,-3.38,8.85,0.5466666666666666,-0.10444444444444444,-0.65,0.875,2.3125,-22.4375
1589380595.9186242,-1.15,-3.38,8.81,0.5466666666666666,-0.10444444444444444,-0.65,1.0,2.1875,-22.8125
1589380595.9266903,-1.08,-3.37,8.85,0.5466666666666666,-0.10444444444444444,-0.65,1.25,2.5,-23.125
1589380595.9342134,-1.15,-3.6,8.87,0.5611111111111111,-0.06,-0.65,1.0625,2.5625,-23.6875
1589380595.9449544,-1.13,-3.66,8.86,0.5611111111111111,-0.06,-0.65,1.125,2.625,-23.1875
1589380595.9605918,-1.16,-3.74,8.78,0.5611111111111111,-0.06,-0.65,1.4375,2.6875,-22.4375
1589380595.9669714,-1.19,-3.82,8.85,0.5611111111111111,-0.06,-0.65,1.1875,2.4375,-20.625
1589380595.9768085,-1.21,-3.82,8.87,0.5611111111111111,-0.06,-0.65,1.1875,1.625,-18.1875
1589380595.9842842,-1.24,-3.85,8.87,0.5544444444444444,-0.03888888888888889,-0.6644444444444444,1.25,1.625,-14.875
1589380595.9904892,-1.24,-3.85,8.87,0.5544444444444444,-0.03888888888888889,-0.6644444444444444,1.25,1.625,-14.875
1589380596.0047455,-1.43,-4.21,8.72,0.5544444444444444,-0.03888888888888889,-0.6644444444444444,1.3125,0.625,-5.3125
1589380596.010717,-1.43,-4.21,8.72,0.5544444444444444,-0.03888888888888889,-0.6644444444444444,1.3125,0.625,-5.3125
1589380596.0272214,-1.03,-3.93,8.86,0.5544444444444444,-0.03888888888888889,-0.6644444444444444,0.8125,-0.875,5.25
1589380596.038021,-1.04,-3.85,8.81,0.5666666666666667,-0.02666666666666667,-0.6433333333333333,0.875,-0.6875,5.3125
1589380596.045078,-0.98,-3.64,8.86,0.5666666666666667,-0.02666666666666667,-0.6433333333333333,0.875,-0.75,3.625
1589380596.0571694,-1.02,-3.59,8.74,0.5666666666666667,-0.02666666666666667,-0.6433333333333333,0.9375,-0.25,0.875
1589380596.0660093,-0.89,-3.39,8.85,0.5666666666666667,-0.02666666666666667,-0.6433333333333333,0.625,-0.5625,-2.875
1589380596.0772727,-0.83,-3.18,8.93,0.5666666666666667,-0.02666666666666667,-0.6433333333333333,0.9375,0.375,-8.625
1589380596.0848448,-0.84,-3.19,8.92,0.5866666666666667,-0.02666666666666667,-0.6577777777777778,0.75,0.9375,-15.3125
1589380596.0952368,-0.82,-3.1,8.88,0.5866666666666667,-0.02666666666666667,-0.6577777777777778,1.0625,1.8125,-22.125
1589380596.1052759,-0.85,-3.03,8.9,0.5866666666666667,-0.02666666666666667,-0.6577777777777778,1.375,2.375,-29.4375
1589380596.1170886,-0.87,-2.92,8.9,0.5866666666666667,-0.02666666666666667,-0.6577777777777778,1.375,3.1875,-37.0
1589380596.1319337,-0.92,-2.98,8.98,0.5866666666666667,-0.02666666666666667,-0.6577777777777778,1.6875,4.0625,-44.625
1589380596.1382375,-0.89,-2.99,8.91,0.5866666666666667,-0.006666666666666667,-0.6711111111111111,2.0,4.75,-51.8125
1589380596.1469445,-1.11,-3.14,8.89,0.5866666666666667,-0.006666666666666667,-0.6711111111111111,1.875,5.625,-58.375
1589380596.1565607,-1.09,-3.09,8.78,0.5866666666666667,-0.006666666666666667,-0.6711111111111111,2.25,6.0625,-63.5
1589380596.170708,-1.08,-3.07,8.94,0.5866666666666667,-0.006666666666666667,-0.6711111111111111,2.0,6.25,-67.0625
1589380596.178647,-1.09,-3.09,8.88,0.5866666666666667,-0.006666666666666667,-0.6711111111111111,2.1875,6.625,-69.75
1589380596.189881,-0.45,-2.84,9.31,0.64,-0.01888888888888889,-0.6933333333333334,2.25,6.8125,-69.5625
1589380596.1969142,-1.22,-3.07,8.66,0.64,-0.01888888888888889,-0.6933333333333334,1.5625,5.4375,-73.875
1589380596.2068355,-1.24,-3.19,8.69,0.64,-0.01888888888888889,-0.6933333333333334,3.4375,9.125,-72.3125
1589380596.2175975,-0.73,-3.25,9.05,0.64,-0.01888888888888889,-0.6933333333333334,1.3125,5.4375,-71.375
1589380596.2278528,-1.19,-3.32,8.82,0.64,-0.01888888888888889,-0.6933333333333334,2.5625,8.0,-71.8125
1589380596.2353258,-1.07,-3.44,8.94,0.9955555555555556,-0.03555555555555556,-0.7066666666666667,1.875,6.6875,-67.75
1589380596.247188,-1.15,-3.49,8.92,0.9955555555555556,-0.03555555555555556,-0.7066666666666667,1.625,6.125,-63.5
1589380596.256613,-1.22,-3.84,8.67,0.9955555555555556,-0.03555555555555556,-0.7066666666666667,2.0625,6.0625,-55.8125
1589380596.2688005,-1.03,-3.87,8.74,0.9955555555555556,-0.03555555555555556,-0.7066666666666667,1.4375,4.875,-45.375
1589380596.2825394,-0.82,-3.7,8.94,0.9955555555555556,-0.03555555555555556,-0.7066666666666667,1.4375,4.0625,-37.3125
1589380596.2877483,-0.65,-3.47,8.84,1.7511111111111108,-0.3144444444444445,-1.1588888888888889,0.875,3.4375,-35.3125
1589380596.3008056,-0.63,-3.11,8.89,1.7511111111111108,-0.3144444444444445,-1.1588888888888889,0.5,3.0,-36.8125
1589380596.3067908,-0.59,-2.94,8.81,1.7511111111111108,-0.3144444444444445,-1.1588888888888889,1.25,3.8125,-39.375
1589380596.320213,-0.4,-2.74,8.91,1.7511111111111108,-0.3144444444444445,-1.1588888888888889,0.875,3.9375,-43.9375
1589380596.328624,-0.45,-2.62,9.0,1.7511111111111108,-0.3144444444444445,-1.1588888888888889,1.125,4.5625,-51.0
1589380596.3405592,-0.59,-2.81,9.01,0.8155555555555556,-0.1288888888888889,-0.7422222222222222,2.0625,6.0625,-58.6875
1589380596.3463724,-0.64,-3.04,8.93,0.8155555555555556,-0.1288888888888889,-0.7422222222222222,2.0625,6.8125,-63.5
1589380596.3578913,-0.67,-3.17,8.78,0.8155555555555556,-0.1288888888888889,-0.7422222222222222,2.375,6.6875,-64.9375
1589380596.3668554,-0.78,-3.06,8.89,0.8155555555555556,-0.1288888888888889,-0.7422222222222222,2.0625,6.5,-65.0625
1589380596.3813071,-0.92,-2.92,8.96,0.8155555555555556,-0.1288888888888889,-0.7422222222222222,1.875,5.9375,-63.125
1589380596.387197,-0.95,-2.84,8.98,0.5966666666666667,0.06666666666666668,-0.7066666666666667,1.625,5.25,-58.0
1589380596.3984704,-0.95,-2.86,8.97,0.5966666666666667,0.06666666666666668,-0.7066666666666667,1.375,4.6875,-51.25
1589380596.4066982,-1.09,-3.12,8.87,0.5966666666666667,0.06666666666666668,-0.7066666666666667,1.4375,4.4375,-42.125
1589380596.4167786,-1.28,-3.21,8.8,0.5966666666666667,0.06666666666666668,-0.7066666666666667,1.3125,3.625,-30.25
1589380596.4283454,-1.26,-3.15,8.91,0.5966666666666667,0.06666666666666668,-0.7066666666666667,0.8125,1.9375,-15.0
1589380596.4366224,-1.0,-2.97,8.93,0.5666666666666667,0.12444444444444445,-0.7022222222222222,0.1875,-0.0625,1.375
1589380596.4421575,-1.0,-2.97,8.93,0.5666666666666667,0.12444444444444445,-0.7022222222222222,0.1875,-0.0625,1.375
1589380596.4548779,-0.87,-3.02,8.97,0.5666666666666667,0.12444444444444445,-0.7022222222222222,-0.0625,-1.3125,14.75
1589380596.461192,-0.68,-3.02,8.83,0.5666666666666667,0.12444444444444445,-0.7022222222222222,0.0,-1.9375,24.3125
1589380596.4724948,-0.62,-2.95,8.89,0.5666666666666667,0.12444444444444445,-0.7022222222222222,-0.4375,-2.5,29.375
1589380596.4794214,-0.5,-2.79,8.98,0.5666666666666667,0.12444444444444445,-0.7022222222222222,-0.375,-2.6875,32.125
1589380596.4914682,-0.5,-2.82,9.0,0.5688888888888889,0.12777777777777774,-0.6855555555555556,-0.4375,-3.0625,33.625
1589380596.4981437,-0.44,-2.87,9.0,0.5688888888888889,0.12777777777777774,-0.6855555555555556,-0.4375,-2.9375,33.6875
1589380596.5115216,-0.49,-3.03,8.82,0.5688888888888889,0.12777777777777774,-0.6855555555555556,-0.3125,-2.8125,32.5625
1589380596.517949,-0.59,-3.15,8.92,0.5688888888888889,0.12777777777777774,-0.6855555555555556,-0.1875,-2.5,31.5
1589380596.5294528,-0.53,-3.01,8.93,0.5688888888888889,0.12777777777777774,-0.6855555555555556,-0.1875,-2.5625,32.0625
1589380596.536771,-0.65,-3.26,8.97,0.5311111111111111,0.11666666666666667,-0.65,0.0,-3.25,33.1875
1589380596.5506392,-15.48,-23.44,-7.67,0.5311111111111111,0.11666666666666667,-0.65,-0.1875,-3.125,34.8125
1589380596.5574453,1.86,17.91,0.83,0.5311111111111111,0.11666666666666667,-0.65,-49.4375,35.625,-119.875
1589380596.5674784,1.21,-0.72,1.21,0.5311111111111111,0.11666666666666667,-0.65,-96.4375,53.0625,-371.0625
1589380596.5798194,-2.74,-4.84,20.54,0.5311111111111111,0.11666666666666667,-0.65,-76.6875,23.0,-408.3125
1589380596.5914526,-2.01,-2.16,0.69,0.5188888888888888,0.17777777777777778,-0.6355555555555555,-13.25,51.375,-372.0625
1589380596.5973778,-3.33,-2.58,14.77,0.5188888888888888,0.17777777777777778,-0.6355555555555555,119.1875,80.875,-317.875
1589380596.6097784,-0.41,1.88,1.28,0.5188888888888888,0.17777777777777778,-0.6355555555555555,160.625,17.3125,-277.0
1589380596.618524,-0.99,-1.04,8.66,0.5188888888888888,0.17777777777777778,-0.6355555555555555,3.0,3.5625,-257.5
1589380596.6298013,-1.22,0.16,9.13,0.5188888888888888,0.17777777777777778,-0.6355555555555555,-7.875,8.3125,-235.5625
1589380596.6376605,-1.29,0.34,9.57,0.4666666666666667,0.28444444444444444,-0.6266666666666667,16.125,32.0625,-200.3125
1589380596.6497777,-1.22,0.28,8.17,0.4666666666666667,0.28444444444444444,-0.6266666666666667,5.875,19.3125,-165.1875
1589380596.663194,-0.54,0.48,8.63,0.4666666666666667,0.28444444444444444,-0.6266666666666667,2.5625,10.125,-126.4375
1589380596.669245,0.52,0.08,9.06,0.4666666666666667,0.28444444444444444,-0.6266666666666667,1.0625,7.25,-87.125
1589380596.6838572,1.32,-0.49,9.82,0.4666666666666667,0.28444444444444444,-0.6266666666666667,0.125,3.3125,-62.5625
1589380596.6894872,1.31,-1.42,9.25,0.4211111111111111,0.3466666666666667,-0.6266666666666667,0.75,4.375,-50.8125
1589380596.7015345,1.09,-1.92,9.18,0.4211111111111111,0.3466666666666667,-0.6266666666666667,1.5625,4.3125,-39.75
1589380596.7081685,0.97,-2.12,8.75,0.4211111111111111,0.3466666666666667,-0.6266666666666667,0.75,3.0625,-28.4375
1589380596.7189586,0.93,-2.37,9.1,0.4211111111111111,0.3466666666666667,-0.6266666666666667,0.4375,1.9375,-19.0
1589380596.7298734,0.55,-2.61,9.31,0.4211111111111111,0.3466666666666667,-0.6266666666666667,-0.3125,1.1875,-11.5
1589380596.7377539,0.5,-2.69,8.97,0.4222222222222222,0.3588888888888889,-0.6222222222222222,0.5,0.875,-2.75
1589380596.74451,0.5,-2.69,8.97,0.4222222222222222,0.3588888888888889,-0.6222222222222222,0.5,0.875,-2.75
1589380596.750334,0.55,-2.74,8.78,0.4222222222222222,0.3588888888888889,-0.6222222222222222,0.0,-0.6875,6.625
1589380596.7587302,0.51,-2.85,8.72,0.4222222222222222,0.3588888888888889,-0.6222222222222222,-0.1875,-0.9375,14.1875
1589380596.7692351,0.55,-2.94,8.87,0.4222222222222222,0.3588888888888889,-0.6222222222222222,-0.5,-1.3125,19.9375
1589380596.7803905,0.59,-2.98,8.93,0.4222222222222222,0.3588888888888889,-0.6222222222222222,-0.875,-2.625,25.5625
1589380596.7874615,0.61,-2.99,8.78,0.4211111111111111,0.3888888888888889,-0.6266666666666667,-0.8125,-2.4375,29.4375
1589380596.7977026,0.61,-2.99,8.78,0.4211111111111111,0.3888888888888889,-0.6266666666666667,-0.8125,-2.4375,29.4375
1589380596.803994,0.59,-3.07,8.72,0.4211111111111111,0.3888888888888889,-0.6266666666666667,-0.375,-2.625,31.5
1589380596.815371,0.54,-3.1,8.94,0.4211111111111111,0.3888888888888889,-0.6266666666666667,-0.5,-2.875,32.875
1589380596.822012,0.47,-3.11,9.02,0.4211111111111111,0.3888888888888889,-0.6266666666666667,-0.375,-2.6875,34.5625
1589380596.8311362,0.7,-6.23,9.49,0.4211111111111111,0.3888888888888889,-0.6266666666666667,-1.0,-3.5,37.875
1589380596.8381064,-1.39,-20.12,5.82,0.3944444444444444,0.3744444444444445,-0.6355555555555555,0.9375,-4.625,42.375
1589380596.8441017,-1.39,-20.12,5.82,0.3944444444444444,0.3744444444444445,-0.6355555555555555,0.9375,-4.625,42.375
1589380596.8548484,1.61,-1.85,8.24,0.3944444444444444,0.3744444444444445,-0.6355555555555555,16.9375,6.375,95.5
1589380596.8609414,1.64,-3.24,9.77,0.3944444444444444,0.3744444444444445,-0.6355555555555555,-3.375,-21.75,142.4375
1589380596.8711767,1.03,-4.28,8.57,0.3944444444444444,0.3744444444444445,-0.6355555555555555,-3.5,-11.875,127.875
1589380596.8810909,0.85,-4.68,8.88,0.3944444444444444,0.3744444444444445,-0.6355555555555555,-2.0625,-10.25,127.5
1589380596.891798,0.43,-4.42,8.64,0.43,0.35,-0.6433333333333333,-3.625,-11.25,119.375
1589380596.8988662,0.39,-4.06,9.01,0.43,0.35,-0.6433333333333333,-2.5625,-10.25,114.9375
1589380596.9113765,0.32,-4.14,8.64,0.43,0.35,-0.6433333333333333,-3.0625,-11.0,111.5625
1589380596.9196866,0.25,-4.32,8.92,0.43,0.35,-0.6433333333333333,-2.3125,-9.8125,108.625
1589380596.930749,0.26,-4.4,8.57,0.43,0.35,-0.6433333333333333,-2.5,-9.1875,105.375
1589380596.9397154,0.12,-4.26,8.69,0.4633333333333333,0.3388888888888889,-0.6266666666666667,-2.5625,-9.75,102.0625
1589380596.9502552,0.06,-4.29,8.79,0.4633333333333333,0.3388888888888889,-0.6266666666666667,-3.125,-10.125,98.6875
1589380596.960067,0.16,-4.53,8.81,0.4633333333333333,0.3388888888888889,-0.6266666666666667,-1.9375,-9.4375,96.5625
1589380596.969124,0.07,-4.63,8.66,0.4633333333333333,0.3388888888888889,-0.6266666666666667,-2.0,-8.75,94.5625
1589380596.9838061,-0.73,-2.03,9.9,0.4633333333333333,0.3388888888888889,-0.6266666666666667,-0.1875,-12.5,79.6875
1589380596.9905846,-0.38,-3.62,8.59,0.4711111111111111,0.3,-0.6077777777777778,1.875,0.8125,34.875
1589380597.0044734,-0.29,-4.0,8.72,0.4711111111111111,0.3,-0.6077777777777778,0.75,-0.4375,12.125
1589380597.0107627,-0.11,-4.12,8.87,0.4711111111111111,0.3,-0.6077777777777778,-0.875,-2.375,0.3125
1589380597.0198448,-0.2,-4.14,8.75,0.4711111111111111,0.3,-0.6077777777777778,0.3125,-0.3125,-0.1875
1589380597.0321758,-0.1,-4.16,8.86,0.4711111111111111,0.3,-0.6077777777777778,-0.25,-0.1875,-0.0625
1589380597.0430374,-0.15,-4.17,8.84,0.5022222222222222,0.3,-0.6266666666666667,-0.0625,-0.0625,-0.125
1589380597.0492992,-0.12,-4.19,8.82,0.5022222222222222,0.3,-0.6266666666666667,-0.25,-0.1875,-0.0625
1589380597.0615005,-0.14,-4.12,8.66,0.5022222222222222,0.3,-0.6266666666666667,0.0,-0.5,-0.125
1589380597.0703325,-0.13,-4.15,8.83,0.5022222222222222,0.3,-0.6266666666666667,0.0625,-0.3125,0.0
1589380597.0833757,-0.14,-4.08,8.87,0.5022222222222222,0.3,-0.6266666666666667,0.4375,-0.0625,-0.125
1589380597.090211,-0.11,-4.11,8.89,0.4888888888888889,0.2733333333333333,-0.6355555555555555,-0.0625,-0.0625,-0.125
1589380597.1005714,-0.15,-4.17,8.81,0.4888888888888889,0.2733333333333333,-0.6355555555555555,0.1875,0.0625,0.0
1589380597.111515,-0.12,-4.16,8.73,0.4888888888888889,0.2733333333333333,-0.6355555555555555,-0.1875,0.1875,-0.125
1589380597.1206956,-0.12,-4.14,8.78,0.4888888888888889,0.2733333333333333,-0.6355555555555555,-0.0625,0.0,-0.0625
1589380597.1337235,-0.12,-4.14,8.88,0.4888888888888889,0.2733333333333333,-0.6355555555555555,-0.0625,0.125,0.125
1589380597.1423786,-0.14,-4.14,8.8,0.4888888888888889,0.2855555555555556,-0.6433333333333333,0.1875,0.1875,-0.125
1589380597.1564054,-0.13,-4.17,8.87,0.4888888888888889,0.2855555555555556,-0.6433333333333333,0.0,-0.0625,-0.0625
1589380597.1631026,-0.14,-4.16,8.73,0.4888888888888889,0.2855555555555556,-0.6433333333333333,0.375,0.0,0.0
1589380597.1707158,-0.12,-4.14,8.8,0.4888888888888889,0.2855555555555556,-0.6433333333333333,0.0,-0.1875,0.1875
1589380597.1830509,-0.15,-4.12,8.82,0.4888888888888889,0.2855555555555556,-0.6433333333333333,0.375,-0.0625,-0.0625
1589380597.1917481,-0.1,-4.13,8.88,0.5022222222222222,0.2855555555555556,-0.6433333333333333,0.0,-0.0625,0.0
1589380597.2013993,-0.13,-4.13,8.8,0.5022222222222222,0.2855555555555556,-0.6433333333333333,-0.1875,-0.0625,0.0625
1589380597.2114425,-0.13,-4.14,8.76,0.5022222222222222,0.2855555555555556,-0.6433333333333333,-0.375,0.0,0.0625
1589380597.2218785,-0.13,-4.15,8.76,0.5022222222222222,0.2855555555555556,-0.6433333333333333,0.0625,0.1875,0.0625
1589380597.2351296,-0.13,-4.13,8.86,0.5022222222222222,0.2855555555555556,-0.6433333333333333,0.0625,0.0,-0.125
1589380597.241138,-0.13,-4.13,8.86,0.4833333333333333,0.2855555555555556,-0.6222222222222222,0.0625,0.125,-0.0625
1589380597.2521641,-0.12,-4.14,8.86,0.4833333333333333,0.2855555555555556,-0.6222222222222222,0.0,0.0,0.0
1589380597.261177,-0.13,-4.14,8.74,0.4833333333333333,0.2855555555555556,-0.6222222222222222,-0.0625,-0.3125,0.0
1589380597.2738204,-0.13,-4.11,8.86,0.4833333333333333,0.2855555555555556,-0.6222222222222222,0.125,0.125,0.0
1589380597.2866485,-0.13,-4.13,8.8,0.4833333333333333,0.2855555555555556,-0.6222222222222222,0.1875,-0.0625,0.0625
1589380597.2940414,-0.12,-4.13,8.86,0.4888888888888889,0.2788888888888889,-0.6577777777777778,0.0625,-0.25,0.0
1589380597.305626,-0.12,-4.14,8.77,0.4888888888888889,0.2788888888888889,-0.6577777777777778,-0.0625,0.0,0.0
1589380597.311616,-0.12,-4.16,8.73,0.4888888888888889,0.2788888888888889,-0.6577777777777778,-0.375,-0.0625,-0.0625
1589380597.3218381,-0.12,-4.16,8.75,0.4888888888888889,0.2788888888888889,-0.6577777777777778,-0.0625,0.0625,0.0
1589380597.3341591,-0.12,-4.14,8.82,0.4888888888888889,0.2788888888888889,-0.6577777777777778,0.1875,0.0625,-0.0625
1589380597.3437862,-0.13,-4.13,8.88,0.5022222222222222,0.2788888888888889,-0.6577777777777778,0.125,0.25,-0.125
1589380597.3514574,-0.13,-4.12,8.86,0.5022222222222222,0.2788888888888889,-0.6577777777777778,0.125,0.125,0.125
1589380597.3626347,-0.14,-4.14,8.76,0.5022222222222222,0.2788888888888889,-0.6577777777777778,0.0625,0.0625,0.0
1589380597.3714867,-0.14,-4.14,8.81,0.5022222222222222,0.2788888888888889,-0.6577777777777778,-0.125,-0.125,-0.0625
1589380597.3841882,-0.12,-4.14,8.82,0.5022222222222222,0.2788888888888889,-0.6577777777777778,0.1875,-0.125,0.0625
1589380597.3922591,-0.13,-4.13,8.85,0.4955555555555556,0.2733333333333333,-0.6433333333333333,0.0,0.125,-0.0625
1589380597.4026446,-0.14,-4.15,8.85,0.4955555555555556,0.2733333333333333,-0.6433333333333333,-0.125,0.0625,-0.125
1589380597.4125745,-0.13,-4.15,8.74,0.4955555555555556,0.2733333333333333,-0.6433333333333333,-0.125,0.0625,0.0
1589380597.4227304,-0.13,-4.15,8.79,0.4955555555555556,0.2733333333333333,-0.6433333333333333,0.0,0.125,0.0625
1589380597.4351847,-0.1,-4.15,8.82,0.4955555555555556,0.2733333333333333,-0.6433333333333333,-0.0625,0.1875,0.0625
1589380597.4427454,-0.13,-4.14,8.89,0.4955555555555556,0.26666666666666666,-0.6266666666666667,0.125,0.125,0.0
1589380597.4522355,-0.14,-4.14,8.88,0.4955555555555556,0.26666666666666666,-0.6266666666666667,0.0,0.0625,-0.0625
1589380597.4639142,-0.14,-4.14,8.73,0.4955555555555556,0.26666666666666666,-0.6266666666666667,-0.0625,-0.0625,0.0
1589380597.4723911,-0.12,-4.14,8.79,0.4955555555555556,0.26666666666666666,-0.6266666666666667,0.0,-0.0625,0.125
1589380597.4846113,-0.13,-4.15,8.82,0.4955555555555556,0.26666666666666666,-0.6266666666666667,0.125,0.0,0.0
1589380597.4925835,-0.11,-4.14,8.86,0.4888888888888889,0.2788888888888889,-0.6577777777777778,0.125,0.0,0.125
1589380597.5019526,-0.13,-4.16,8.86,0.4888888888888889,0.2788888888888889,-0.6577777777777778,0.0625,0.0625,0.0625
1589380597.5164454,-0.11,-4.13,8.74,0.4888888888888889,0.2788888888888889,-0.6577777777777778,0.0625,0.0625,0.125
1589380597.522488,-0.14,-4.14,8.78,0.4888888888888889,0.2788888888888889,-0.6577777777777778,0.0625,0.0,0.125
1589380597.535883,-0.13,-4.15,8.81,0.4888888888888889,0.2788888888888889,-0.6577777777777778,0.0625,-0.125,0.0625
1589380597.5427241,-0.12,-4.12,8.85,0.4755555555555556,0.2733333333333333,-0.6355555555555555,0.0625,-0.25,0.0625
1589380597.5530713,-0.13,-4.14,8.81,0.4755555555555556,0.2733333333333333,-0.6355555555555555,-0.0625,0.0,0.0
1589380597.5625224,-0.13,-4.16,8.74,0.4755555555555556,0.2733333333333333,-0.6355555555555555,-0.1875,-0.0625,0.0
1589380597.5734837,-0.12,-4.15,8.78,0.4755555555555556,0.2733333333333333,-0.6355555555555555,0.0625,0.0625,0.0625
1589380597.5851266,-0.13,-4.15,8.81,0.4755555555555556,0.2733333333333333,-0.6355555555555555,0.125,-0.125,0.1875
1589380597.5931811,-0.13,-4.14,8.85,0.4833333333333333,0.2733333333333333,-0.6433333333333333,0.1875,-0.1875,0.0625
1589380597.6024716,-0.14,-4.12,8.86,0.4833333333333333,0.2733333333333333,-0.6433333333333333,0.1875,0.0625,0.0
1589380597.612386,-0.13,-4.13,8.79,0.4833333333333333,0.2733333333333333,-0.6433333333333333,0.0,0.125,-0.0625
1589380597.6232712,-0.13,-4.13,8.78,0.4833333333333333,0.2733333333333333,-0.6433333333333333,0.0625,-0.0625,0.0
1589380597.6353564,-0.13,-4.13,8.85,0.4833333333333333,0.2733333333333333,-0.6433333333333333,0.0,0.125,0.0
1589380597.6439025,-0.13,-4.13,8.85,0.5022222222222222,0.2733333333333333,-0.6355555555555555,-0.0625,0.0625,0.0625
1589380597.6530626,-0.14,-4.11,8.89,0.5022222222222222,0.2733333333333333,-0.6355555555555555,0.125,0.0625,0.0
1589380597.6683722,-0.13,-4.17,8.74,0.5022222222222222,0.2733333333333333,-0.6355555555555555,-0.0625,0.0,0.0
1589380597.6744778,-0.13,-4.14,8.79,0.5022222222222222,0.2733333333333333,-0.6355555555555555,0.0,0.125,0.0625
1589380597.6897402,-0.13,-4.14,8.8,0.5022222222222222,0.2733333333333333,-0.6355555555555555,-0.0625,0.0,-0.0625
1589380597.6963153,-0.16,-4.15,8.86,0.4955555555555556,0.2788888888888889,-0.6222222222222222,0.25,0.125,0.0625
1589380597.7037053,-0.12,-4.13,8.83,0.4955555555555556,0.2788888888888889,-0.6222222222222222,0.25,-0.125,0.0625
1589380597.7148335,-0.13,-4.14,8.76,0.4955555555555556,0.2788888888888889,-0.6222222222222222,0.1875,0.125,0.0625
1589380597.7271307,-0.15,-4.13,8.79,0.4955555555555556,0.2788888888888889,-0.6222222222222222,-0.0625,0.0,0.0625
1589380597.7359898,-0.13,-4.14,8.86,0.4955555555555556,0.2788888888888889,-0.6222222222222222,0.0,-0.0625,0.0625
1589380597.7472,-0.12,-4.14,8.85,0.51,0.2788888888888889,-0.6355555555555555,-0.0625,0.0625,0.0
1589380597.753226,-0.14,-4.15,8.86,0.51,0.2788888888888889,-0.6355555555555555,0.125,0.125,0.0
1589380597.7635179,-0.13,-4.14,8.75,0.51,0.2788888888888889,-0.6355555555555555,0.0625,0.0,0.0
1589380597.7741265,-0.13,-4.14,8.8,0.51,0.2788888888888889,-0.6355555555555555,0.125,-0.0625,0.0625
1589380597.7862275,-0.13,-4.13,8.84,0.51,0.2788888888888889,-0.6355555555555555,0.0,-0.0625,-0.0625
1589380597.7936196,-0.13,-4.14,8.85,0.5222222222222223,0.2733333333333333,-0.6433333333333333,0.25,0.125,-0.0625
1589380597.8039818,-0.12,-4.15,8.8,0.5222222222222223,0.2733333333333333,-0.6433333333333333,0.125,-0.125,0.0
1589380597.813303,-0.12,-4.13,8.71,0.5222222222222223,0.2733333333333333,-0.6433333333333333,-0.125,-0.0625,0.0625
1589380597.8233352,-0.13,-4.16,8.79,0.5222222222222223,0.2733333333333333,-0.6433333333333333,-0.1875,0.0,0.0
1589380597.8404026,-0.12,-4.14,8.84,0.5222222222222223,0.2733333333333333,-0.6433333333333333,-0.125,-0.0625,-0.0625
1589380597.8462265,-0.14,-4.14,8.87,0.4955555555555556,0.2788888888888889,-0.65,-0.0625,0.125,-0.0625
1589380597.8549194,-0.14,-4.13,8.84,0.4955555555555556,0.2788888888888889,-0.65,-0.125,0.125,0.0
1589380597.8650827,-0.13,-4.15,8.75,0.4955555555555556,0.2788888888888889,-0.65,0.0625,0.0,0.125
1589380597.8785348,-0.11,-4.15,8.8,0.4955555555555556,0.2788888888888889,-0.65,-0.125,0.0625,0.0
1589380597.8866384,-0.13,-4.16,8.84,0.4955555555555556,0.2788888888888889,-0.65,-0.1875,-0.0625,0.0
1589380597.897409,-0.13,-4.12,8.87,0.4833333333333333,0.2933333333333333,-0.6355555555555555,-0.0625,-0.1875,0.0
1589380597.9047663,-0.13,-4.1,8.88,0.4833333333333333,0.2933333333333333,-0.6355555555555555,-0.125,-0.25,0.0625
1589380597.9182856,-0.13,-4.13,8.76,0.4833333333333333,0.2933333333333333,-0.6355555555555555,-0.0625,0.0,-0.125
1589380597.9249015,-0.12,-4.13,8.8,0.4833333333333333,0.2933333333333333,-0.6355555555555555,0.0,0.0625,-0.125
1589380597.9367788,-0.13,-4.14,8.83,0.4833333333333333,0.2933333333333333,-0.6355555555555555,-0.125,0.0625,0.125
1589380597.9446278,-0.13,-4.13,8.87,0.5022222222222222,0.2788888888888889,-0.6355555555555555,-0.0625,-0.0625,0.0
1589380597.954757,-0.12,-4.15,8.82,0.5022222222222222,0.2788888888888889,-0.6355555555555555,0.0625,0.125,0.0625
1589380597.9648619,-0.13,-4.13,8.74,0.5022222222222222,0.2788888888888889,-0.6355555555555555,0.0625,0.0625,-0.125
1589380597.9763546,-0.13,-4.14,8.78,0.5022222222222222,0.2788888888888889,-0.6355555555555555,0.0625,0.0,0.0625
1589380597.9921045,-0.12,-4.11,8.83,0.5022222222222222,0.2788888888888889,-0.6355555555555555,-0.0625,0.0,0.0625
1589380597.9979427,-0.13,-4.14,8.84,0.4833333333333333,0.2788888888888889,-0.6355555555555555,-0.0625,0.0625,-0.0625
1589380598.0047073,-0.13,-4.14,8.83,0.4833333333333333,0.2788888888888889,-0.6355555555555555,0.0,0.0,-0.0625
1589380598.0184615,-0.13,-4.13,8.76,0.4833333333333333,0.2788888888888889,-0.6355555555555555,0.125,0.0,0.0
1589380598.0297954,-0.13,-4.12,8.8,0.4833333333333333,0.2788888888888889,-0.6355555555555555,-0.0625,0.0625,0.0
1589380598.037333,-0.13,-4.14,8.83,0.4833333333333333,0.2788888888888889,-0.6355555555555555,0.0,0.0,0.0
1589380598.0496821,-0.13,-4.13,8.86,0.5022222222222222,0.2788888888888889,-0.6266666666666667,-0.125,0.0625,-0.0625
1589380598.0559616,-0.12,-4.14,8.83,0.5022222222222222,0.2788888888888889,-0.6266666666666667,0.125,-0.0625,0.0625
1589380598.0692544,-0.13,-4.13,8.73,0.5022222222222222,0.2788888888888889,-0.6266666666666667,0.125,0.1875,0.0
1589380598.0762196,-0.13,-4.14,8.78,0.5022222222222222,0.2788888888888889,-0.6266666666666667,0.0,0.0625,0.125
1589380598.0882547,-0.14,-4.12,8.83,0.5022222222222222,0.2788888888888889,-0.6266666666666667,-0.1875,0.0,0.0
