time,acc_x,acc_y,acc_z,mag_x,mag_y,mag_z,gyr_x,gyr_y,gyr_z
1589380627.013441,-0.14,-4.1,8.79,0.52,0.1988888888888889,-0.7888888888888889,0.0,0.0625,0.0
1589380627.0245502,-0.13,-4.12,8.83,0.52,0.1988888888888889,-0.7888888888888889,0.125,0.125,-0.0625
1589380627.030558,-0.16,-4.09,8.89,0.5066666666666667,0.19111111111111112,-0.7677777777777778,0.0,0.0625,0.0
1589380627.0380213,-0.13,-4.11,8.86,0.5066666666666667,0.19111111111111112,-0.7677777777777778,0.0625,0.125,0.25
1589380627.0496993,-0.14,-4.12,8.73,0.5066666666666667,0.19111111111111112,-0.7677777777777778,0.1875,0.3125,0.125
1589380627.0637314,-0.14,-4.11,8.75,0.5066666666666667,0.19111111111111112,-0.7677777777777778,0.0625,0.25,0.0625
1589380627.0709689,-0.15,-4.13,8.83,0.5066666666666667,0.19111111111111112,-0.7677777777777778,0.0,0.125,-0.125
1589380627.082506,-0.16,-4.12,8.84,0.5133333333333333,0.19111111111111112,-0.7822222222222223,0.0,0.125,0.125
1589380627.0888712,-0.16,-4.12,8.86,0.5133333333333333,0.19111111111111112,-0.7822222222222223,-0.0625,0.0625,0.0
1589380627.1027064,-0.15,-4.11,8.78,0.5133333333333333,0.19111111111111112,-0.7822222222222223,0.0,0.0,-0.0625
1589380627.1090176,-0.14,-4.12,8.78,0.5133333333333333,0.19111111111111112,-0.7822222222222223,0.0625,0.0,0.0625
1589380627.1204646,-0.14,-4.12,8.81,0.5133333333333333,0.19111111111111112,-0.7822222222222223,-0.0625,-0.0625,-0.0625
1589380627.1284275,-0.14,-4.11,8.86,0.5277777777777778,0.18444444444444444,-0.7677777777777778,-0.0625,0.125,0.1875
1589380627.1385384,-0.14,-4.13,8.82,0.5277777777777778,0.18444444444444444,-0.7677777777777778,-0.0625,0.0,0.0
1589380627.148627,-0.13,-4.12,8.75,0.5277777777777778,0.18444444444444444,-0.7677777777777778,0.0,0.1875,0.0
1589380627.158457,-0.14,-4.13,8.76,0.5277777777777778,0.18444444444444444,-0.7677777777777778,0.0,0.25,0.0
1589380627.1736176,-0.14,-4.1,8.81,0.5277777777777778,0.18444444444444444,-0.7677777777777778,0.125,0.1875,0.0
1589380627.1820285,-0.14,-4.12,8.87,0.5133333333333333,0.19111111111111112,-0.7822222222222223,0.1875,0.125,0.0
1589380627.1896904,-0.15,-4.12,8.86,0.5133333333333333,0.19111111111111112,-0.7822222222222223,0.0625,0.0,0.0
1589380627.201336,-0.14,-4.11,8.79,0.5133333333333333,0.19111111111111112,-0.7822222222222223,0.0,-0.0625,0.0
1589380627.2088096,-0.15,-4.13,8.77,0.5133333333333333,0.19111111111111112,-0.7822222222222223,0.125,-0.0625,0.125
1589380627.221517,-0.14,-4.11,8.78,0.5133333333333333,0.19111111111111112,-0.7822222222222223,0.1875,-0.0625,-0.0625
1589380627.2336712,-0.14,-4.11,8.82,0.5066666666666667,0.19111111111111112,-0.7822222222222223,0.1875,0.125,0.125
1589380627.2397885,-0.16,-4.11,8.78,0.5066666666666667,0.19111111111111112,-0.7822222222222223,0.125,0.3125,0.0
1589380627.2534235,-0.18,-4.1,8.75,0.5066666666666667,0.19111111111111112,-0.7822222222222223,0.125,0.25,0.125
1589380627.2596874,-0.15,-4.13,8.82,0.5066666666666667,0.19111111111111112,-0.7822222222222223,0.125,0.125,0.0625
1589380627.2719955,-0.15,-4.12,8.82,0.5066666666666667,0.19111111111111112,-0.7822222222222223,0.0,0.0,0.0
1589380627.279049,-0.13,-4.12,8.88,0.5066666666666667,0.18444444444444444,-0.76,0.0,-0.0625,-0.0625
1589380627.288938,-0.13,-4.12,8.82,0.5066666666666667,0.18444444444444444,-0.76,-0.0625,-0.0625,0.0625
1589380627.299242,-0.13,-4.13,8.75,0.5066666666666667,0.18444444444444444,-0.76,0.0,0.0,0.0
1589380627.3090632,-0.16,-4.11,8.77,0.5066666666666667,0.18444444444444444,-0.76,-0.1875,-0.0625,0.0
1589380627.3210766,-0.14,-4.13,8.79,0.5066666666666667,0.18444444444444444,-0.76,0.0,-0.0625,0.0625
1589380627.3312135,-0.15,-4.1,8.8,0.5133333333333333,0.19111111111111112,-0.7822222222222223,-0.125,0.0,-0.0625
1589380627.3397465,-0.14,-4.11,8.85,0.5133333333333333,0.19111111111111112,-0.7822222222222223,0.1875,0.25,0.0625
1589380627.3516278,-0.13,-4.11,8.78,0.5133333333333333,0.19111111111111112,-0.7822222222222223,0.125,0.1875,0.125
1589380627.360118,-0.12,-4.13,8.84,0.5133333333333333,0.19111111111111112,-0.7822222222222223,0.0,0.375,0.125
1589380627.37176,-0.13,-4.12,8.83,0.5133333333333333,0.19111111111111112,-0.7822222222222223,0.0,0.3125,0.125
1589380627.3813093,-0.14,-4.1,8.82,0.52,0.17888888888888888,-0.7888888888888889,0.0,0.0625,-0.0625
1589380627.3898735,-0.15,-4.12,8.8,0.52,0.17888888888888888,-0.7888888888888889,0.0625,0.0,0.1875
1589380627.4029484,-0.17,-4.11,8.73,0.52,0.17888888888888888,-0.7888888888888889,0.0625,0.125,-0.125
1589380627.4098635,-0.17,-4.12,8.76,0.52,0.17888888888888888,-0.7888888888888889,-0.0625,0.0,0.0
1589380627.4260721,-0.14,-4.13,8.81,0.52,0.17888888888888888,-0.7888888888888889,0.0625,0.125,0.0
1589380627.431995,-0.14,-4.12,8.84,0.5011111111111111,0.19111111111111112,-0.7822222222222223,0.0625,0.125,0.0
1589380627.440346,-0.12,-4.12,8.86,0.5011111111111111,0.19111111111111112,-0.7822222222222223,0.0625,0.1875,0.0625
1589380627.4498146,-0.13,-4.13,8.77,0.5011111111111111,0.19111111111111112,-0.7822222222222223,0.125,0.3125,0.0
1589380627.4629974,-0.13,-4.09,8.83,0.5011111111111111,0.19111111111111112,-0.7822222222222223,0.125,0.0,0.1875
1589380627.4726095,-0.16,-4.12,8.83,0.5011111111111111,0.19111111111111112,-0.7822222222222223,0.0625,0.0,0.0
1589380627.4838257,-0.15,-4.09,8.81,0.5133333333333333,0.18444444444444444,-0.7822222222222223,0.0625,0.0625,0.125
1589380627.4906695,-0.17,-4.11,8.75,0.5133333333333333,0.18444444444444444,-0.7822222222222223,-0.0625,0.0625,0.125
1589380627.502462,-0.14,-4.12,8.7,0.5133333333333333,0.18444444444444444,-0.7822222222222223,-0.0625,-0.125,0.125
1589380627.5102124,-0.15,-4.1,8.78,0.5133333333333333,0.18444444444444444,-0.7822222222222223,0.0,0.0625,0.0
1589380627.5227213,-0.17,-4.13,8.81,0.5133333333333333,0.18444444444444444,-0.7822222222222223,-0.375,-0.0625,-0.0625
1589380627.5329757,-0.14,-4.11,8.87,0.5133333333333333,0.18444444444444444,-0.7822222222222223,-0.25,-0.3125,0.0
1589380627.5422425,-0.15,-4.12,8.86,0.5133333333333333,0.18444444444444444,-0.7822222222222223,-0.1875,-0.125,-0.1875
1589380627.5554307,-0.12,-4.13,8.76,0.5133333333333333,0.18444444444444444,-0.7822222222222223,-0.125,-0.125,0.0
1589380627.5620716,-0.13,-4.13,8.78,0.5133333333333333,0.18444444444444444,-0.7822222222222223,-0.125,-0.1875,-0.0625
1589380627.573819,-0.13,-4.12,8.83,0.5133333333333333,0.18444444444444444,-0.7822222222222223,-0.0625,0.0,0.0
1589380627.581354,-0.15,-4.12,8.86,0.5133333333333333,0.18444444444444444,-0.7677777777777778,0.0625,-0.125,-0.1875
1589380627.5911162,-0.14,-4.13,8.85,0.5133333333333333,0.18444444444444444,-0.7677777777777778,0.0,0.125,-0.0625
1589380627.6012855,-0.14,-4.11,8.75,0.5133333333333333,0.18444444444444444,-0.7677777777777778,0.0625,-0.0625,0.0
1589380627.6107714,-0.16,-4.1,8.79,0.5133333333333333,0.18444444444444444,-0.7677777777777778,-0.0625,-0.125,0.0625
1589380627.6227446,-0.16,-4.11,8.83,0.5133333333333333,0.18444444444444444,-0.7677777777777778,-0.0625,-0.125,-0.0625
1589380627.630919,-0.15,-4.12,8.82,0.5333333333333333,0.19111111111111112,-0.7533333333333333,0.0,-0.125,-0.0625
1589380627.641175,-0.13,-4.12,8.77,0.5333333333333333,0.19111111111111112,-0.7533333333333333,0.0,-0.1875,0.0
1589380627.651334,-0.15,-4.12,8.72,0.5333333333333333,0.19111111111111112,-0.7533333333333333,0.1875,-0.0625,-0.0625
1589380627.6606252,-0.14,-4.14,8.73,0.5333333333333333,0.19111111111111112,-0.7533333333333333,0.1875,0.25,-0.1875
1589380627.6728766,-0.17,-4.13,8.78,0.5333333333333333,0.19111111111111112,-0.7533333333333333,0.25,0.5,0.0
1589380627.6803975,-0.15,-4.11,8.86,0.52,0.18444444444444444,-0.76,0.125,0.375,-0.125
1589380627.6921976,-0.15,-4.13,8.88,0.52,0.18444444444444444,-0.76,0.25,0.125,0.125
1589380627.7007275,-0.17,-4.12,8.78,0.52,0.18444444444444444,-0.76,0.1875,0.25,0.0
1589380627.7120678,-0.13,-4.13,8.84,0.52,0.18444444444444444,-0.76,0.1875,0.0625,0.0
1589380627.7267342,-0.14,-4.14,8.81,0.52,0.18444444444444444,-0.76,0.0,-0.25,-0.1875
1589380627.7328565,-0.11,-4.1,8.82,0.5066666666666667,0.17888888888888888,-0.7533333333333333,-0.0625,-0.0625,-0.0625
1589380627.7412634,-0.13,-4.11,8.75,0.5066666666666667,0.17888888888888888,-0.7533333333333333,-0.125,-0.0625,0.0
1589380627.7533915,-0.15,-4.13,8.69,0.5066666666666667,0.17888888888888888,-0.7533333333333333,-0.0625,0.0,-0.0625
1589380627.7658744,-0.15,-4.13,8.74,0.5066666666666667,0.17888888888888888,-0.7533333333333333,-0.125,0.0625,0.0625
1589380627.7733347,-0.16,-4.11,8.8,0.5066666666666667,0.17888888888888888,-0.7533333333333333,0.0,0.25,0.0
1589380627.785006,-0.15,-4.13,8.92,0.5133333333333333,0.17888888888888888,-0.7677777777777778,-0.25,-0.125,0.0625
1589380627.791002,-0.14,-4.13,8.92,0.5133333333333333,0.17888888888888888,-0.7677777777777778,-0.3125,-0.4375,0.0
1589380627.8017385,-0.13,-4.12,8.79,0.5133333333333333,0.17888888888888888,-0.7677777777777778,-0.25,-0.5625,0.0
1589380627.8114324,-0.14,-4.14,8.82,0.5133333333333333,0.17888888888888888,-0.7677777777777778,-0.375,-0.6875,-0.0625
1589380627.8243587,-0.12,-4.13,8.86,0.5133333333333333,0.17888888888888888,-0.7677777777777778,-0.4375,-0.75,-0.1875
1589380627.8314867,-0.13,-4.12,8.81,0.5277777777777778,0.18444444444444444,-0.7822222222222223,-0.1875,-0.5625,-0.1875
1589380627.8444328,-0.14,-4.14,8.84,0.5277777777777778,0.18444444444444444,-0.7822222222222223,-0.1875,-0.125,-0.0625
1589380627.8509798,-0.14,-4.12,8.71,0.5277777777777778,0.18444444444444444,-0.7822222222222223,-0.0625,0.1875,0.0
1589380627.860933,-0.14,-4.1,8.79,0.5277777777777778,0.18444444444444444,-0.7822222222222223,0.0,0.1875,-0.125
1589380627.8790286,-0.14,-4.12,8.83,0.5277777777777778,0.18444444444444444,-0.7822222222222223,-0.125,0.25,0.0
1589380627.8849895,-0.14,-4.12,8.85,0.52,0.19111111111111112,-0.7677777777777778,-0.25,0.3125,0.0
1589380627.8910134,-0.13,-4.13,8.83,0.52,0.19111111111111112,-0.7677777777777778,-0.25,0.0625,0.0
1589380627.9014304,-0.14,-4.12,8.78,0.52,0.19111111111111112,-0.7677777777777778,-0.4375,-0.125,-0.125
1589380627.913529,-0.15,-4.12,8.78,0.52,0.19111111111111112,-0.7677777777777778,-0.3125,-0.25,0.0
1589380627.923828,-0.17,-4.12,8.78,0.52,0.19111111111111112,-0.7677777777777778,-0.625,-0.3125,-0.0625
1589380627.935908,-0.16,-4.11,8.78,0.52,0.18444444444444444,-0.7822222222222223,-0.5,-0.1875,0.0
1589380627.9424665,-0.12,-4.13,8.83,0.52,0.18444444444444444,-0.7822222222222223,-0.5,0.125,0.3125
1589380627.9513965,-0.1,-4.1,8.71,0.52,0.18444444444444444,-0.7822222222222223,-0.4375,0.375,0.375
1589380627.9615324,-0.45,-3.82,8.86,0.52,0.18444444444444444,-0.7822222222222223,-0.75,0.625,0.5
1589380627.9747255,-0.58,-3.64,8.89,0.52,0.18444444444444444,-0.7822222222222223,-0.8125,0.125,2.125
1589380627.9811518,-0.56,-3.39,8.93,0.5011111111111111,0.19111111111111112,-0.7822222222222223,-1.0625,-0.9375,7.0
1589380627.995609,-0.48,-2.62,9.0,0.5011111111111111,0.19111111111111112,-0.7822222222222223,-1.3125,-1.625,12.75
1589380628.0021212,-0.51,-2.49,8.93,0.5011111111111111,0.19111111111111112,-0.7822222222222223,-1.4375,-2.25,18.75
1589380628.013256,-0.35,-2.63,8.81,0.5011111111111111,0.19111111111111112,-0.7822222222222223,-0.5625,-2.1875,26.75
1589380628.0233214,-0.15,-2.73,8.9,0.5011111111111111,0.19111111111111112,-0.7822222222222223,-0.5625,-3.1875,32.75
1589380628.0349135,0.03,-2.79,8.95,0.5022222222222222,0.18444444444444444,-0.7533333333333333,-1.0,-3.375,33.125
1589380628.0419536,0.05,-2.86,8.96,0.5022222222222222,0.18444444444444444,-0.7533333333333333,-0.625,-2.6875,30.1875
1589380628.0526078,-0.07,-2.89,8.89,0.5022222222222222,0.18444444444444444,-0.7533333333333333,-0.625,-2.1875,25.5625
1589380628.0616288,-0.15,-2.9,8.91,0.5022222222222222,0.18444444444444444,-0.7533333333333333,-0.5,-2.0,22.25
1589380628.0747721,-0.24,-2.84,8.91,0.5022222222222222,0.18444444444444444,-0.7533333333333333,-0.3125,-1.5625,20.75
1589380628.081968,-0.28,-2.81,8.96,0.5344444444444445,0.16444444444444445,-0.7677777777777778,-0.375,-1.9375,20.4375
1589380628.0941362,-0.24,-2.81,8.93,0.5344444444444445,0.16444444444444445,-0.7677777777777778,-0.75,-2.4375,21.0
1589380628.1084616,-0.3,-2.86,8.84,0.5344444444444445,0.16444444444444445,-0.7677777777777778,-0.6875,-2.3125,21.625
1589380628.1151204,-0.3,-2.91,8.83,0.5344444444444445,0.16444444444444445,-0.7677777777777778,-0.625,-2.0,22.375
1589380628.1270938,-0.33,-2.86,8.92,0.5344444444444445,0.16444444444444445,-0.7677777777777778,-0.4375,-2.0625,23.5
1589380628.132607,-0.32,-2.82,8.97,0.5022222222222222,0.16444444444444445,-0.7677777777777778,-0.875,-2.3125,24.625
1589380628.1432812,-0.26,-2.92,8.91,0.5022222222222222,0.16444444444444445,-0.7677777777777778,-0.5,-2.125,25.5625
1589380628.1529286,-0.26,-2.95,8.86,0.5022222222222222,0.16444444444444445,-0.7677777777777778,-0.5625,-2.1875,25.8125
1589380628.1672509,-0.19,-2.96,8.9,0.5022222222222222,0.16444444444444445,-0.7677777777777778,-0.625,-2.25,25.375
1589380628.1752114,-0.26,-2.99,8.97,0.5022222222222222,0.16444444444444445,-0.7677777777777778,-0.6875,-2.125,23.875
1589380628.1871455,-0.32,-2.95,8.94,0.5222222222222223,0.15777777777777774,-0.7888888888888889,-0.875,-2.25,22.25
1589380628.1938968,-0.36,-2.97,8.93,0.5222222222222223,0.15777777777777774,-0.7888888888888889,-0.5625,-1.9375,21.25
1589380628.2031028,-0.39,-3.02,8.81,0.5222222222222223,0.15777777777777774,-0.7888888888888889,-0.4375,-1.875,20.875
1589380628.216473,-0.43,-3.12,8.88,0.5222222222222223,0.15777777777777774,-0.7888888888888889,-0.4375,-1.875,21.3125
1589380628.2253873,-0.48,-3.04,8.98,0.5222222222222223,0.15777777777777774,-0.7888888888888889,-0.5625,-1.875,22.375
1589380628.2323632,-0.59,-2.98,8.94,0.5066666666666667,0.13777777777777778,-0.8033333333333333,-0.4375,-1.875,23.625
1589380628.2442596,-0.73,-2.9,8.93,0.5066666666666667,0.13777777777777778,-0.8033333333333333,-0.5625,-2.125,25.3125
1589380628.2532778,-1.14,-2.67,8.75,0.5066666666666667,0.13777777777777778,-0.8033333333333333,-0.75,-2.375,29.0625
1589380628.2640407,-0.89,-2.88,8.99,0.5066666666666667,0.13777777777777778,-0.8033333333333333,-1.25,-3.125,35.5625
1589380628.276357,-0.73,-2.91,8.95,0.5066666666666667,0.13777777777777778,-0.8033333333333333,-1.4375,-4.1875,41.6875
1589380628.281992,-0.33,-3.05,8.89,0.4955555555555556,0.10666666666666667,-0.8333333333333334,-1.0,-4.25,45.375
1589380628.2881565,-0.33,-3.05,8.89,0.4955555555555556,0.10666666666666667,-0.8333333333333334,-1.0,-4.25,45.375
1589380628.2988946,-0.37,-3.02,8.92,0.4955555555555556,0.10666666666666667,-0.8333333333333334,-1.125,-4.375,46.6875
1589380628.3052096,-0.37,-3.05,8.8,0.4955555555555556,0.10666666666666667,-0.8333333333333334,-1.0625,-4.1875,46.75
1589380628.3172677,-0.39,-3.09,8.81,0.4955555555555556,0.10666666666666667,-0.8333333333333334,-1.0,-4.0625,46.8125
1589380628.3247106,-0.39,-3.05,8.96,0.4955555555555556,0.10666666666666667,-0.8333333333333334,-1.25,-4.0625,46.9375
1589380628.3361418,-0.4,-3.07,8.96,0.5022222222222222,0.06555555555555556,-0.8244444444444444,-1.1875,-3.9375,46.6875
1589380628.3440962,-0.41,-3.07,8.98,0.5022222222222222,0.06555555555555556,-0.8244444444444444,-1.25,-4.0625,46.25
1589380628.354417,-0.44,-3.09,8.81,0.5022222222222222,0.06555555555555556,-0.8244444444444444,-1.125,-3.9375,45.4375
1589380628.3647616,-0.44,-3.08,8.84,0.5022222222222222,0.06555555555555556,-0.8244444444444444,-1.25,-3.8125,44.5625
1589380628.3772292,-0.47,-3.1,8.87,0.5022222222222222,0.06555555555555556,-0.8244444444444444,-1.125,-3.875,43.8125
1589380628.3831995,-0.46,-3.15,8.87,0.5288888888888889,0.0,-0.8011111111111111,-1.0625,-3.5625,43.0
1589380628.3946338,-0.42,-3.14,8.86,0.5288888888888889,0.0,-0.8011111111111111,-1.3125,-3.3125,42.0
1589380628.4047227,-0.47,-3.23,8.82,0.5288888888888889,0.0,-0.8011111111111111,-1.125,-3.375,40.625
1589380628.414832,-0.44,-3.3,8.85,0.5288888888888889,0.0,-0.8011111111111111,-1.25,-3.0625,38.25
1589380628.425164,-0.57,-3.42,8.91,0.5288888888888889,0.0,-0.8011111111111111,-1.25,-3.0625,35.1875
1589380628.4371786,-0.62,-3.67,8.9,0.4833333333333333,-0.024444444444444446,-0.7511111111111111,-1.0625,-2.625,33.125
1589380628.4481757,-0.64,-3.6,8.81,0.4833333333333333,-0.024444444444444446,-0.7511111111111111,-0.875,-2.3125,31.75
1589380628.4543145,-0.6,-3.5,8.79,0.4833333333333333,-0.024444444444444446,-0.7511111111111111,-1.4375,-2.4375,29.9375
1589380628.4684026,-0.64,-3.6,8.82,0.4833333333333333,-0.024444444444444446,-0.7511111111111111,-1.375,-2.5,27.4375
1589380628.4770546,-0.63,-3.55,8.81,0.4833333333333333,-0.024444444444444446,-0.7511111111111111,-1.1875,-1.8125,25.3125
1589380628.487705,-0.63,-3.58,8.88,0.4988888888888889,-0.045555555555555564,-0.7377777777777778,-1.1875,-1.625,22.9375
1589380628.4944868,-0.63,-3.55,8.87,0.4988888888888889,-0.045555555555555564,-0.7377777777777778,-1.3125,-1.4375,20.375
1589380628.5058105,-0.64,-3.48,8.8,0.4988888888888889,-0.045555555555555564,-0.7377777777777778,-1.25,-1.125,17.4375
1589380628.5149214,-0.66,-3.47,8.81,0.4988888888888889,-0.045555555555555564,-0.7377777777777778,-1.1875,-0.875,14.625
1589380628.5283434,-0.66,-3.43,8.88,0.4988888888888889,-0.045555555555555564,-0.7377777777777778,-1.3125,-0.625,12.375
1589380628.5344427,-0.67,-3.42,8.9,0.5255555555555556,-0.031111111111111114,-0.7,-1.375,-0.6875,10.3125
1589380628.5446408,-0.74,-3.49,8.86,0.5255555555555556,-0.031111111111111114,-0.7,-1.25,-0.4375,8.3125
1589380628.553711,-0.83,-3.8,8.74,0.5255555555555556,-0.031111111111111114,-0.7,-1.25,0.0,6.25
1589380628.565031,-0.83,-3.86,8.74,0.5255555555555556,-0.031111111111111114,-0.7,-1.25,0.3125,4.5
1589380628.575848,-0.66,-3.07,8.96,0.5255555555555556,-0.031111111111111114,-0.7,-1.3125,-0.25,2.9375
1589380628.5864305,-0.83,-3.76,8.74,0.5344444444444445,-0.04444444444444445,-0.6822222222222222,-1.5625,-0.6875,1.8125
1589380628.5977116,-0.79,-3.71,8.8,0.5344444444444445,-0.04444444444444445,-0.6822222222222222,-0.5625,1.5,1.125
1589380628.6059527,-0.69,-3.35,8.93,0.5344444444444445,-0.04444444444444445,-0.6822222222222222,-3.4375,-2.875,-1.5625
1589380628.6196609,-0.68,-3.05,9.04,0.5344444444444445,-0.04444444444444445,-0.6822222222222222,-4.25,-2.8125,-3.9375
1589380628.62593,-0.6,-2.72,9.0,0.5344444444444445,-0.04444444444444445,-0.6822222222222222,-1.375,0.6875,-4.875
1589380628.63357,-0.69,-2.86,8.76,0.5133333333333333,-0.017777777777777778,-0.6522222222222223,2.875,4.5,-4.5625
1589380628.6449053,-0.75,-3.34,8.86,0.5133333333333333,-0.017777777777777778,-0.6522222222222223,2.0,4.0,-4.0
1589380628.6582894,-0.73,-3.32,8.76,0.5133333333333333,-0.017777777777777778,-0.6522222222222223,-0.625,1.0,-4.4375
1589380628.6643677,-0.78,-3.41,8.8,0.5133333333333333,-0.017777777777777778,-0.6522222222222223,-0.375,1.0,-5.0
1589380628.6766555,-0.75,-3.43,8.88,0.5133333333333333,-0.017777777777777778,-0.6522222222222223,-0.3125,0.9375,-5.875
1589380628.6838222,-0.75,-3.41,8.89,0.5611111111111111,0.04777777777777778,-0.6822222222222222,-0.375,0.6875,-6.25
1589380628.696242,-0.73,-3.42,8.92,0.5611111111111111,0.04777777777777778,-0.6822222222222222,-0.375,0.75,-7.25
1589380628.7060351,-0.7,-3.35,8.81,0.5611111111111111,0.04777777777777778,-0.6822222222222222,-0.4375,0.875,-8.25
1589380628.7156365,-0.69,-3.37,8.86,0.5611111111111111,0.04777777777777778,-0.6822222222222222,-0.125,0.75,-9.4375
1589380628.7282345,-0.72,-3.39,8.87,0.5611111111111111,0.04777777777777778,-0.6822222222222222,-0.0625,0.6875,-11.0
1589380628.7403734,-0.71,-3.34,8.89,0.6111111111111112,0.13444444444444445,-0.7177777777777777,0.125,1.125,-13.5
1589380628.7525141,-0.72,-3.33,8.89,0.6111111111111112,0.13444444444444445,-0.7177777777777777,0.125,1.125,-13.5
1589380628.7582648,-0.75,-3.37,8.83,0.6111111111111112,0.13444444444444445,-0.7177777777777777,0.1875,1.0625,-14.25
1589380628.770601,-0.72,-3.3,8.76,0.6111111111111112,0.13444444444444445,-0.7177777777777777,0.0625,1.0625,-15.5
1589380628.778081,-0.7,-3.32,8.95,0.6111111111111112,0.13444444444444445,-0.7177777777777777,0.4375,1.6875,-15.8125
1589380628.7860622,-0.69,-3.37,8.93,0.7155555555555555,0.24444444444444444,-1.0177777777777777,0.375,1.375,-16.625
1589380628.7975285,-0.63,-3.26,8.9,0.7155555555555555,0.24444444444444444,-1.0177777777777777,0.5,1.3125,-17.125
1589380628.8069215,-0.69,-3.28,8.78,0.7155555555555555,0.24444444444444444,-1.0177777777777777,0.5625,1.5,-17.875
1589380628.8158607,-0.67,-3.32,8.81,0.7155555555555555,0.24444444444444444,-1.0177777777777777,0.4375,1.625,-18.125
1589380628.83106,-0.68,-3.27,8.89,0.7155555555555555,0.24444444444444444,-1.0177777777777777,0.5,1.5,-18.625
1589380628.8368518,-0.67,-3.32,8.89,0.5688888888888889,-0.17555555555555555,-0.9311111111111112,0.5625,1.5,-18.625
1589380628.8457198,-0.65,-3.3,8.9,0.5688888888888889,-0.17555555555555555,-0.9311111111111112,0.625,1.75,-19.125
1589380628.857232,-0.63,-3.22,8.8,0.5688888888888889,-0.17555555555555555,-0.9311111111111112,0.6875,2.0,-19.25
1589380628.8661413,-0.66,-3.28,8.9,0.5688888888888889,-0.17555555555555555,-0.9311111111111112,0.75,1.6875,-19.375
1589380628.8783314,-0.64,-3.32,8.88,0.5688888888888889,-0.17555555555555555,-0.9311111111111112,0.6875,1.9375,-19.1875
1589380628.8890655,-0.64,-3.33,8.94,0.5366666666666666,-0.06666666666666668,-0.6822222222222222,0.75,1.625,-19.25
1589380628.8957658,-0.65,-3.34,8.86,0.5366666666666666,-0.06666666666666668,-0.6822222222222222,0.8125,1.75,-19.125
1589380628.906214,-0.65,-3.31,8.78,0.5366666666666666,-0.06666666666666668,-0.6822222222222222,0.8125,1.8125,-19.0625
1589380628.9173179,-0.65,-3.36,8.81,0.5366666666666666,-0.06666666666666668,-0.6822222222222222,0.6875,1.75,-18.875
1589380628.9283822,-0.62,-3.29,8.86,0.5366666666666666,-0.06666666666666668,-0.6822222222222222,0.625,1.8125,-18.5625
1589380628.9359252,-0.68,-3.27,8.93,0.5311111111111111,0.03,-0.6611111111111111,0.9375,1.9375,-17.75
1589380628.9473596,-0.58,-3.16,8.93,0.5311111111111111,0.03,-0.6611111111111111,0.6875,1.4375,-16.0625
1589380628.9581676,-0.63,-3.26,8.82,0.5311111111111111,0.03,-0.6611111111111111,0.6875,1.5,-15.0625
1589380628.9690347,-0.58,-3.31,8.87,0.5311111111111111,0.03,-0.6611111111111111,0.5625,1.1875,-13.875
1589380628.979245,-0.68,-3.35,8.91,0.5311111111111111,0.03,-0.6611111111111111,0.6875,1.3125,-12.8125
1589380628.986184,-0.69,-3.33,8.92,0.5511111111111111,0.09,-0.6466666666666666,0.75,1.125,-10.6875
1589380629.0021026,-0.66,-3.3,8.93,0.5511111111111111,0.09,-0.6466666666666666,0.4375,0.875,-7.8125
1589380629.0077546,-0.7,-3.39,8.78,0.5511111111111111,0.09,-0.6466666666666666,0.5,0.75,-4.375
1589380629.0208015,-0.67,-3.41,8.84,0.5511111111111111,0.09,-0.6466666666666666,0.3125,0.125,-0.875
1589380629.0291345,-0.65,-3.34,8.88,0.5511111111111111,0.09,-0.6466666666666666,0.5625,-0.125,2.0625
1589380629.04012,-0.6,-3.28,8.91,0.5577777777777778,0.11,-0.6611111111111111,0.3125,-0.125,4.375
1589380629.047004,-0.58,-3.29,8.91,0.5577777777777778,0.11,-0.6611111111111111,0.5625,-0.375,5.875
1589380629.0606472,-0.57,-3.29,8.83,0.5577777777777778,0.11,-0.6611111111111111,0.5,-0.75,7.5625
1589380629.0676053,-0.54,-3.31,8.87,0.5577777777777778,0.11,-0.6611111111111111,0.6875,-0.75,8.5625
1589380629.0793006,-0.54,-3.3,8.92,0.5577777777777778,0.11,-0.6611111111111111,0.5625,-0.8125,9.125
1589380629.0870945,-0.51,-3.32,8.91,0.5522222222222222,0.13666666666666666,-0.6611111111111111,0.8125,-0.75,9.5
1589380629.0982206,-0.48,-3.29,8.93,0.5522222222222222,0.13666666666666666,-0.6611111111111111,0.8125,-0.625,9.1875
1589380629.1070127,-0.46,-3.3,8.82,0.5522222222222222,0.13666666666666666,-0.6611111111111111,0.6875,-1.0,8.375
1589380629.116937,-0.45,-3.23,8.87,0.5522222222222222,0.13666666666666666,-0.6611111111111111,0.75,-0.625,7.125
1589380629.133726,-0.39,-3.24,8.9,0.5522222222222222,0.13666666666666666,-0.6611111111111111,0.8125,-0.3125,5.6875
1589380629.1406682,-0.39,-3.29,8.94,0.5455555555555556,0.1288888888888889,-0.64,0.875,-0.3125,3.5625
1589380629.1526222,-0.37,-3.27,8.89,0.5455555555555556,0.1288888888888889,-0.64,0.9375,-0.1875,0.75
1589380629.1585214,-0.35,-3.21,8.86,0.5455555555555556,0.1288888888888889,-0.64,0.6875,0.125,-2.75
1589380629.1682436,-0.37,-3.28,8.87,0.5455555555555556,0.1288888888888889,-0.64,0.875,0.6875,-6.3125
1589380629.1797626,-0.38,-3.33,8.89,0.5455555555555556,0.1288888888888889,-0.64,0.9375,1.125,-10.0
1589380629.191293,-0.38,-3.23,8.94,0.5644444444444444,0.12222222222222222,-0.6466666666666666,1.0,1.375,-13.75
1589380629.1971912,-0.45,-3.25,8.9,0.5644444444444444,0.12222222222222222,-0.6466666666666666,1.1875,1.8125,-17.0
1589380629.2103162,-0.45,-3.3,8.87,0.5644444444444444,0.12222222222222222,-0.6466666666666666,1.25,2.0625,-19.375
1589380629.2182693,-0.49,-3.24,8.88,0.5644444444444444,0.12222222222222222,-0.6466666666666666,1.125,2.3125,-21.375
1589380629.2299705,-0.51,-3.3,8.93,0.5644444444444444,0.12222222222222222,-0.6466666666666666,1.125,2.375,-22.9375
1589380629.2372847,-0.51,-3.28,8.99,0.6233333333333333,0.16111111111111112,-0.6755555555555556,1.3125,2.4375,-23.75
1589380629.2474856,-0.74,-3.26,8.67,0.6233333333333333,0.16111111111111112,-0.6755555555555556,0.625,2.0,-20.1875
1589380629.257149,-1.19,-3.45,8.88,0.6233333333333333,0.16111111111111112,-0.6755555555555556,1.25,2.125,-25.5625
1589380629.267616,-0.47,-3.34,8.61,0.6233333333333333,0.16111111111111112,-0.6755555555555556,1.625,4.1875,-22.0625
1589380629.2848725,0.13,-3.27,9.09,0.6233333333333333,0.16111111111111112,-0.6755555555555556,-0.1875,-0.25,-20.75
1589380629.2907724,-0.56,-3.46,8.79,0.7566666666666667,0.2344444444444445,-0.7111111111111111,1.625,4.0625,-22.125
1589380629.2977614,-0.41,-3.5,8.99,0.7566666666666667,0.2344444444444445,-0.7111111111111111,0.25,1.375,-16.875
1589380629.3099856,-0.64,-3.49,8.79,0.7566666666666667,0.2344444444444445,-0.7111111111111111,0.625,1.5625,-15.125
1589380629.3189936,-0.58,-3.57,8.82,0.7566666666666667,0.2344444444444445,-0.7111111111111111,0.6875,1.625,-11.0
1589380629.3304381,-0.52,-3.67,8.89,0.7566666666666667,0.2344444444444445,-0.7111111111111111,0.375,0.875,-7.375
1589380629.3422241,-0.47,-3.63,8.84,1.4611111111111108,0.6266666666666667,-1.2977777777777777,0.5,0.6875,-4.375
1589380629.3479042,-0.46,-3.56,8.9,1.4611111111111108,0.6266666666666667,-1.2977777777777777,0.1875,0.625,-2.0
1589380629.3620315,-0.41,-3.62,8.83,1.4611111111111108,0.6266666666666667,-1.2977777777777777,-0.1875,0.25,-0.25
1589380629.3683624,-0.65,-3.63,8.75,1.4611111111111108,0.6266666666666667,-1.2977777777777777,0.125,0.1875,2.3125
1589380629.3805337,-0.68,-3.67,8.86,1.4611111111111108,0.6266666666666667,-1.2977777777777777,0.0625,-0.375,7.0
1589380629.3891056,-0.59,-3.58,8.96,1.0711111111111111,-0.4266666666666667,-0.9933333333333332,-0.125,-0.8125,11.6875
1589380629.39887,-0.48,-3.34,8.89,1.0711111111111111,-0.4266666666666667,-0.9933333333333332,-0.125,-1.125,15.0625
1589380629.407798,-0.48,-3.35,8.85,1.0711111111111111,-0.4266666666666667,-0.9933333333333332,0.0,-1.0625,16.6875
1589380629.4209912,-0.41,-3.32,8.86,1.0711111111111111,-0.4266666666666667,-0.9933333333333332,-0.125,-1.125,17.625
1589380629.4319975,-0.32,-3.33,8.87,1.0711111111111111,-0.4266666666666667,-0.9933333333333332,-0.0625,-1.5,17.5625
1589380629.4389124,-0.21,-3.3,8.96,0.6344444444444445,0.015555555555555557,-0.7111111111111111,0.125,-1.25,15.4375
1589380629.4475214,-0.15,-3.2,8.89,0.6344444444444445,0.015555555555555557,-0.7111111111111111,0.125,-0.875,11.125
1589380629.4622269,-0.08,-3.13,8.79,0.6344444444444445,0.015555555555555557,-0.7111111111111111,0.25,-0.25,5.5625
1589380629.46879,-0.27,-3.24,8.89,0.6344444444444445,0.015555555555555557,-0.7111111111111111,0.5,0.4375,-0.25
1589380629.4805062,-0.32,-3.25,8.87,0.6344444444444445,0.015555555555555557,-0.7111111111111111,0.375,0.5,-3.5
1589380629.4906585,-0.35,-3.3,8.95,0.5933333333333334,0.11,-0.6888888888888889,0.625,0.75,-5.4375
1589380629.5004857,-0.41,-3.39,8.96,0.5933333333333334,0.11,-0.6888888888888889,0.4375,0.875,-6.125
1589380629.5131595,-0.28,-3.39,8.79,0.5933333333333334,0.11,-0.6888888888888889,0.4375,0.6875,-5.5625
1589380629.5190425,-0.24,-3.33,8.88,0.5933333333333334,0.11,-0.6888888888888889,0.4375,0.9375,-5.875
1589380629.5321321,-0.2,-3.24,8.89,0.5933333333333334,0.11,-0.6888888888888889,0.5,1.0625,-8.1875
1589380629.539298,-0.22,-3.26,8.94,0.5877777777777777,0.14222222222222222,-0.7033333333333334,0.625,1.4375,-11.5625
1589380629.5490189,-0.3,-3.29,8.89,0.5877777777777777,0.14222222222222222,-0.7033333333333334,0.8125,1.6875,-15.0625
1589380629.5599172,-0.3,-3.39,8.8,0.5877777777777777,0.14222222222222222,-0.7033333333333334,0.9375,2.125,-17.1875
1589380629.5715964,-0.24,-3.37,8.83,0.5877777777777777,0.14222222222222222,-0.7033333333333334,0.8125,1.875,-18.4375
1589380629.581499,-0.14,-3.41,8.92,0.5877777777777777,0.14222222222222222,-0.7033333333333334,1.0,2.25,-20.0625
1589380629.5921006,-0.24,-3.51,8.94,0.5877777777777777,0.12222222222222222,-0.7033333333333334,0.9375,2.5625,-22.9375
1589380629.5986226,-0.39,-3.71,8.85,0.5877777777777777,0.12222222222222222,-0.7033333333333334,1.25,3.0625,-24.25
1589380629.6099892,-0.46,-3.78,8.76,0.5877777777777777,0.12222222222222222,-0.7033333333333334,1.1875,2.875,-22.3125
1589380629.6191714,-0.4,-3.78,8.88,0.5877777777777777,0.12222222222222222,-0.7033333333333334,0.875,1.9375,-19.4375
1589380629.6310172,-0.53,-4.19,9.09,0.5877777777777777,0.12222222222222222,-0.7033333333333334,1.125,2.25,-16.8125
1589380629.6389804,-0.13,-4.84,8.39,0.5344444444444445,0.14222222222222222,-0.6533333333333333,1.25,0.75,-12.625
1589380629.6494234,7.66,17.11,5.64,0.5344444444444445,0.14222222222222222,-0.6533333333333333,-49.5625,21.0,-187.5
1589380629.6639588,-0.68,-3.48,-0.93,0.5344444444444445,0.14222222222222222,-0.6533333333333333,-92.3125,50.8125,-385.8125
1589380629.6701806,-0.79,-3.71,16.2,0.5344444444444445,0.14222222222222222,-0.6533333333333333,-63.3125,33.4375,-405.5625
1589380629.6854668,-1.7,-2.31,7.03,0.5344444444444445,0.14222222222222222,-0.6533333333333333,51.4375,81.0625,-385.875
1589380629.6915634,-0.63,1.06,3.87,0.5166666666666667,0.24,-0.6111111111111112,133.0,42.8125,-366.4375
1589380629.7002366,-0.34,-1.07,11.57,0.5166666666666667,0.24,-0.6111111111111112,66.125,25.125,-342.5625
1589380629.7100635,-0.25,-1.79,9.04,0.5166666666666667,0.24,-0.6111111111111112,-15.9375,12.125,-335.6875
1589380629.7231376,-2.19,-0.01,8.27,0.5166666666666667,0.24,-0.6111111111111112,14.3125,36.375,-320.5625
1589380629.7309265,-1.2,-0.02,9.18,0.5166666666666667,0.24,-0.6111111111111112,9.0,30.4375,-281.875
1589380629.7433438,-0.27,-0.08,9.97,0.4244444444444445,0.3411111111111111,-0.6166666666666667,4.9375,21.25,-239.0
1589380629.7489884,-0.2,-0.09,8.97,0.4244444444444445,0.3411111111111111,-0.6166666666666667,5.4375,20.75,-211.125
1589380629.7591732,-0.2,-0.09,8.97,0.4244444444444445,0.3411111111111111,-0.6166666666666667,5.4375,20.75,-211.125
1589380629.7694118,0.18,-0.68,8.93,0.4244444444444445,0.3411111111111111,-0.6166666666666667,3.5,15.25,-152.9375
1589380629.7814276,0.29,-1.03,9.28,0.4244444444444445,0.3411111111111111,-0.6166666666666667,2.4375,10.9375,-116.8125
1589380629.7889755,0.39,-1.57,9.51,0.36777777777777776,0.41,-0.64,1.6875,7.6875,-80.0625
1589380629.8008144,0.23,-1.69,8.96,0.36777777777777776,0.41,-0.64,0.8125,3.875,-44.0
1589380629.8100984,0.56,-1.96,8.88,0.36777777777777776,0.41,-0.64,0.125,1.0,-13.25
1589380629.821817,2.16,-2.9,9.18,0.36777777777777776,0.41,-0.64,-0.25,-1.0,9.875
1589380629.831578,-0.58,-3.35,9.1,0.36777777777777776,0.41,-0.64,10.9375,6.375,-4.9375
1589380629.8428473,1.91,-3.02,8.76,0.3322222222222222,0.4622222222222222,-0.64,10.8125,10.5625,-2.1875
1589380629.8519814,1.55,-3.79,8.79,0.3322222222222222,0.4622222222222222,-0.64,-0.1875,-0.125,2.5
1589380629.8624074,1.47,-3.62,8.94,0.3322222222222222,0.4622222222222222,-0.64,0.0625,0.0,-0.0625
1589380629.8744607,1.52,-3.64,8.76,0.3322222222222222,0.4622222222222222,-0.64,-0.375,0.0,-0.125
1589380629.8825624,1.5,-3.69,8.94,0.3322222222222222,0.4622222222222222,-0.64,-0.3125,0.1875,-0.0625
1589380629.89471,1.55,-3.67,8.78,0.3033333333333333,0.4566666666666666,-0.65,0.25,0.0625,0.125
1589380629.9014232,1.5,-3.7,8.94,0.3033333333333333,0.4566666666666666,-0.65,0.5,0.25,0.125
1589380629.9135199,1.52,-3.64,8.7,0.3033333333333333,0.4566666666666666,-0.65,0.0625,0.25,-0.0625
1589380629.9206984,1.51,-3.66,8.89,0.3033333333333333,0.4566666666666666,-0.65,0.125,-0.125,0.0625
1589380629.9336035,1.54,-3.68,8.72,0.3033333333333333,0.4566666666666666,-0.65,-0.1875,-0.0625,-0.0625
1589380629.9411314,1.5,-3.65,8.9,0.3244444444444444,0.4566666666666666,-0.6377777777777778,0.125,0.0625,0.0
1589380629.9514058,1.56,-3.63,8.77,0.3244444444444444,0.4566666666666666,-0.6377777777777778,0.1875,0.0,-0.125
1589380629.960566,1.49,-3.66,8.87,0.3244444444444444,0.4566666666666666,-0.6377777777777778,0.0625,0.1875,-0.0625
1589380629.972265,1.51,-3.68,8.79,0.3244444444444444,0.4566666666666666,-0.6377777777777778,0.0,0.0625,-0.0625
1589380629.9884162,1.53,-3.67,8.86,0.3244444444444444,0.4566666666666666,-0.6377777777777778,-0.0625,-0.0625,0.0
1589380629.9943016,1.56,-3.67,8.83,0.3244444444444444,0.4755555555555556,-0.6288888888888889,-0.125,0.125,0.0
1589380630.0015185,1.5,-3.65,8.97,0.3244444444444444,0.4755555555555556,-0.6288888888888889,0.1875,0.1875,0.0625
1589380630.0134745,1.52,-3.65,8.78,0.3244444444444444,0.4755555555555556,-0.6288888888888889,0.0625,0.0625,-0.0625
1589380630.0251198,1.48,-3.65,8.89,0.3244444444444444,0.4755555555555556,-0.6288888888888889,0.0,0.0,-0.0625
1589380630.033715,1.56,-3.67,8.78,0.3244444444444444,0.4755555555555556,-0.6288888888888889,-0.1875,-0.25,-0.0625
1589380630.045655,1.51,-3.68,8.85,0.3244444444444444,0.4488888888888889,-0.6377777777777778,-0.125,-0.0625,-0.0625
1589380630.051783,1.51,-3.66,8.83,0.3244444444444444,0.4488888888888889,-0.6377777777777778,0.3125,0.0625,-0.125
1589380630.0641785,1.49,-3.65,8.81,0.3244444444444444,0.4488888888888889,-0.6377777777777778,0.25,0.125,-0.0625
1589380630.0715015,1.54,-3.65,8.82,0.3244444444444444,0.4488888888888889,-0.6377777777777778,0.125,0.0625,-0.125
1589380630.0846105,1.51,-3.64,8.85,0.3244444444444444,0.4488888888888889,-0.6377777777777778,-0.0625,0.125,-0.0625
1589380630.0917015,1.53,-3.66,8.82,0.3244444444444444,0.4566666666666666,-0.6377777777777778,-0.1875,0.0625,-0.125
1589380630.103261,1.5,-3.66,8.89,0.3244444444444444,0.4566666666666666,-0.6377777777777778,0.0625,0.1875,0.125
1589380630.111407,1.48,-3.68,8.81,0.3244444444444444,0.4566666666666666,-0.6377777777777778,0.25,0.0625,0.0625
1589380630.1222966,1.52,-3.65,8.83,0.3244444444444444,0.4566666666666666,-0.6377777777777778,0.125,0.0,-0.0625
1589380630.1393433,1.53,-3.69,8.86,0.3244444444444444,0.4566666666666666,-0.6377777777777778,-0.25,-0.0625,-0.125
1589380630.1453805,1.54,-3.66,8.85,0.31777777777777777,0.4633333333333333,-0.6233333333333333,-0.0625,-0.1875,-0.0625
1589380630.151625,1.51,-3.66,8.85,0.31777777777777777,0.4633333333333333,-0.6233333333333333,0.25,0.0625,-0.125
1589380630.1613967,1.51,-3.62,8.8,0.31777777777777777,0.4633333333333333,-0.6233333333333333,0.375,0.3125,0.0
1589380630.174037,1.54,-3.66,8.85,0.31777777777777777,0.4633333333333333,-0.6233333333333333,0.125,0.0625,0.125
1589380630.184151,1.5,-3.65,8.88,0.31777777777777777,0.4633333333333333,-0.6233333333333333,0.1875,0.0,0.0625
1589380630.1974125,1.51,-3.69,8.89,0.31777777777777777,0.4444444444444444,-0.6144444444444445,-0.1875,-0.125,-0.0625
1589380630.2033172,1.53,-3.67,8.85,0.31777777777777777,0.4444444444444444,-0.6144444444444445,-0.1875,-0.125,-0.0625
1589380630.2172177,1.52,-3.66,8.76,0.31777777777777777,0.4444444444444444,-0.6144444444444445,0.0625,0.0625,0.0625
1589380630.2231874,1.54,-3.65,8.85,0.31777777777777777,0.4444444444444444,-0.6144444444444445,0.0625,0.1875,-0.0625
1589380630.2343078,1.54,-3.65,8.85,0.31777777777777777,0.4444444444444444,-0.6144444444444445,0.0625,0.0,-0.0625
1589380630.242572,1.51,-3.67,8.9,0.3111111111111111,0.4566666666666666,-0.6288888888888889,0.0625,0.125,-0.125
1589380630.256053,1.52,-3.68,8.86,0.3111111111111111,0.4566666666666666,-0.6288888888888889,0.125,-0.0625,-0.0625
1589380630.2622626,1.52,-3.65,8.81,0.3111111111111111,0.4566666666666666,-0.6288888888888889,0.25,0.25,-0.125
1589380630.2730033,1.51,-3.66,8.85,0.3111111111111111,0.4566666666666666,-0.6288888888888889,0.25,0.3125,0.0
1589380630.2854874,1.52,-3.65,8.89,0.3111111111111111,0.4566666666666666,-0.6288888888888889,0.125,-0.125,0.0625
1589380630.2967956,1.54,-3.65,8.85,0.34444444444444444,0.4688888888888889,-0.6288888888888889,-0.0625,0.0,-0.0625
1589380630.303237,1.54,-3.68,8.83,0.34444444444444444,0.4688888888888889,-0.6288888888888889,-0.125,-0.25,-0.125
1589380630.3143098,1.53,-3.68,8.76,0.34444444444444444,0.4688888888888889,-0.6288888888888889,-0.0625,-0.0625,-0.0625
1589380630.324888,1.52,-3.68,8.8,0.34444444444444444,0.4688888888888889,-0.6288888888888889,0.125,-0.125,0.0
1589380630.3349793,1.52,-3.65,8.89,0.34444444444444444,0.4688888888888889,-0.6288888888888889,0.125,0.0625,-0.125
1589380630.3482563,1.53,-3.65,8.89,0.31777777777777777,0.4566666666666666,-0.6377777777777778,0.0625,0.125,0.0625
1589380630.3543403,1.51,-3.67,8.89,0.31777777777777777,0.4566666666666666,-0.6377777777777778,-0.125,0.0,-0.0625
1589380630.3683968,1.51,-3.66,8.79,0.31777777777777777,0.4566666666666666,-0.6377777777777778,0.125,0.1875,0.0625
1589380630.375165,1.51,-3.63,8.87,0.31777777777777777,0.4566666666666666,-0.6377777777777778,0.25,-0.0625,-0.0625
1589380630.387637,1.51,-3.65,8.87,0.31777777777777777,0.4566666666666666,-0.6377777777777778,0.125,-0.0625,-0.0625
1589380630.39438,1.52,-3.66,8.89,0.31777777777777777,0.4755555555555556,-0.6288888888888889,-0.0625,-0.25,0.0
1589380630.406407,1.54,-3.67,8.78,0.31777777777777777,0.4755555555555556,-0.6288888888888889,-0.125,-0.1875,0.0
1589380630.4136176,1.53,-3.67,8.75,0.31777777777777777,0.4755555555555556,-0.6288888888888889,-0.0625,0.125,-0.125
1589380630.4272676,1.54,-3.67,8.83,0.31777777777777777,0.4755555555555556,-0.6288888888888889,-0.125,0.125,-0.0625
1589380630.4353278,1.52,-3.67,8.87,0.31777777777777777,0.4755555555555556,-0.6288888888888889,0.125,0.125,0.0
1589380630.4469688,1.53,-3.68,8.88,0.3244444444444444,0.4633333333333333,-0.6144444444444445,-0.0625,0.125,0.0
1589380630.453388,1.52,-3.68,8.84,0.3244444444444444,0.4633333333333333,-0.6144444444444445,-0.0625,-0.125,0.0
1589380630.46354,1.53,-3.68,8.77,0.3244444444444444,0.4633333333333333,-0.6144444444444445,0.0625,-0.0625,0.0
1589380630.473168,1.52,-3.67,8.87,0.3244444444444444,0.4633333333333333,-0.6144444444444445,0.0625,-0.0625,0.0625
1589380630.4856315,1.51,-3.66,8.88,0.3244444444444444,0.4633333333333333,-0.6144444444444445,0.1875,0.125,-0.125
1589380630.4936955,1.51,-3.66,8.86,0.3111111111111111,0.4755555555555556,-0.6377777777777778,0.1875,0.25,0.0625
1589380630.5045786,1.49,-3.67,8.88,0.3111111111111111,0.4755555555555556,-0.6377777777777778,0.0,-0.0625,-0.0625
1589380630.5136847,1.52,-3.66,8.76,0.3111111111111111,0.4755555555555556,-0.6377777777777778,-0.125,0.0625,0.0
1589380630.524856,1.51,-3.66,8.83,0.3111111111111111,0.4755555555555556,-0.6377777777777778,0.0625,0.0625,-0.0625
1589380630.5361938,1.52,-3.65,8.87,0.3111111111111111,0.4755555555555556,-0.6377777777777778,0.0,0.0,0.0625
1589380630.5441206,1.52,-3.66,8.92,0.33,0.4488888888888889,-0.6288888888888889,0.0,0.1875,0.0
1589380630.5574336,1.52,-3.65,8.85,0.33,0.4488888888888889,-0.6288888888888889,-0.125,-0.0625,0.0625
1589380630.5633495,1.53,-3.65,8.76,0.33,0.4488888888888889,-0.6288888888888889,-0.0625,0.0625,-0.1875
1589380630.5774484,1.52,-3.66,8.78,0.33,0.4488888888888889,-0.6288888888888889,-0.125,0.0625,0.125
1589380630.5871348,1.53,-3.66,8.87,0.33,0.4488888888888889,-0.6288888888888889,0.125,0.0,-0.0625
1589380630.598634,1.53,-3.64,8.89,0.34444444444444444,0.4566666666666666,-0.6144444444444445,-0.0625,0.0,-0.0625
1589380630.60498,1.51,-3.67,8.88,0.34444444444444444,0.4566666666666666,-0.6144444444444445,-0.125,0.125,0.0
1589380630.6142652,1.52,-3.64,8.78,0.34444444444444444,0.4566666666666666,-0.6144444444444445,0.1875,0.0625,-0.0625
1589380630.6235135,1.5,-3.66,8.84,0.34444444444444444,0.4566666666666666,-0.6144444444444445,0.1875,0.0625,0.0625
1589380630.6375427,1.52,-3.66,8.88,0.34444444444444444,0.4566666666666666,-0.6144444444444445,0.0,0.1875,-0.0625
1589380630.6442974,1.53,-3.65,8.89,0.3111111111111111,0.4633333333333333,-0.6444444444444445,0.0625,-0.0625,0.0625
1589380630.6549358,1.53,-3.66,8.84,0.3111111111111111,0.4633333333333333,-0.6444444444444445,0.0,-0.125,0.0
1589380630.66461,1.52,-3.67,8.76,0.3111111111111111,0.4633333333333333,-0.6444444444444445,-0.0625,-0.125,0.0625
1589380630.6749039,1.53,-3.68,8.8,0.3111111111111111,0.4633333333333333,-0.6444444444444445,0.0625,0.0625,-0.125
1589380630.6866064,1.53,-3.65,8.85,0.3111111111111111,0.4633333333333333,-0.6444444444444445,0.25,0.1875,-0.125
1589380630.7044005,1.5,-3.66,8.89,0.3244444444444444,0.4688888888888889,-0.6377777777777778,0.0,-0.125,0.0625
1589380630.7141573,1.52,-3.65,8.78,0.3244444444444444,0.4688888888888889,-0.6377777777777778,-0.0625,-0.0625,0.0
1589380630.7300758,1.53,-3.67,8.8,0.3244444444444444,0.4688888888888889,-0.6377777777777778,-0.1875,-0.125,0.0
1589380630.7369199,1.52,-3.66,8.91,0.3244444444444444,0.4688888888888889,-0.6377777777777778,-0.125,0.0,0.0
1589380630.748918,1.53,-3.67,8.9,0.3111111111111111,0.4444444444444444,-0.6377777777777778,-0.125,0.0625,0.0
1589380630.755314,1.53,-3.65,8.91,0.3111111111111111,0.4444444444444444,-0.6377777777777778,0.125,0.0625,-0.125
1589380630.7683144,1.53,-3.66,8.8,0.3111111111111111,0.4444444444444444,-0.6377777777777778,-0.125,-0.0625,-0.0625
1589380630.7743864,1.53,-3.65,8.8,0.3111111111111111,0.4444444444444444,-0.6377777777777778,0.0625,0.0,0.0
1589380630.7876954,1.53,-3.69,8.87,0.3111111111111111,0.4444444444444444,-0.6377777777777778,0.125,0.0625,-0.0625
1589380630.7946458,1.53,-3.65,8.89,0.31777777777777777,0.4566666666666666,-0.6144444444444445,0.375,0.1875,-0.0625
1589380630.8071866,1.53,-3.65,8.86,0.31777777777777777,0.4566666666666666,-0.6144444444444445,0.0625,0.0,-0.125
1589380630.815018,1.5,-3.67,8.78,0.31777777777777777,0.4566666666666666,-0.6144444444444445,-0.0625,-0.0625,0.0
1589380630.8262632,1.51,-3.67,8.79,0.31777777777777777,0.4566666666666666,-0.6144444444444445,-0.125,-0.1875,0.0
1589380630.8377433,1.53,-3.66,8.87,0.31777777777777777,0.4566666666666666,-0.6144444444444445,-0.0625,-0.0625,0.0625
1589380630.8496394,1.52,-3.65,8.89,0.31777777777777777,0.4633333333333333,-0.6233333333333333,0.0625,-0.1875,0.0625
1589380630.8582337,1.51,-3.65,8.88,0.31777777777777777,0.4633333333333333,-0.6233333333333333,0.0,0.0625,0.0
1589380630.8688226,1.54,-3.66,8.78,0.31777777777777777,0.4633333333333333,-0.6233333333333333,0.125,0.0,-0.125
1589380630.880655,1.53,-3.66,8.84,0.31777777777777777,0.4633333333333333,-0.6233333333333333,0.0,0.125,-0.0625
1589380630.8878706,1.52,-3.69,8.86,0.31777777777777777,0.4633333333333333,-0.6233333333333333,0.125,0.1875,0.0625
1589380630.8949196,1.53,-3.64,8.88,0.33,0.4566666666666666,-0.6233333333333333,0.1875,0.0,-0.125
1589380630.9058814,1.52,-3.65,8.83,0.33,0.4566666666666666,-0.6233333333333333,0.0625,0.125,-0.0625
1589380630.9193757,1.51,-3.65,8.78,0.33,0.4566666666666666,-0.6233333333333333,0.0,0.0625,-0.125
1589380630.9255984,1.52,-3.66,8.83,0.33,0.4566666666666666,-0.6233333333333333,-0.125,-0.0625,-0.125
