time,acc_x,acc_y,acc_z,mag_x,mag_y,mag_z,gyr_x,gyr_y,gyr_z
1589380639.3777661,-0.29,-4.11,8.86,0.5166666666666667,0.1811111111111111,-0.7622222222222222,-0.0625,-0.1875,0.0
1589380639.384427,-0.29,-4.1,8.87,0.5166666666666667,0.1811111111111111,-0.7688888888888888,0.0,0.0625,-0.0625
1589380639.3950994,-0.29,-4.12,8.84,0.5166666666666667,0.1811111111111111,-0.7688888888888888,-0.0625,-0.125,0.0
1589380639.4038465,-0.3,-4.13,8.75,0.5166666666666667,0.1811111111111111,-0.7688888888888888,-0.125,-0.0625,0.125
1589380639.4138017,-0.31,-4.13,8.75,0.5166666666666667,0.1811111111111111,-0.7688888888888888,0.0,-0.1875,0.0625
1589380639.4320247,-0.31,-4.12,8.77,0.5166666666666667,0.1811111111111111,-0.7688888888888888,0.0625,0.0,0.1875
1589380639.437718,-0.3,-4.12,8.82,0.5244444444444445,0.1811111111111111,-0.7477777777777778,-0.0625,-0.25,-0.0625
1589380639.449363,-0.3,-4.11,8.84,0.5244444444444445,0.1811111111111111,-0.7477777777777778,-0.0625,-0.125,0.0625
1589380639.455521,-0.29,-4.11,8.74,0.5244444444444445,0.1811111111111111,-0.7477777777777778,0.0,-0.1875,0.1875
1589380639.4700685,-0.29,-4.11,8.82,0.5244444444444445,0.1811111111111111,-0.7477777777777778,-0.125,-0.25,-0.25
1589380639.4774635,-0.3,-4.13,8.86,0.5244444444444445,0.1811111111111111,-0.7477777777777778,-0.125,-0.1875,-0.0625
1589380639.4856827,-0.3,-4.13,8.91,0.5166666666666667,0.20222222222222225,-0.7477777777777778,-0.25,0.1875,0.0
1589380639.4943488,-0.3,-4.12,8.8,0.5166666666666667,0.20222222222222225,-0.7477777777777778,-0.3125,-0.3125,0.0
1589380639.504863,-0.28,-4.12,8.74,0.5166666666666667,0.20222222222222225,-0.7477777777777778,-0.25,-0.1875,0.0625
1589380639.514129,-0.26,-4.11,8.75,0.5166666666666667,0.20222222222222225,-0.7477777777777778,-0.3125,-0.1875,0.125
1589380639.527055,-0.28,-4.13,8.78,0.5166666666666667,0.20222222222222225,-0.7477777777777778,-0.25,0.0,0.0625
1589380639.5344012,-0.3,-4.14,8.83,0.5244444444444445,0.18777777777777774,-0.7555555555555555,-0.125,0.125,0.0625
1589380639.5447073,-0.35,-4.1,8.83,0.5244444444444445,0.18777777777777774,-0.7555555555555555,-0.125,0.125,0.0
1589380639.5551894,-0.3,-4.13,8.78,0.5244444444444445,0.18777777777777774,-0.7555555555555555,0.0,0.125,-0.0625
1589380639.5663707,-0.31,-4.12,8.81,0.5244444444444445,0.18777777777777774,-0.7555555555555555,0.0,0.0625,0.0625
1589380639.5771208,-0.27,-4.14,8.86,0.5244444444444445,0.18777777777777774,-0.7555555555555555,0.125,-0.25,0.0
1589380639.5858052,-0.26,-4.13,8.84,0.5244444444444445,0.1955555555555556,-0.7411111111111112,0.0625,0.0625,0.125
1589380639.595035,-0.29,-4.12,8.84,0.5244444444444445,0.1955555555555556,-0.7411111111111112,-0.1875,0.125,-0.0625
1589380639.6071892,-0.31,-4.12,8.73,0.5244444444444445,0.1955555555555556,-0.7411111111111112,0.125,0.0625,0.0
1589380639.6157825,-0.3,-4.11,8.77,0.5244444444444445,0.1955555555555556,-0.7411111111111112,0.0625,0.125,0.1875
1589380639.6281571,-0.3,-4.11,8.8,0.5244444444444445,0.1955555555555556,-0.7411111111111112,0.0625,0.25,0.0625
1589380639.6360486,-0.29,-4.11,8.82,0.51,0.1955555555555556,-0.7622222222222222,0.0625,0.3125,0.25
1589380639.646239,-0.29,-4.13,8.82,0.51,0.1955555555555556,-0.7622222222222222,0.0625,0.1875,0.0
1589380639.659074,-0.29,-4.13,8.78,0.51,0.1955555555555556,-0.7622222222222222,0.25,0.125,-0.0625
1589380639.665441,-0.3,-4.13,8.8,0.51,0.1955555555555556,-0.7622222222222222,0.0625,-0.125,0.0
1589380639.6780813,-0.31,-4.12,8.83,0.51,0.1955555555555556,-0.7622222222222222,0.125,-0.0625,-0.0625
1589380639.6854534,-0.3,-4.14,8.82,0.5244444444444445,0.1955555555555556,-0.7555555555555555,0.0625,-0.0625,-0.125
1589380639.6977856,-0.32,-4.15,8.78,0.5244444444444445,0.1955555555555556,-0.7555555555555555,0.0625,0.0625,0.125
1589380639.7055767,-0.31,-4.1,8.72,0.5244444444444445,0.1955555555555556,-0.7555555555555555,0.1875,0.25,0.0625
1589380639.7158935,-0.29,-4.12,8.79,0.5244444444444445,0.1955555555555556,-0.7555555555555555,0.25,0.3125,0.3125
1589380639.7287831,-0.32,-4.12,8.82,0.5244444444444445,0.1955555555555556,-0.7555555555555555,0.125,0.3125,0.25
1589380639.739342,-0.29,-4.11,8.87,0.4977777777777778,0.20222222222222225,-0.7622222222222222,0.0625,0.375,0.1875
1589380639.7455366,-0.29,-4.11,8.86,0.4977777777777778,0.20222222222222225,-0.7622222222222222,-0.0625,0.125,0.0
1589380639.757167,-0.29,-4.1,8.74,0.4977777777777778,0.20222222222222225,-0.7622222222222222,0.125,-0.0625,0.0
1589380639.7667274,-0.27,-4.13,8.78,0.4977777777777778,0.20222222222222225,-0.7622222222222222,0.0,-0.0625,0.0
1589380639.7785776,-0.3,-4.12,8.83,0.4977777777777778,0.20222222222222225,-0.7622222222222222,-0.0625,-0.3125,-0.0625
1589380639.7856698,-0.31,-4.11,8.83,0.5166666666666667,0.1811111111111111,-0.7555555555555555,-0.125,0.0,-0.25
1589380639.7956884,-0.29,-4.09,8.82,0.5166666666666667,0.1811111111111111,-0.7555555555555555,-0.125,0.0,-0.25
1589380639.809411,-0.3,-4.12,8.72,0.5166666666666667,0.1811111111111111,-0.7555555555555555,-0.125,-0.125,-0.0625
1589380639.8157196,-0.29,-4.13,8.78,0.5166666666666667,0.1811111111111111,-0.7555555555555555,0.0625,0.0625,-0.1875
1589380639.8328743,-0.29,-4.11,8.84,0.5166666666666667,0.1811111111111111,-0.7555555555555555,-0.25,0.0625,-0.125
1589380639.8391547,-0.3,-4.12,8.85,0.5366666666666666,0.1955555555555556,-0.7477777777777778,-0.0625,-0.1875,-0.0625
1589380639.851805,-0.31,-4.1,8.85,0.5366666666666666,0.1955555555555556,-0.7477777777777778,-0.25,-0.375,-0.25
1589380639.8584466,-0.3,-4.13,8.72,0.5366666666666666,0.1955555555555556,-0.7477777777777778,-0.1875,-0.375,-0.0625
1589380639.8697872,-0.31,-4.1,8.77,0.5366666666666666,0.1955555555555556,-0.7477777777777778,0.0,-0.4375,-0.1875
1589380639.8783932,-0.29,-4.09,8.8,0.5366666666666666,0.1955555555555556,-0.7477777777777778,-0.1875,-0.25,-0.1875
1589380639.8900054,-0.3,-4.09,8.84,0.5166666666666667,0.18777777777777774,-0.7688888888888888,-0.125,-0.1875,-0.4375
1589380639.8964565,-0.3,-4.12,8.82,0.5166666666666667,0.18777777777777774,-0.7688888888888888,-0.1875,0.0,-0.375
1589380639.9096596,-0.28,-4.12,8.74,0.5166666666666667,0.18777777777777774,-0.7688888888888888,-0.0625,0.1875,-0.125
1589380639.9168494,-0.27,-4.11,8.79,0.5166666666666667,0.18777777777777774,-0.7688888888888888,0.0625,0.1875,-0.0625
1589380639.9300606,-0.3,-4.12,8.82,0.5166666666666667,0.18777777777777774,-0.7688888888888888,0.0,0.25,-0.125
1589380639.936925,-0.31,-4.11,8.86,0.49,0.1955555555555556,-0.7411111111111112,0.0625,0.25,0.0
1589380639.946435,-0.3,-4.1,8.85,0.49,0.1955555555555556,-0.7411111111111112,0.0625,0.3125,-0.125
1589380639.9605012,-0.3,-4.13,8.73,0.49,0.1955555555555556,-0.7411111111111112,0.125,0.1875,-0.0625
1589380639.9671845,-0.28,-4.1,8.76,0.49,0.1955555555555556,-0.7411111111111112,0.25,0.1875,-0.0625
1589380639.9824266,-0.28,-4.11,8.84,0.49,0.1955555555555556,-0.7411111111111112,0.0625,-0.0625,0.0
1589380639.9891384,-0.29,-4.12,8.84,0.5166666666666667,0.1955555555555556,-0.7555555555555555,0.0625,-0.0625,-0.0625
1589380639.996477,-0.3,-4.11,8.9,0.5166666666666667,0.1955555555555556,-0.7555555555555555,0.0625,-0.125,-0.1875
1589380640.0089777,-0.31,-4.14,8.77,0.5166666666666667,0.1955555555555556,-0.7555555555555555,-0.0625,-0.0625,-0.0625
1589380640.0211902,-0.29,-4.12,8.8,0.5166666666666667,0.1955555555555556,-0.7555555555555555,0.125,0.0,0.0625
1589380640.0298333,-0.28,-4.12,8.82,0.5166666666666667,0.1955555555555556,-0.7555555555555555,0.0625,-0.0625,-0.0625
1589380640.0403636,-0.27,-4.11,8.82,0.5288888888888889,0.1811111111111111,-0.7555555555555555,0.125,0.3125,0.0625
1589380640.0473475,-0.29,-4.13,8.79,0.5288888888888889,0.1811111111111111,-0.7555555555555555,0.125,0.125,0.0
1589380640.0604987,-0.31,-4.14,8.74,0.5288888888888889,0.1811111111111111,-0.7555555555555555,0.1875,0.3125,-0.0625
1589380640.0673318,-0.3,-4.12,8.74,0.5288888888888889,0.1811111111111111,-0.7555555555555555,0.3125,0.375,0.0
1589380640.0805788,-0.34,-4.13,8.86,0.5288888888888889,0.1811111111111111,-0.7555555555555555,0.25,0.375,0.1875
1589380640.0874412,-0.31,-4.13,8.88,0.5166666666666667,0.1955555555555556,-0.7477777777777778,0.3125,0.3125,0.25
1589380640.0989845,-0.27,-4.12,8.9,0.5166666666666667,0.1955555555555556,-0.7477777777777778,0.25,0.0,0.25
1589380640.1068485,-0.27,-4.12,8.73,0.5166666666666667,0.1955555555555556,-0.7477777777777778,0.125,0.0,-0.0625
1589380640.1171315,-0.27,-4.12,8.78,0.5166666666666667,0.1955555555555556,-0.7477777777777778,0.0,0.0,-0.0625
1589380640.1345055,-0.29,-4.11,8.76,0.5166666666666667,0.1955555555555556,-0.7477777777777778,-0.0625,0.125,0.0
1589380640.140702,-0.3,-4.09,8.77,0.51,0.20222222222222225,-0.7555555555555555,-0.1875,0.0625,-0.25
1589380640.14834,-0.31,-4.12,8.8,0.51,0.20222222222222225,-0.7555555555555555,-0.3125,-0.1875,-0.0625
1589380640.1601582,-0.31,-4.13,8.73,0.51,0.20222222222222225,-0.7555555555555555,-0.3125,-0.1875,0.0
1589380640.1720505,-0.29,-4.12,8.79,0.51,0.20222222222222225,-0.7555555555555555,-0.3125,-0.3125,0.0625
1589380640.1805613,-0.28,-4.13,8.83,0.51,0.20222222222222225,-0.7555555555555555,-0.25,-0.4375,-0.0625
1589380640.1915147,-0.27,-4.12,8.85,0.5166666666666667,0.20222222222222225,-0.7477777777777778,-0.1875,-0.625,0.0
1589380640.1980855,-0.28,-4.11,8.84,0.5166666666666667,0.20222222222222225,-0.7477777777777778,-0.1875,-0.5,-0.0625
1589380640.2118535,-0.29,-4.1,8.75,0.5166666666666667,0.20222222222222225,-0.7477777777777778,-0.3125,-0.625,0.0625
1589380640.218504,-0.3,-4.1,8.78,0.5166666666666667,0.20222222222222225,-0.7477777777777778,-0.25,-0.25,0.0
1589380640.2314384,-0.31,-4.12,8.8,0.5166666666666667,0.20222222222222225,-0.7477777777777778,-0.3125,-0.3125,-0.125
1589380640.237641,-0.28,-4.09,8.83,0.5244444444444445,0.20222222222222225,-0.7622222222222222,-0.5,-0.4375,-0.5625
1589380640.2488437,-0.33,-4.06,8.85,0.5244444444444445,0.20222222222222225,-0.7622222222222222,-0.4375,-0.6875,-1.625
1589380640.2568257,-0.83,-3.95,8.76,0.5244444444444445,0.20222222222222225,-0.7622222222222222,-0.3125,-0.5,-2.5
1589380640.270712,-0.61,-3.78,8.82,0.5244444444444445,0.20222222222222225,-0.7622222222222222,-0.25,-0.375,-2.125
1589380640.2793338,-0.74,-3.76,8.87,0.5244444444444445,0.20222222222222225,-0.7622222222222222,-0.0625,-0.1875,-3.3125
1589380640.2883024,-0.85,-3.71,8.88,0.5166666666666667,0.1811111111111111,-0.7766666666666666,0.0,0.0,-4.125
1589380640.2972732,-0.83,-3.77,8.85,0.5166666666666667,0.1811111111111111,-0.7766666666666666,0.0625,0.0625,-3.5
1589380640.3109753,-0.85,-3.82,8.76,0.5166666666666667,0.1811111111111111,-0.7766666666666666,0.0,0.0625,-0.6875
1589380640.3191125,-0.77,-3.9,8.81,0.5166666666666667,0.1811111111111111,-0.7766666666666666,-0.125,-0.3125,3.1875
1589380640.3310664,-0.62,-4.07,8.89,0.5166666666666667,0.1811111111111111,-0.7766666666666666,-0.1875,-0.5,7.5
1589380640.3427315,-0.5,-4.17,8.92,0.5288888888888889,0.1955555555555556,-0.7477777777777778,-0.375,-1.0,11.125
1589380640.3486214,-0.45,-4.3,8.88,0.5288888888888889,0.1955555555555556,-0.7477777777777778,-0.5,-1.1875,13.5625
1589380640.3629286,-0.19,-4.55,8.73,0.5288888888888889,0.1955555555555556,-0.7477777777777778,-0.625,-1.4375,16.4375
1589380640.3696792,0.1,-4.54,8.75,0.5288888888888889,0.1955555555555556,-0.7477777777777778,-0.5,-1.6875,19.25
1589380640.3804545,0.34,-4.56,8.76,0.5288888888888889,0.1955555555555556,-0.7477777777777778,-0.5,-1.875,19.75
1589380640.3884394,0.58,-4.55,8.74,0.5244444444444445,0.20222222222222225,-0.7555555555555555,-0.375,-1.625,17.5625
1589380640.4019208,0.79,-4.42,8.74,0.5244444444444445,0.20222222222222225,-0.7555555555555555,-0.125,-1.0,12.75
1589380640.4082086,0.71,-4.24,8.7,0.5244444444444445,0.20222222222222225,-0.7555555555555555,0.0,0.0,7.0
1589380640.4218488,-0.26,-4.1,8.78,0.5244444444444445,0.20222222222222225,-0.7555555555555555,0.375,0.875,1.625
1589380640.4311402,-0.45,-4.13,8.8,0.5244444444444445,0.20222222222222225,-0.7555555555555555,0.1875,0.875,0.3125
1589380640.4417822,-0.63,-4.28,8.89,0.5166666666666667,0.1811111111111111,-0.7477777777777778,0.125,0.6875,0.9375
1589380640.4487982,-0.73,-4.35,8.83,0.5166666666666667,0.1811111111111111,-0.7477777777777778,-0.25,-0.0625,2.9375
1589380640.4581945,-0.74,-4.33,8.71,0.5166666666666667,0.1811111111111111,-0.7477777777777778,-0.375,-0.625,6.625
1589380640.4683287,-0.47,-4.15,8.73,0.5166666666666667,0.1811111111111111,-0.7477777777777778,-0.5,-1.3125,9.1875
1589380640.4804401,-0.36,-4.07,8.76,0.5166666666666667,0.1811111111111111,-0.7477777777777778,-0.375,-1.4375,9.8125
1589380640.4876726,-0.33,-4.05,8.81,0.5166666666666667,0.1955555555555556,-0.7411111111111112,-0.625,-1.4375,8.875
1589380640.4987252,-0.32,-4.07,8.87,0.5166666666666667,0.1955555555555556,-0.7411111111111112,-0.5625,-1.375,7.25
1589380640.5093253,-0.36,-4.09,8.76,0.5166666666666667,0.1955555555555556,-0.7411111111111112,-0.75,-1.5,5.625
1589380640.5208914,-0.44,-4.23,8.87,0.5166666666666667,0.1955555555555556,-0.7411111111111112,-1.25,-1.8125,4.1875
1589380640.5352185,-0.42,-4.12,8.88,0.5166666666666667,0.1955555555555556,-0.7411111111111112,-1.1875,-1.4375,2.6875
1589380640.5418606,0.27,-4.07,9.02,0.5166666666666667,0.1955555555555556,-0.7555555555555555,-1.875,-1.375,2.25
1589380640.5525155,-0.23,-4.17,8.75,0.5166666666666667,0.1955555555555556,-0.7555555555555555,-1.8125,-0.75,2.375
1589380640.5587568,-0.64,-2.81,8.75,0.5166666666666667,0.1955555555555556,-0.7555555555555555,-1.375,-0.4375,1.1875
1589380640.5728538,-0.8,-1.94,8.91,0.5166666666666667,0.1955555555555556,-0.7555555555555555,-0.3125,0.625,8.125
1589380640.5806534,-0.53,-2.36,8.95,0.5166666666666667,0.1955555555555556,-0.7555555555555555,-0.4375,-1.5,18.5625
1589380640.5922847,-0.42,-2.48,8.96,0.5166666666666667,0.18777777777777774,-0.7555555555555555,-0.6875,-2.3125,25.25
1589380640.5994306,-0.39,-2.56,8.98,0.5166666666666667,0.18777777777777774,-0.7555555555555555,-0.625,-2.625,28.5625
1589380640.6095035,-0.38,-2.59,8.92,0.5166666666666667,0.18777777777777774,-0.7555555555555555,-0.8125,-3.0625,30.375
1589380640.619792,-0.39,-2.57,9.01,0.5166666666666667,0.18777777777777774,-0.7555555555555555,-0.5625,-3.3125,31.75
1589380640.631884,-0.41,-2.61,9.0,0.5166666666666667,0.18777777777777774,-0.7555555555555555,-0.75,-3.75,33.25
1589380640.6390002,-0.42,-2.69,8.98,0.5244444444444445,0.1811111111111111,-0.7477777777777778,-1.125,-3.9375,35.0625
1589380640.6496766,-0.37,-2.76,8.89,0.5244444444444445,0.1811111111111111,-0.7477777777777778,-1.125,-3.9375,36.3125
1589380640.6600044,-0.36,-2.79,8.82,0.5244444444444445,0.1811111111111111,-0.7477777777777778,-1.125,-3.5625,36.875
1589380640.6702635,-0.36,-2.77,8.83,0.5244444444444445,0.1811111111111111,-0.7477777777777778,-0.9375,-3.1875,36.625
1589380640.6869886,-0.37,-2.75,8.91,0.5244444444444445,0.1811111111111111,-0.7477777777777778,-0.8125,-2.875,35.9375
1589380640.693192,-0.38,-2.78,8.99,0.5022222222222222,0.1688888888888889,-0.7766666666666666,-0.8125,-2.6875,35.25
1589380640.702264,-0.37,-2.81,9.01,0.5022222222222222,0.1688888888888889,-0.7766666666666666,-0.9375,-2.9375,34.75
1589380640.7103622,-0.37,-2.73,8.88,0.5022222222222222,0.1688888888888889,-0.7766666666666666,-0.8125,-3.25,34.0625
1589380640.7244933,-0.42,-2.81,8.9,0.5022222222222222,0.1688888888888889,-0.7766666666666666,-1.125,-3.625,33.25
1589380640.7323024,-0.42,-2.8,8.93,0.5022222222222222,0.1688888888888889,-0.7766666666666666,-1.0,-3.5625,33.0
1589380640.7448034,-0.42,-2.73,8.95,0.5166666666666667,0.15555555555555556,-0.7911111111111111,-0.9375,-3.625,32.4375
1589380640.7515707,-0.46,-2.8,8.93,0.5166666666666667,0.15555555555555556,-0.7911111111111111,-1.0,-3.25,32.1875
1589380640.760341,-0.52,-2.77,8.86,0.5166666666666667,0.15555555555555556,-0.7911111111111111,-0.9375,-3.125,32.1875
1589380640.770732,-0.48,-2.78,8.89,0.5166666666666667,0.15555555555555556,-0.7911111111111111,-0.6875,-2.625,32.9375
1589380640.7833712,-0.51,-2.85,8.96,0.5166666666666667,0.15555555555555556,-0.7911111111111111,-0.625,-2.5625,33.625
1589380640.791109,-0.54,-2.86,8.99,0.4977777777777778,0.13666666666666666,-0.7622222222222222,-0.875,-2.6875,33.8125
1589380640.8014927,-0.53,-2.83,8.95,0.4977777777777778,0.13666666666666666,-0.7622222222222222,-0.8125,-3.0625,34.0
1589380640.8106744,-0.54,-2.81,8.84,0.4977777777777778,0.13666666666666666,-0.7622222222222222,-1.0,-3.5,34.25
1589380640.8227508,-0.58,-2.85,8.88,0.4977777777777778,0.13666666666666666,-0.7622222222222222,-1.1875,-3.5625,34.375
1589380640.8379312,-0.61,-2.89,8.89,0.4977777777777778,0.13666666666666666,-0.7622222222222222,-1.125,-3.6875,34.8125
1589380640.844127,-0.57,-2.93,8.93,0.5244444444444445,0.10111111111111112,-0.8044444444444444,-1.0625,-3.5625,35.375
1589380640.8560152,-0.59,-2.95,8.98,0.5244444444444445,0.10111111111111112,-0.8044444444444444,-1.0,-3.25,35.5625
1589380640.8621182,-0.62,-3.0,8.88,0.5244444444444445,0.10111111111111112,-0.8044444444444444,-0.8125,-3.125,35.3125
1589380640.8756125,-0.6,-3.0,8.9,0.5244444444444445,0.10111111111111112,-0.8044444444444444,-0.8125,-2.875,35.125
1589380640.8834586,-0.63,-3.02,8.96,0.5244444444444445,0.10111111111111112,-0.8044444444444444,-1.0,-2.75,34.3125
1589380640.8954768,-0.61,-2.98,8.99,0.5288888888888889,0.048888888888888885,-0.7766666666666666,-0.875,-2.75,33.5625
1589380640.9022384,-0.63,-2.96,8.9,0.5288888888888889,0.048888888888888885,-0.7766666666666666,-1.0625,-2.875,32.375
1589380640.911249,-0.63,-2.93,8.79,0.5288888888888889,0.048888888888888885,-0.7766666666666666,-1.0625,-2.9375,31.125
1589380640.921334,-0.65,-2.97,8.84,0.5288888888888889,0.048888888888888885,-0.7766666666666666,-1.0,-2.875,30.4375
1589380640.9354515,-0.6,-2.93,8.87,0.5288888888888889,0.048888888888888885,-0.7766666666666666,-1.0,-2.75,29.75
1589380640.9407215,-0.65,-2.94,8.95,0.4922222222222222,0.0033333333333333327,-0.7766666666666666,-0.8125,-2.4375,28.3125
1589380640.9515874,-0.62,-2.97,8.93,0.4922222222222222,0.0033333333333333327,-0.7766666666666666,-0.8125,-2.0625,26.9375
1589380640.9611757,-0.62,-2.99,8.89,0.4922222222222222,0.0033333333333333327,-0.7766666666666666,-0.875,-1.75,25.1875
1589380640.9716766,-0.65,-2.99,8.95,0.4922222222222222,0.0033333333333333327,-0.7766666666666666,-0.875,-1.5625,23.25
1589380640.983311,-0.68,-3.03,8.95,0.4922222222222222,0.0033333333333333327,-0.7766666666666666,-0.875,-1.375,21.8125
1589380640.994293,-0.65,-3.03,8.92,0.48,-0.031111111111111114,-0.7177777777777777,-1.125,-1.5625,20.4375
1589380641.0019743,-0.7,-3.05,8.94,0.48,-0.031111111111111114,-0.7177777777777777,-1.125,-1.625,18.875
1589380641.0120625,-0.71,-3.07,8.74,0.48,-0.031111111111111114,-0.7177777777777777,-1.25,-1.25,17.1875
1589380641.0252647,-0.67,-3.06,8.81,0.48,-0.031111111111111114,-0.7177777777777777,-1.1875,-1.0625,16.0
1589380641.0337667,-0.69,-3.09,8.83,0.48,-0.031111111111111114,-0.7177777777777777,-1.125,-0.75,14.1875
1589380641.0468378,-0.67,-3.1,8.96,0.4933333333333334,-0.048888888888888885,-0.7122222222222222,-1.1875,-0.625,12.25
1589380641.053125,-0.71,-3.12,8.96,0.4933333333333334,-0.048888888888888885,-0.7122222222222222,-1.25,-0.375,9.9375
1589380641.0654492,-0.72,-3.1,8.83,0.4933333333333334,-0.048888888888888885,-0.7122222222222222,-1.3125,-0.25,8.3125
1589380641.0717692,-0.7,-3.11,8.89,0.4933333333333334,-0.048888888888888885,-0.7122222222222222,-1.4375,-0.125,6.875
1589380641.0842106,-0.79,-3.09,8.9,0.4933333333333334,-0.048888888888888885,-0.7122222222222222,-1.5,-0.0625,5.6875
1589380641.0926757,-0.78,-3.15,8.93,0.5077777777777778,-0.05666666666666665,-0.6466666666666666,-1.375,-0.0625,4.75
1589380641.1021848,-0.81,-3.18,8.86,0.5077777777777778,-0.05666666666666665,-0.6466666666666666,-1.4375,0.375,4.375
1589380641.1124587,-0.82,-3.16,8.79,0.5077777777777778,-0.05666666666666665,-0.6466666666666666,-1.3125,0.1875,4.25
1589380641.122593,-0.78,-3.16,8.83,0.5077777777777778,-0.05666666666666665,-0.6466666666666666,-1.25,0.5625,4.0625
1589380641.134295,-0.81,-3.16,8.86,0.5077777777777778,-0.05666666666666665,-0.6466666666666666,-1.25,0.3125,3.9375
1589380641.1453831,-0.81,-3.16,8.91,0.5244444444444445,-0.017777777777777778,-0.6555555555555556,-1.3125,0.1875,4.0
1589380641.1521025,-0.8,-3.16,8.88,0.5244444444444445,-0.017777777777777778,-0.6555555555555556,-1.125,-0.125,3.8125
1589380641.1641126,-0.78,-3.15,8.85,0.5244444444444445,-0.017777777777777778,-0.6555555555555556,-1.1875,0.0,3.5625
1589380641.1764367,-0.78,-3.14,8.88,0.5244444444444445,-0.017777777777777778,-0.6555555555555556,-1.0625,-0.375,3.4375
1589380641.1838338,-0.77,-3.12,8.89,0.5244444444444445,-0.017777777777777778,-0.6555555555555556,-0.9375,-0.5,3.25
1589380641.191283,-0.85,-3.26,8.97,0.5366666666666666,0.027777777777777776,-0.6322222222222222,-0.9375,-0.4375,3.125
1589380641.203391,-0.77,-3.13,8.88,0.5366666666666666,0.027777777777777776,-0.6322222222222222,-0.5625,-0.25,2.8125
1589380641.2129624,-0.71,-3.11,8.79,0.5366666666666666,0.027777777777777776,-0.6322222222222222,-0.6875,-0.4375,2.3125
1589380641.2245905,-0.73,-3.15,8.87,0.5366666666666666,0.027777777777777776,-0.6322222222222222,-0.5,-0.0625,1.0
1589380641.2350705,-0.71,-3.18,8.91,0.5366666666666666,0.027777777777777776,-0.6322222222222222,-0.4375,0.0,-0.1875
1589380641.2419975,-0.78,-3.21,8.89,0.5933333333333334,0.09555555555555556,-0.6555555555555556,-0.375,0.0,-1.625
1589380641.257072,-0.75,-3.21,9.0,0.5933333333333334,0.09555555555555556,-0.6555555555555556,-0.5,-0.25,-3.4375
1589380641.263103,-0.75,-3.14,8.81,0.5933333333333334,0.09555555555555556,-0.6555555555555556,-0.125,0.0,-4.625
1589380641.277121,-0.69,-3.15,8.86,0.5933333333333334,0.09555555555555556,-0.6555555555555556,0.0,0.0,-6.1875
1589380641.2848473,-0.71,-3.13,8.89,0.5933333333333334,0.09555555555555556,-0.6555555555555556,-0.125,0.125,-7.625
1589380641.2961853,-0.76,-3.17,8.89,0.68,0.2344444444444445,-0.8711111111111111,0.0625,0.375,-9.25
1589380641.3030484,-0.76,-3.18,8.89,0.68,0.2344444444444445,-0.8711111111111111,0.0625,0.5625,-10.625
1589380641.3130686,-0.76,-3.15,8.79,0.68,0.2344444444444445,-0.8711111111111111,0.375,1.0,-12.0
1589380641.3235238,-0.74,-3.19,8.87,0.68,0.2344444444444445,-0.8711111111111111,0.375,0.8125,-12.875
1589380641.335069,-0.79,-3.19,8.89,0.68,0.2344444444444445,-0.8711111111111111,0.4375,1.125,-14.125
1589380641.343188,-0.81,-3.26,8.96,0.5788888888888889,-0.17333333333333334,-0.9288888888888888,0.5625,1.1875,-15.0625
1589380641.35527,-0.8,-3.25,8.92,0.5788888888888889,-0.17333333333333334,-0.9288888888888888,0.5,1.0625,-15.5625
1589380641.3635564,-0.78,-3.19,8.82,0.5788888888888889,-0.17333333333333334,-0.9288888888888888,0.5625,0.9375,-15.9375
1589380641.3755596,-0.82,-3.27,8.85,0.5788888888888889,-0.17333333333333334,-0.9288888888888888,0.4375,1.1875,-16.375
1589380641.3860588,-0.84,-3.27,8.9,0.5788888888888889,-0.17333333333333334,-0.9288888888888888,0.375,1.25,-16.5
1589380641.3923216,-0.85,-3.29,8.91,0.5277777777777778,-0.07444444444444444,-0.67,0.5,1.375,-16.1875
1589380641.3979518,-0.85,-3.29,8.91,0.5277777777777778,-0.07444444444444444,-0.67,0.5,1.375,-16.1875
1589380641.408122,-0.75,-3.2,8.89,0.5277777777777778,-0.07444444444444444,-0.67,0.6875,1.4375,-16.0
1589380641.4141462,-0.85,-3.27,8.82,0.5277777777777778,-0.07444444444444444,-0.67,0.625,1.5625,-16.3125
1589380641.4285972,-0.71,-3.22,8.86,0.5277777777777778,-0.07444444444444444,-0.67,0.875,1.875,-16.3125
1589380641.4364545,-0.79,-3.26,8.88,0.5277777777777778,-0.07444444444444444,-0.67,0.75,1.5625,-16.375
1589380641.4467955,-0.81,-3.15,8.8,0.5333333333333333,0.031111111111111114,-0.6411111111111111,0.875,1.5625,-16.625
1589380641.4535086,-0.78,-3.21,8.94,0.5333333333333333,0.031111111111111114,-0.6411111111111111,0.625,1.375,-15.5
1589380641.4638386,-0.82,-3.26,8.84,0.5333333333333333,0.031111111111111114,-0.6411111111111111,0.5,0.875,-13.625
1589380641.473494,-0.78,-3.28,8.88,0.5333333333333333,0.031111111111111114,-0.6411111111111111,0.5,0.875,-12.0625
1589380641.4887352,-0.81,-3.36,8.85,0.5333333333333333,0.031111111111111114,-0.6411111111111111,0.5,0.6875,-10.4375
1589380641.4946272,-0.87,-3.44,8.92,0.5133333333333333,0.06555555555555556,-0.6111111111111112,0.625,0.75,-8.75
1589380641.5053635,-0.85,-3.39,8.93,0.5133333333333333,0.06555555555555556,-0.6111111111111112,0.625,0.5,-6.25
1589380641.5137994,-0.9,-3.41,8.84,0.5133333333333333,0.06555555555555556,-0.6111111111111112,0.5,0.25,-3.125
1589380641.5235016,-0.84,-3.37,8.88,0.5133333333333333,0.06555555555555556,-0.6111111111111112,0.4375,0.0,0.5625
1589380641.5382981,-0.76,-3.24,8.89,0.5133333333333333,0.06555555555555556,-0.6111111111111112,0.4375,-0.375,4.5
1589380641.5436964,-0.74,-3.29,8.93,0.5488888888888889,0.08444444444444445,-0.6133333333333333,0.25,-0.8125,8.0625
1589380641.5585885,-0.74,-3.33,8.87,0.5488888888888889,0.08444444444444445,-0.6133333333333333,0.25,-1.25,11.125
1589380641.5649502,-0.71,-3.37,8.8,0.5488888888888889,0.08444444444444445,-0.6133333333333333,0.625,-1.25,13.375
1589380641.5792735,-0.71,-3.34,8.84,0.5488888888888889,0.08444444444444445,-0.6133333333333333,0.5,-1.5,15.375
1589380641.5862064,-0.65,-3.37,8.91,0.5488888888888889,0.08444444444444445,-0.6133333333333333,0.5625,-1.5625,16.8125
1589380641.5982206,-0.72,-3.56,8.81,0.5422222222222223,0.1111111111111111,-0.6222222222222222,0.5,-1.625,17.8125
1589380641.6037655,-0.62,-3.44,9.05,0.5422222222222223,0.1111111111111111,-0.6222222222222222,0.75,-1.4375,18.25
1589380641.6151679,-0.55,-3.34,8.82,0.5422222222222223,0.1111111111111111,-0.6222222222222222,0.3125,-1.9375,17.9375
1589380641.624603,-0.57,-3.39,8.87,0.5422222222222223,0.1111111111111111,-0.6222222222222222,0.3125,-1.8125,16.8125
1589380641.6364625,-0.47,-3.33,8.92,0.5422222222222223,0.1111111111111111,-0.6222222222222222,0.4375,-1.6875,14.8125
1589380641.6441474,-0.57,-3.37,8.92,0.5733333333333334,0.10222222222222224,-0.6355555555555555,0.5,-1.375,12.625
1589380641.6542187,-0.48,-3.36,8.86,0.5733333333333334,0.10222222222222224,-0.6355555555555555,0.5,-0.875,9.875
1589380641.6642988,-0.55,-3.39,8.83,0.5733333333333334,0.10222222222222224,-0.6355555555555555,0.5,-0.75,7.375
1589380641.6759927,-0.5,-3.35,8.86,0.5733333333333334,0.10222222222222224,-0.6355555555555555,0.375,-0.3125,3.8125
1589380641.686707,-0.49,-3.27,8.93,0.5733333333333334,0.10222222222222224,-0.6355555555555555,0.5625,-0.3125,-0.6875
1589380641.694442,-0.51,-3.28,8.96,0.6144444444444445,0.11555555555555555,-0.6433333333333333,0.6875,0.875,-9.8125
1589380641.7049086,-0.51,-3.24,8.93,0.6144444444444445,0.11555555555555555,-0.6433333333333333,0.6875,0.875,-9.8125
1589380641.7154455,-0.52,-3.24,8.87,0.6144444444444445,0.11555555555555555,-0.6433333333333333,0.9375,2.0,-19.75
1589380641.7250485,-0.5,-3.1,8.89,0.6144444444444445,0.11555555555555555,-0.6433333333333333,1.0,2.25,-24.75
1589380641.736775,-0.5,-3.09,8.93,0.6144444444444445,0.11555555555555555,-0.6433333333333333,1.0,2.75,-29.8125
1589380641.7466311,-0.63,-3.07,8.77,0.6844444444444444,0.15555555555555556,-0.6711111111111111,1.125,3.3125,-33.3125
1589380641.75472,-0.29,-3.3,9.14,0.6844444444444444,0.15555555555555556,-0.6711111111111111,1.25,3.4375,-39.75
1589380641.7680182,-0.47,-3.47,8.62,0.6844444444444444,0.15555555555555556,-0.6711111111111111,1.875,5.3125,-42.0
1589380641.7746973,-0.18,-3.53,8.97,0.6844444444444444,0.15555555555555556,-0.6711111111111111,1.0625,3.875,-45.8125
1589380641.7905016,-0.55,-3.6,8.89,0.6844444444444444,0.15555555555555556,-0.6711111111111111,1.5625,4.9375,-52.8125
1589380641.7965696,-0.6,-3.45,8.82,1.0877777777777775,0.3411111111111111,-0.8355555555555556,1.1875,4.75,-54.625
1589380641.8048134,-0.76,-3.5,8.89,1.0877777777777775,0.3411111111111111,-0.8355555555555556,1.5,5.5,-56.9375
1589380641.8144007,-0.88,-3.56,8.73,1.0877777777777775,0.3411111111111111,-0.8355555555555556,1.5625,5.5,-55.125
1589380641.824949,-0.7,-3.45,8.9,1.0877777777777775,0.3411111111111111,-0.8355555555555556,1.0625,4.5625,-51.0625
1589380641.836374,-0.71,-3.48,8.69,1.0877777777777775,0.3411111111111111,-0.8355555555555556,1.3125,4.6875,-48.625
1589380641.8453553,-0.68,-3.48,8.92,1.4355555555555557,-0.5488888888888889,-1.6422222222222222,0.875,4.4375,-45.375
1589380641.8550732,-0.56,-3.3,8.99,1.4355555555555557,-0.5488888888888889,-1.6422222222222222,1.0625,3.8125,-42.5625
1589380641.8656163,-0.6,-3.26,8.83,1.4355555555555557,-0.5488888888888889,-1.6422222222222222,1.125,3.9375,-40.75
1589380641.8751688,-0.6,-3.16,8.91,1.4355555555555557,-0.5488888888888889,-1.6422222222222222,1.125,3.8125,-39.0625
1589380641.8864946,-0.61,-3.17,8.97,1.4355555555555557,-0.5488888888888889,-1.6422222222222222,1.125,3.5,-36.9375
1589380641.8940198,-0.58,-3.17,8.92,0.6977777777777778,-0.0811111111111111,-0.7266666666666667,1.25,3.5,-34.5
1589380641.9055939,-0.47,-3.04,8.85,0.6977777777777778,-0.0811111111111111,-0.7266666666666667,1.25,3.1875,-32.5
1589380641.9198885,-0.46,-3.04,8.85,0.6977777777777778,-0.0811111111111111,-0.7266666666666667,1.1875,2.8125,-31.1875
1589380641.9260323,-0.59,-3.16,8.8,0.6977777777777778,-0.0811111111111111,-0.7266666666666667,1.3125,3.375,-30.1875
1589380641.9378054,-0.63,-3.12,8.91,0.6977777777777778,-0.0811111111111111,-0.7266666666666667,1.0625,2.75,-26.6875
1589380641.9455178,-0.67,-3.12,8.92,0.5911111111111111,0.1288888888888889,-0.6622222222222223,0.875,2.125,-21.75
1589380641.9555938,-0.73,-3.15,8.93,0.5911111111111111,0.1288888888888889,-0.6622222222222223,0.625,1.5,-15.6875
1589380641.9658391,-0.68,-3.14,8.84,0.5911111111111111,0.1288888888888889,-0.6622222222222223,0.4375,1.125,-8.5
1589380641.97647,-0.73,-3.15,8.84,0.5911111111111111,0.1288888888888889,-0.6622222222222223,0.25,0.25,-1.625
1589380641.9877114,-0.81,-3.15,8.94,0.5911111111111111,0.1288888888888889,-0.6622222222222223,0.0,-0.375,7.0
1589380641.9978695,-0.78,-3.07,8.99,0.5755555555555556,0.1955555555555556,-0.6933333333333334,-0.1875,-1.5625,16.0625
1589380642.0059645,-0.81,-3.12,8.96,0.5755555555555556,0.1955555555555556,-0.6933333333333334,-0.1875,-1.9375,24.5625
1589380642.0167305,-0.81,-3.26,8.78,0.5755555555555556,0.1955555555555556,-0.6933333333333334,-0.5,-2.8125,34.0
1589380642.0266886,-0.71,-3.16,8.89,0.5755555555555556,0.1955555555555556,-0.6933333333333334,-0.75,-3.875,43.75
1589380642.038191,-0.65,-3.16,8.89,0.5755555555555556,0.1955555555555556,-0.6933333333333334,-0.8125,-4.6875,51.625
1589380642.0456011,-0.54,-3.28,8.96,0.5822222222222222,0.16333333333333333,-0.6766666666666666,-0.9375,-5.125,57.25
1589380642.0554702,-0.38,-3.47,8.89,0.5822222222222222,0.16333333333333333,-0.6766666666666666,-1.0,-5.3125,60.4375
1589380642.0697224,-0.36,-3.42,8.79,0.5822222222222222,0.16333333333333333,-0.6766666666666666,-1.0625,-5.5,61.6875
1589380642.0757565,-0.3,-3.59,9.11,0.5822222222222222,0.16333333333333333,-0.6766666666666666,-0.5,-5.9375,60.75
1589380642.0929859,-0.35,-3.94,7.84,0.5822222222222222,0.16333333333333333,-0.6766666666666666,-0.1875,-4.0625,58.3125
1589380642.099147,-2.44,-8.1,8.0,0.51,0.16333333333333333,-0.6488888888888888,-0.5,-3.3125,54.625
1589380642.105803,-18.77,-15.15,1.21,0.51,0.16333333333333333,-0.6488888888888888,-55.8125,34.0,-140.6875
1589380642.1174805,7.78,12.27,3.24,0.51,0.16333333333333333,-0.6488888888888888,-94.0,41.375,-368.4375
1589380642.1294966,-0.05,-3.45,14.01,0.51,0.16333333333333333,-0.6488888888888888,-80.125,13.875,-395.0
1589380642.1458404,-3.02,-2.88,9.27,0.5166666666666667,0.20444444444444448,-0.62,141.625,98.5625,-320.4375
1589380642.1590238,-3.39,0.9,3.01,0.5166666666666667,0.20444444444444448,-0.62,132.125,-24.75,-293.0625
1589380642.1697948,-0.02,-0.69,4.69,0.5166666666666667,0.20444444444444448,-0.62,-20.8125,-9.8125,-271.1875
1589380642.1765912,-1.57,-0.4,11.49,0.5166666666666667,0.20444444444444448,-0.62,6.6875,27.375,-256.1875
1589380642.187601,-1.33,0.16,8.46,0.5166666666666667,0.20444444444444448,-0.62,13.625,31.625,-224.0
1589380642.195691,-0.53,-0.09,10.08,0.4777777777777778,0.31555555555555553,-0.6288888888888889,2.625,14.875,-197.8125
1589380642.2062054,-0.75,0.25,8.87,0.4777777777777778,0.31555555555555553,-0.6288888888888889,5.0,17.0625,-171.4375
1589380642.2208035,-0.17,-0.11,9.32,0.4777777777777778,0.31555555555555553,-0.6288888888888889,2.1875,12.125,-137.25
1589380642.2266355,0.36,-0.5,9.01,0.4777777777777778,0.31555555555555553,-0.6288888888888889,1.9375,9.0,-105.5625
1589380642.2427466,0.67,-1.55,9.22,0.4777777777777778,0.31555555555555553,-0.6288888888888889,0.9375,7.125,-80.5625
1589380642.248703,0.41,-1.87,8.89,0.4122222222222222,0.37777777777777777,-0.6055555555555555,1.5,5.875,-56.9375
1589380642.2565112,0.13,-2.17,9.21,0.4122222222222222,0.37777777777777777,-0.6055555555555555,1.0,3.8125,-31.75
1589380642.268593,0.27,-2.47,8.82,0.4122222222222222,0.37777777777777777,-0.6055555555555555,0.125,0.375,-4.8125
1589380642.2811356,0.33,-2.54,9.16,0.4122222222222222,0.37777777777777777,-0.6055555555555555,-1.1875,-2.125,17.1875
1589380642.2882414,0.54,-2.64,8.89,0.4122222222222222,0.37777777777777777,-0.6055555555555555,-0.0625,-2.8125,31.9375
1589380642.3006318,0.76,-2.67,8.82,0.37333333333333335,0.4155555555555556,-0.6111111111111112,-0.875,-3.8125,39.3125
1589380642.306823,0.89,-2.85,9.03,0.37333333333333335,0.4155555555555556,-0.6111111111111112,-0.5625,-4.0625,41.0
1589380642.321866,0.76,-2.93,8.83,0.37333333333333335,0.4155555555555556,-0.6111111111111112,-1.0625,-4.0625,39.6875
1589380642.327738,0.63,-2.92,8.87,0.37333333333333335,0.4155555555555556,-0.6111111111111112,-1.25,-4.1875,39.9375
1589380642.3385336,0.63,-3.05,8.96,0.37333333333333335,0.4155555555555556,-0.6111111111111112,-0.9375,-4.0,42.875
1589380642.3458436,0.62,-3.04,8.7,0.4122222222222222,0.4244444444444445,-0.6111111111111112,-0.0625,-3.5,44.5
1589380642.3575218,0.62,-3.04,8.7,0.4122222222222222,0.4244444444444445,-0.6111111111111112,-0.0625,-3.5,44.5
1589380642.3667345,2.33,-13.54,10.31,0.4122222222222222,0.4244444444444445,-0.6111111111111112,2.125,-3.25,51.875
1589380642.3772068,1.7,-1.28,9.07,0.4122222222222222,0.4244444444444445,-0.6111111111111112,9.5625,3.0,114.3125
1589380642.3946874,0.95,-3.45,9.97,0.4122222222222222,0.4244444444444445,-0.6111111111111112,-8.0625,-24.1875,135.25
1589380642.400239,0.1,-5.27,8.43,0.4066666666666667,0.4211111111111111,-0.62,-2.0,-8.6875,128.125
1589380642.4076445,1.34,-3.72,8.87,0.4066666666666667,0.4211111111111111,-0.62,-3.125,-13.875,130.4375
1589380642.4175355,0.56,-3.8,8.79,0.4066666666666667,0.4211111111111111,-0.62,-2.9375,-10.5625,124.4375
