time,acc_x,acc_y,acc_z,mag_x,mag_y,mag_z,gyr_x,gyr_y,gyr_z
1589478856.5574312,-0.72,-4.25,8.82,0.54,0.18444444444444444,-0.6111111111111112,0.5,-0.5,2.9375
1589478856.5666769,-0.7,-4.26,8.88,0.5344444444444445,0.18444444444444444,-0.6255555555555555,0.375,-0.1875,3.125
1589478856.572982,-0.74,-4.3,8.86,0.5344444444444445,0.18444444444444444,-0.6255555555555555,0.1875,-0.0625,3.25
1589478856.5882654,-0.71,-4.24,8.78,0.5344444444444445,0.18444444444444444,-0.6255555555555555,0.1875,-0.1875,3.25
1589478856.5951188,-0.7,-4.27,8.77,0.5344444444444445,0.18444444444444444,-0.6255555555555555,0.25,-0.375,3.0625
1589478856.6086404,-0.7,-4.24,8.78,0.5344444444444445,0.18444444444444444,-0.6255555555555555,0.4375,-0.8125,2.625
1589478856.6154635,-0.62,-4.17,8.8,0.5277777777777778,0.1988888888888889,-0.6255555555555555,0.6875,-0.875,2.1875
1589478856.624174,-0.64,-4.18,8.79,0.5277777777777778,0.1988888888888889,-0.6255555555555555,0.5625,-0.8125,1.3125
1589478856.6331284,-0.63,-4.13,8.67,0.5277777777777778,0.1988888888888889,-0.6255555555555555,0.375,-0.3125,0.625
1589478856.6467779,-0.64,-4.15,8.73,0.5277777777777778,0.1988888888888889,-0.6255555555555555,-0.0625,0.5625,0.4375
1589478856.6561255,-0.7,-4.16,8.83,0.5277777777777778,0.1988888888888889,-0.6255555555555555,-0.25,1.125,0.625
1589478856.6664946,-0.7,-4.18,8.9,0.5277777777777778,0.19111111111111112,-0.6177777777777778,-0.125,0.625,0.875
1589478856.673059,-0.69,-4.17,8.86,0.5277777777777778,0.19111111111111112,-0.6177777777777778,0.25,0.3125,0.875
1589478856.6830347,-0.69,-4.16,8.75,0.5277777777777778,0.19111111111111112,-0.6177777777777778,0.5625,-0.5,0.75
1589478856.69299,-0.66,-4.16,8.77,0.5277777777777778,0.19111111111111112,-0.6177777777777778,0.4375,-1.125,0.1875
1589478856.7050755,-0.65,-4.16,8.78,0.5277777777777778,0.19111111111111112,-0.6177777777777778,0.8125,-1.5,-0.125
1589478856.7133598,-0.64,-4.14,8.79,0.5344444444444445,0.18444444444444444,-0.64,0.6875,-1.4375,-0.125
1589478856.7257981,-0.67,-4.16,8.83,0.5344444444444445,0.18444444444444444,-0.64,0.25,-1.0625,0.0625
1589478856.7335904,-0.63,-4.15,8.74,0.5344444444444445,0.18444444444444444,-0.64,0.25,-0.4375,0.0
1589478856.7450402,-0.67,-4.15,8.79,0.5344444444444445,0.18444444444444444,-0.64,-0.3125,0.3125,0.0625
1589478856.7595098,-0.68,-4.15,8.84,0.5344444444444445,0.18444444444444444,-0.64,-0.5,0.5625,-0.0625
1589478856.7658448,-0.69,-4.15,8.88,0.5344444444444445,0.17222222222222222,-0.64,-0.6875,0.25,0.0625
1589478856.7782106,-0.67,-4.17,8.88,0.5344444444444445,0.17222222222222222,-0.64,-0.75,0.125,-0.0625
1589478856.7845175,-0.63,-4.16,8.76,0.5344444444444445,0.17222222222222222,-0.64,-0.6875,0.125,-0.125
1589478856.7976642,-0.62,-4.13,8.8,0.5344444444444445,0.17222222222222222,-0.64,-0.6875,0.0625,-0.25
1589478856.8063426,-0.61,-4.17,8.84,0.5344444444444445,0.17222222222222222,-0.64,-0.5625,0.125,-0.625
1589478856.8172412,-0.69,-4.16,8.77,0.5544444444444444,0.1988888888888889,-0.6177777777777778,-0.375,0.125,-0.875
1589478856.8236086,-0.72,-4.18,8.77,0.5544444444444444,0.1988888888888889,-0.6177777777777778,-0.0625,-0.0625,-1.0625
1589478856.834179,-0.72,-4.16,8.72,0.5544444444444444,0.1988888888888889,-0.6177777777777778,0.1875,-0.5625,-0.8125
1589478856.8438685,-0.67,-4.17,8.74,0.5544444444444444,0.1988888888888889,-0.6177777777777778,0.3125,-0.9375,-0.875
1589478856.8577707,-0.64,-4.17,8.8,0.5544444444444444,0.1988888888888889,-0.6177777777777778,0.1875,-0.5,-0.5625
1589478856.864007,-0.65,-4.17,8.87,0.56,0.1988888888888889,-0.6255555555555555,0.0,0.0,-0.6875
1589478856.8760865,-0.65,-4.16,8.89,0.56,0.1988888888888889,-0.6255555555555555,0.125,0.0625,-0.75
1589478856.8845382,-0.69,-4.15,8.76,0.56,0.1988888888888889,-0.6255555555555555,0.125,0.0,-0.75
1589478856.8964653,-0.7,-4.17,8.84,0.56,0.1988888888888889,-0.6255555555555555,0.3125,-0.0625,-0.6875
1589478856.9116259,-0.67,-4.17,8.85,0.56,0.1988888888888889,-0.6255555555555555,0.125,-0.0625,-0.5
1589478856.9176912,-0.65,-4.18,8.85,0.5277777777777778,0.19111111111111112,-0.6111111111111112,0.0625,-0.125,-0.25
1589478856.9272766,-0.63,-4.14,8.76,0.5277777777777778,0.19111111111111112,-0.6111111111111112,0.1875,-0.375,-0.25
1589478856.934233,-0.64,-4.17,8.67,0.5277777777777778,0.19111111111111112,-0.6111111111111112,0.25,-0.375,0.0
1589478856.9491956,-0.65,-4.16,8.68,0.5277777777777778,0.19111111111111112,-0.6111111111111112,0.25,-0.4375,0.0
1589478856.9567478,-0.67,-4.14,8.79,0.5277777777777778,0.19111111111111112,-0.6111111111111112,0.125,-0.0625,0.0625
1589478856.964329,-0.66,-4.17,8.84,0.5466666666666666,0.19111111111111112,-0.6322222222222222,-0.125,-0.1875,0.0
1589478856.9756095,-0.63,-4.18,8.83,0.5466666666666666,0.19111111111111112,-0.6322222222222222,0.125,-0.3125,0.0
1589478856.988189,-0.63,-4.15,8.74,0.5466666666666666,0.19111111111111112,-0.6322222222222222,0.25,0.0625,-0.0625
1589478856.9941952,-0.66,-4.15,8.83,0.5466666666666666,0.19111111111111112,-0.6322222222222222,0.0625,0.375,0.0
1589478857.009522,-0.68,-4.17,8.88,0.5466666666666666,0.19111111111111112,-0.6322222222222222,0.25,0.375,0.125
1589478857.0162132,-0.66,-4.15,8.88,0.5344444444444445,0.17888888888888888,-0.6322222222222222,0.375,0.125,0.0625
1589478857.0276895,-0.64,-4.14,8.8,0.5344444444444445,0.17888888888888888,-0.6322222222222222,0.1875,-0.0625,0.0
1589478857.0348248,-0.66,-4.17,8.69,0.5344444444444445,0.17888888888888888,-0.6322222222222222,0.0625,0.0,0.0
1589478857.0446794,-0.65,-4.15,8.7,0.5344444444444445,0.17888888888888888,-0.6322222222222222,-0.25,0.0,0.0
1589478857.063458,-0.65,-4.15,8.76,0.5344444444444445,0.17888888888888888,-0.6322222222222222,-0.1875,-0.25,0.125
1589478857.0695765,-0.63,-4.21,8.69,0.54,0.19111111111111112,-0.64,-0.5,-0.5,0.0625
1589478857.0760455,-0.59,-4.18,9.1,0.54,0.19111111111111112,-0.64,-0.6875,-0.5,0.0
1589478857.085305,-0.8,-4.16,8.72,0.54,0.19111111111111112,-0.64,0.375,0.4375,0.0
1589478857.1013255,-0.7,-4.13,8.72,0.54,0.19111111111111112,-0.64,0.5,-0.5625,0.125
1589478857.107694,-0.69,-4.21,8.99,0.54,0.19111111111111112,-0.64,0.125,0.5625,0.0625
1589478857.1203885,-0.6,-4.15,8.84,0.5422222222222223,0.18444444444444444,-0.64,-0.0625,-0.1875,0.0
1589478857.1269438,-0.67,-4.12,8.78,0.5422222222222223,0.18444444444444444,-0.64,-0.1875,0.375,0.125
1589478857.137284,-0.65,-4.16,8.77,0.5422222222222223,0.18444444444444444,-0.64,-0.5625,0.1875,0.0
1589478857.1450884,-0.63,-4.17,8.78,0.5422222222222223,0.18444444444444444,-0.64,-0.25,0.0,0.0625
1589478857.1590972,-0.64,-4.19,8.81,0.5422222222222223,0.18444444444444444,-0.64,0.0625,-0.1875,-0.125
1589478857.1660767,-0.66,-4.19,8.82,0.54,0.17888888888888888,-0.6255555555555555,0.1875,-0.1875,0.0
1589478857.179814,-0.69,-4.16,8.8,0.54,0.17888888888888888,-0.6255555555555555,0.4375,-0.3125,-0.0625
1589478857.1858196,-0.64,-4.16,8.71,0.54,0.17888888888888888,-0.6255555555555555,0.5,-0.25,0.0
1589478857.1960347,-0.63,-4.17,8.76,0.54,0.17888888888888888,-0.6255555555555555,0.5625,-0.0625,0.0625
1589478857.2139945,-0.66,-4.16,8.83,0.54,0.17888888888888888,-0.6255555555555555,0.5625,0.1875,0.0625
1589478857.2204356,-0.66,-4.15,8.84,0.5344444444444445,0.18444444444444444,-0.6255555555555555,0.3125,-0.0625,0.125
1589478857.226929,-0.65,-4.14,8.84,0.5344444444444445,0.18444444444444444,-0.6255555555555555,0.1875,-0.25,-0.0625
1589478857.2360456,-0.68,-4.17,8.8,0.5344444444444445,0.18444444444444444,-0.6255555555555555,-0.125,-0.4375,0.0
1589478857.2498908,-0.65,-4.18,8.85,0.5344444444444445,0.18444444444444444,-0.6255555555555555,0.0625,-0.75,-0.0625
1589478857.2585616,-0.65,-4.13,8.81,0.5344444444444445,0.18444444444444444,-0.6255555555555555,0.375,-1.1875,0.125
1589478857.2713275,-0.64,-4.15,8.87,0.5544444444444444,0.18444444444444444,-0.6322222222222222,-0.3125,-1.1875,-0.125
1589478857.277441,-0.63,-4.16,8.78,0.5544444444444444,0.18444444444444444,-0.6322222222222222,-0.625,-1.25,-0.0625
1589478857.2852685,-0.63,-3.87,8.15,0.5544444444444444,0.18444444444444444,-0.6322222222222222,-0.625,-0.875,-0.25
1589478857.2962954,-0.48,-3.86,8.83,0.5544444444444444,0.18444444444444444,-0.6322222222222222,-4.25,0.9375,-0.4375
1589478857.3085794,-0.84,-4.16,9.36,0.5544444444444444,0.18444444444444444,-0.6322222222222222,-3.8125,3.875,-1.625
1589478857.3157663,-0.78,-4.12,8.67,0.5466666666666666,0.18444444444444444,-0.64,-1.3125,0.625,-1.5
1589478857.327688,-0.68,-4.17,8.79,0.5466666666666666,0.18444444444444444,-0.64,-0.875,1.0,0.75
1589478857.3351214,-0.62,-4.09,8.69,0.5466666666666666,0.18444444444444444,-0.64,-1.25,0.8125,1.4375
1589478857.3406045,-0.62,-4.09,8.69,0.5466666666666666,0.18444444444444444,-0.64,-1.25,0.8125,1.4375
1589478857.351042,-0.5,-3.76,8.65,0.5466666666666666,0.18444444444444444,-0.64,-2.6875,1.6875,1.25
1589478857.3574402,-0.29,-3.52,8.87,0.5466666666666666,0.18444444444444444,-0.64,-5.4375,2.75,0.1875
1589478857.3682606,-0.46,-2.3,9.27,0.5422222222222223,0.18444444444444444,-0.6322222222222222,-8.625,4.875,-3.375
1589478857.3756318,-0.73,-2.24,9.36,0.5422222222222223,0.18444444444444444,-0.6322222222222222,-4.4375,5.9375,1.375
1589478857.3867733,-0.7,-2.72,9.15,0.5422222222222223,0.18444444444444444,-0.6322222222222222,1.0625,-0.125,9.5
1589478857.3957975,-0.77,-2.67,8.65,0.5422222222222223,0.18444444444444444,-0.6322222222222222,-0.125,-1.25,15.5
1589478857.4075732,-0.75,-2.78,8.97,0.5422222222222223,0.18444444444444444,-0.6322222222222222,-1.875,-0.5625,21.5625
1589478857.4148636,-0.77,-2.96,8.85,0.5422222222222223,0.19111111111111112,-0.6255555555555555,-0.375,-1.5,27.625
1589478857.424933,-0.77,-2.96,8.85,0.5422222222222223,0.19111111111111112,-0.6255555555555555,-0.375,-1.5,27.625
1589478857.4306452,-0.77,-3.02,8.81,0.5422222222222223,0.19111111111111112,-0.6255555555555555,0.1875,-1.375,33.0625
1589478857.4368734,-0.77,-3.06,8.73,0.5422222222222223,0.19111111111111112,-0.6255555555555555,-0.8125,-2.1875,38.0
1589478857.447836,-0.75,-3.11,8.79,0.5422222222222223,0.19111111111111112,-0.6255555555555555,-0.75,-2.5,42.5625
1589478857.4597723,-0.8,-3.22,8.9,0.5422222222222223,0.19111111111111112,-0.6255555555555555,-0.625,-2.8125,46.3125
1589478857.4669847,-0.82,-3.29,8.93,0.5466666666666666,0.17888888888888888,-0.6177777777777778,-0.875,-3.0,49.8125
1589478857.4811766,-0.81,-3.27,8.9,0.5466666666666666,0.17888888888888888,-0.6177777777777778,-0.9375,-3.125,52.6875
1589478857.4869807,-0.79,-3.23,8.78,0.5466666666666666,0.17888888888888888,-0.6177777777777778,-0.6875,-3.125,55.125
1589478857.5006592,-0.94,-3.28,8.83,0.5466666666666666,0.17888888888888888,-0.6177777777777778,-0.8125,-3.3125,57.4375
1589478857.5093706,-0.96,-3.31,8.89,0.5466666666666666,0.17888888888888888,-0.6177777777777778,-0.9375,-3.375,60.4375
1589478857.520659,-0.99,-3.32,8.87,0.56,0.17222222222222222,-0.64,-0.6875,-3.25,64.0625
1589478857.5271225,-0.97,-3.27,8.74,0.56,0.17222222222222222,-0.64,-0.4375,-2.8125,67.5625
1589478857.5376005,-0.97,-3.14,8.62,0.56,0.17222222222222222,-0.64,-0.8125,-2.5625,70.5625
1589478857.547189,-1.02,-3.26,8.83,0.56,0.17222222222222222,-0.64,-1.125,-4.8125,72.875
1589478857.5606096,-1.12,-3.31,8.78,0.56,0.17222222222222222,-0.64,-0.6875,-4.1875,75.4375
1589478857.568073,-1.17,-3.17,8.97,0.5733333333333334,0.13777777777777778,-0.6322222222222222,-1.3125,-4.75,78.75
1589478857.5796313,-1.24,-3.22,8.75,0.5733333333333334,0.13777777777777778,-0.6322222222222222,-0.5625,-3.625,82.5
1589478857.5874286,-1.24,-3.23,8.99,0.5733333333333334,0.13777777777777778,-0.6322222222222222,-1.25,-5.5625,86.1875
1589478857.5974948,-1.19,-3.15,8.88,0.5733333333333334,0.13777777777777778,-0.6322222222222222,-1.625,-4.8125,89.8125
1589478857.6111975,-1.29,-3.23,8.91,0.5733333333333334,0.13777777777777778,-0.6322222222222222,-1.6875,-6.0625,92.5625
1589478857.619384,-1.34,-3.33,8.74,0.56,0.1111111111111111,-0.64,-0.4375,-5.5,95.6875
1589478857.6272893,-1.39,-3.44,9.02,0.56,0.1111111111111111,-0.64,-1.0,-6.75,98.25
1589478857.6387966,-1.4,-3.38,8.66,0.56,0.1111111111111111,-0.64,-1.875,-5.75,100.0625
1589478857.6517322,-1.45,-3.4,8.76,0.56,0.1111111111111111,-0.64,-1.1875,-5.625,100.9375
1589478857.6596744,-1.48,-3.47,8.86,0.56,0.1111111111111111,-0.64,-1.3125,-6.4375,101.25
1589478857.669724,-1.52,-3.47,8.88,0.5933333333333334,0.06555555555555556,-0.6755555555555556,-1.375,-6.25,100.6875
1589478857.6775033,-1.58,-3.43,8.86,0.5933333333333334,0.06555555555555556,-0.6755555555555556,-1.375,-5.875,98.6875
1589478857.6883914,-1.63,-3.41,8.8,0.5933333333333334,0.06555555555555556,-0.6755555555555556,-1.375,-5.8125,95.9375
1589478857.6982431,-1.66,-3.36,8.81,0.5933333333333334,0.06555555555555556,-0.6755555555555556,-1.3125,-5.5,93.875
1589478857.7092724,-1.81,-3.33,8.91,0.5933333333333334,0.06555555555555556,-0.6755555555555556,-1.0,-5.3125,92.5
1589478857.716766,-1.87,-3.31,8.9,0.5866666666666667,0.04777777777777778,-0.6677777777777778,-1.0625,-5.1875,91.75
1589478857.7294946,-1.93,-3.33,8.92,0.5866666666666667,0.04777777777777778,-0.6677777777777778,-1.25,-5.5,91.4375
1589478857.7372375,-1.93,-3.29,8.77,0.5866666666666667,0.04777777777777778,-0.6677777777777778,-1.25,-5.3125,91.3125
1589478857.7490196,-1.99,-3.24,8.82,0.5866666666666667,0.04777777777777778,-0.6677777777777778,-1.125,-5.4375,90.875
1589478857.7604015,-2.08,-3.25,8.85,0.5866666666666667,0.04777777777777778,-0.6677777777777778,-1.25,-5.5,90.5
1589478857.769826,-2.14,-3.29,8.87,0.5911111111111111,-0.01,-0.6755555555555556,-1.125,-5.5,90.5625
1589478857.7771356,-2.23,-3.24,8.85,0.5911111111111111,-0.01,-0.6755555555555556,-0.8125,-5.1875,91.25
1589478857.7884068,-2.28,-3.25,8.83,0.5911111111111111,-0.01,-0.6755555555555556,-1.0625,-5.4375,92.375
1589478857.7985172,-2.32,-3.24,8.84,0.5911111111111111,-0.01,-0.6755555555555556,-1.0625,-5.4375,93.25
1589478857.809456,-2.33,-3.21,8.92,0.5911111111111111,-0.01,-0.6755555555555556,-0.9375,-5.25,94.1875
1589478857.8200512,-2.31,-3.11,8.85,0.5911111111111111,-0.04444444444444445,-0.6888888888888889,-1.0625,-5.1875,94.6875
1589478857.8288355,-2.34,-3.14,8.91,0.5911111111111111,-0.04444444444444445,-0.6888888888888889,-1.125,-5.375,94.8125
1589478857.839257,-2.4,-3.09,8.76,0.5911111111111111,-0.04444444444444445,-0.6888888888888889,-1.1875,-5.0,94.5
1589478857.8487015,-2.45,-3.1,8.85,0.5911111111111111,-0.04444444444444445,-0.6888888888888889,-1.1875,-5.5625,93.9375
1589478857.8612552,-2.49,-3.09,8.87,0.5911111111111111,-0.04444444444444445,-0.6888888888888889,-1.1875,-5.25,93.375
1589478857.869491,-2.51,-3.07,8.93,0.59,-0.08666666666666667,-0.7177777777777777,-1.5,-5.5625,91.5625
1589478857.8790615,-2.51,-3.01,8.91,0.59,-0.08666666666666667,-0.7177777777777777,-1.25,-5.3125,89.0625
1589478857.889365,-2.62,-3.0,8.83,0.59,-0.08666666666666667,-0.7177777777777777,-0.9375,-4.875,86.125
1589478857.8988426,-2.52,-2.9,8.83,0.59,-0.08666666666666667,-0.7177777777777777,-1.0,-4.625,83.125
1589478857.9116402,-2.52,-2.84,8.92,0.59,-0.08666666666666667,-0.7177777777777777,-0.9375,-4.6875,79.4375
1589478857.919099,-2.66,-2.82,8.91,0.5777777777777777,-0.12,-0.7333333333333333,-0.875,-4.3125,75.75
1589478857.9283767,-2.67,-2.77,8.93,0.5777777777777777,-0.12,-0.7333333333333333,-0.8125,-3.625,72.375
1589478857.939484,-2.8,-2.78,8.87,0.5777777777777777,-0.12,-0.7333333333333333,-0.9375,-4.125,68.8125
1589478857.9492586,-2.83,-2.73,8.8,0.5777777777777777,-0.12,-0.7333333333333333,-0.875,-3.625,66.0
1589478857.961355,-2.69,-2.63,8.97,0.5777777777777777,-0.12,-0.7333333333333333,-0.8125,-3.9375,63.625
1589478857.9687605,-2.85,-2.65,9.02,0.5611111111111111,-0.14555555555555555,-0.7333333333333333,-1.0625,-3.875,61.125
1589478857.9790154,-2.89,-2.64,8.98,0.5611111111111111,-0.14555555555555555,-0.7333333333333333,-1.0,-2.75,58.5
1589478857.9935644,-2.69,-2.46,8.46,0.5611111111111111,-0.14555555555555555,-0.7333333333333333,-0.1875,-3.5625,56.625
1589478857.9999835,-2.77,-2.47,8.84,0.5611111111111111,-0.14555555555555555,-0.7333333333333333,-1.0,-2.5,54.5
1589478858.011507,-2.79,-2.48,9.02,0.5611111111111111,-0.14555555555555555,-0.7333333333333333,-0.8125,-2.4375,51.625
1589478858.0191345,-2.76,-2.43,8.78,0.54,-0.16444444444444445,-0.7622222222222222,-0.5625,-2.5,49.3125
1589478858.0335028,-2.91,-2.46,8.91,0.54,-0.16444444444444445,-0.7622222222222222,-0.75,-2.875,46.8125
1589478858.0400312,-2.98,-2.46,8.85,0.54,-0.16444444444444445,-0.7622222222222222,-0.8125,-2.1875,45.125
1589478858.0497766,-2.98,-2.42,8.91,0.54,-0.16444444444444445,-0.7622222222222222,-0.5625,-2.4375,44.25
1589478858.0616686,-3.05,-2.46,8.91,0.54,-0.16444444444444445,-0.7622222222222222,-0.8125,-2.3125,44.0
1589478858.0702586,-2.91,-2.35,9.03,0.5333333333333333,-0.17222222222222222,-0.8033333333333333,-1.0,-2.0,43.6875
1589478858.080428,-2.87,-2.32,8.82,0.5333333333333333,-0.17222222222222222,-0.8033333333333333,-0.6875,-2.375,42.5
1589478858.0917053,-2.94,-2.34,8.93,0.5333333333333333,-0.17222222222222222,-0.8033333333333333,-0.5,-1.6875,40.3125
1589478858.1004188,-2.96,-2.3,8.97,0.5333333333333333,-0.17222222222222222,-0.8033333333333333,-0.75,-1.6875,37.3125
1589478858.1121292,-3.15,-2.36,9.0,0.5333333333333333,-0.17222222222222222,-0.8033333333333333,-0.5625,-1.5,33.9375
1589478858.1203036,-2.99,-2.27,8.8,0.4922222222222222,-0.1988888888888889,-0.7822222222222223,-0.5625,-1.0,30.875
1589478858.1295948,-3.19,-2.38,9.06,0.4922222222222222,-0.1988888888888889,-0.7822222222222223,-0.5,-1.1875,28.125
1589478858.1437874,-3.15,-2.36,8.88,0.4922222222222222,-0.1988888888888889,-0.7822222222222223,-0.5,-1.125,24.5
1589478858.1504395,-3.11,-2.31,8.87,0.4922222222222222,-0.1988888888888889,-0.7822222222222223,-0.125,0.375,20.6875
1589478858.1627605,-2.94,-2.2,8.85,0.4922222222222222,-0.1988888888888889,-0.7822222222222223,-0.6875,-1.75,16.0625
1589478858.1693509,-3.08,-2.29,9.2,0.46,-0.21333333333333332,-0.7866666666666666,-0.6875,-0.4375,11.9375
1589478858.1759756,-3.08,-2.29,9.2,0.46,-0.21333333333333332,-0.7866666666666666,-0.6875,-0.4375,11.9375
1589478858.1864185,-2.98,-2.22,9.44,0.46,-0.21333333333333332,-0.7866666666666666,-0.125,1.0625,7.875
1589478858.1931276,-2.64,-2.0,8.27,0.46,-0.21333333333333332,-0.7866666666666666,-0.3125,-0.875,2.1875
1589478858.2046988,-2.89,-2.18,9.0,0.46,-0.21333333333333332,-0.7866666666666666,1.125,0.6875,-2.125
1589478858.2124262,-3.08,-2.22,8.88,0.46,-0.21333333333333332,-0.7866666666666666,-1.125,1.8125,-7.125
1589478858.224401,-3.14,-2.25,9.1,0.4511111111111111,-0.2611111111111111,-0.7744444444444445,-0.5,0.875,-10.8125
1589478858.230164,-2.8,-2.16,8.8,0.4511111111111111,-0.2611111111111111,-0.7744444444444445,0.125,2.1875,-14.125
1589478858.2430143,-2.95,-2.21,8.98,0.4511111111111111,-0.2611111111111111,-0.7744444444444445,0.0,2.25,-18.125
1589478858.250601,-3.28,-2.33,8.92,0.4511111111111111,-0.2611111111111111,-0.7744444444444445,0.25,3.5625,-22.6875
1589478858.2624936,-3.04,-2.27,8.84,0.4511111111111111,-0.2611111111111111,-0.7744444444444445,-0.0625,2.25,-26.25
1589478858.2704027,-2.96,-2.27,9.13,0.4655555555555556,-0.2822222222222222,-0.7677777777777778,0.0,2.375,-28.875
1589478858.280965,-2.85,-2.29,9.03,0.4655555555555556,-0.2822222222222222,-0.7677777777777778,0.5,2.125,-32.625
1589478858.294417,-3.0,-2.39,8.6,0.4655555555555556,-0.2822222222222222,-0.7677777777777778,-0.1875,2.75,-36.4375
1589478858.301502,-3.11,-2.45,9.06,0.4655555555555556,-0.2822222222222222,-0.7677777777777778,-0.0625,5.0,-40.4375
1589478858.3179655,-3.02,-2.44,8.89,0.4655555555555556,-0.2822222222222222,-0.7677777777777778,-0.8125,4.4375,-45.0625
1589478858.3244607,-2.9,-2.42,9.09,0.4544444444444444,-0.2677777777777778,-0.7733333333333333,0.875,2.5625,-52.9375
1589478858.3357122,-2.49,-2.33,8.64,0.4544444444444444,-0.2677777777777778,-0.7733333333333333,0.875,2.5625,-52.9375
1589478858.3422325,-2.64,-2.44,8.68,0.4544444444444444,-0.2677777777777778,-0.7733333333333333,-0.6875,7.875,-62.625
1589478858.355205,-2.51,-2.46,8.89,0.4544444444444444,-0.2677777777777778,-0.7733333333333333,-1.4375,4.4375,-69.375
1589478858.3619785,-2.84,-2.63,8.98,0.4544444444444444,-0.2677777777777778,-0.7733333333333333,0.5,5.75,-74.6875
1589478858.373791,-3.04,-2.78,8.99,0.42777777777777776,-0.29444444444444445,-0.7955555555555556,0.75,6.1875,-79.1875
1589478858.38036,-2.82,-2.75,8.93,0.42777777777777776,-0.29444444444444445,-0.7955555555555556,0.6875,6.625,-82.9375
1589478858.3940787,-2.42,-2.62,8.42,0.42777777777777776,-0.29444444444444445,-0.7955555555555556,1.75,7.9375,-87.25
1589478858.400759,-2.6,-2.6,8.64,0.42777777777777776,-0.29444444444444445,-0.7955555555555556,0.125,5.4375,-91.9375
1589478858.4123886,-2.48,-2.69,9.21,0.42777777777777776,-0.29444444444444445,-0.7955555555555556,-0.75,1.25,-95.125
1589478858.4199915,-2.73,-2.93,9.07,0.42777777777777776,-0.29444444444444445,-0.7155555555555555,1.625,8.4375,-96.4375
1589478858.4309812,-2.9,-3.13,9.18,0.42777777777777776,-0.29444444444444445,-0.7155555555555555,-0.25,3.1875,-99.6875
1589478858.4406054,-2.81,-3.04,8.81,0.42777777777777776,-0.29444444444444445,-0.7155555555555555,1.5,6.6875,-99.625
1589478858.4529321,-2.86,-3.15,8.68,0.42777777777777776,-0.29444444444444445,-0.7155555555555555,1.125,5.75,-99.5625
1589478858.4686818,-2.7,-3.11,8.8,0.42777777777777776,-0.29444444444444445,-0.7155555555555555,0.75,5.4375,-99.625
1589478858.47405,-2.67,-3.2,8.91,0.4633333333333333,-0.2611111111111111,-0.6733333333333333,1.0625,5.625,-99.5625
1589478858.4816089,-2.71,-3.3,8.92,0.4633333333333333,-0.2611111111111111,-0.6733333333333333,1.0,6.0,-99.6875
1589478858.4942935,-2.64,-3.26,8.8,0.4633333333333333,-0.2611111111111111,-0.6733333333333333,0.8125,5.6875,-99.5
1589478858.5071304,-2.73,-3.44,8.86,0.4633333333333333,-0.2611111111111111,-0.6733333333333333,1.3125,5.9375,-98.875
1589478858.5139425,-2.71,-3.43,8.77,0.4633333333333333,-0.2611111111111111,-0.6733333333333333,1.125,6.0625,-97.3125
1589478858.526138,-2.64,-3.49,8.83,0.5077777777777778,-0.17555555555555555,-0.6444444444444445,0.9375,5.0,-95.9375
1589478858.5326154,-2.43,-3.46,8.69,0.5077777777777778,-0.17555555555555555,-0.6444444444444445,1.5625,6.5,-94.4375
1589478858.546244,-2.39,-3.5,8.85,0.5077777777777778,-0.17555555555555555,-0.6444444444444445,0.9375,4.75,-93.9375
1589478858.5528126,-2.31,-3.51,8.65,0.5077777777777778,-0.17555555555555555,-0.6444444444444445,1.3125,6.0625,-93.75
1589478858.5631664,-2.36,-3.57,8.69,0.5077777777777778,-0.17555555555555555,-0.6444444444444445,0.75,3.9375,-93.5
1589478858.57109,-2.3,-3.64,8.78,0.52,-0.12222222222222222,-0.6377777777777778,1.1875,5.5625,-91.9375
1589478858.5848734,-2.28,-3.75,8.72,0.52,-0.12222222222222222,-0.6377777777777778,1.375,5.9375,-90.8125
1589478858.5921707,-2.08,-3.73,8.88,0.52,-0.12222222222222222,-0.6377777777777778,1.0,5.0,-91.25
1589478858.6047845,-2.2,-3.79,8.78,0.52,-0.12222222222222222,-0.6377777777777778,1.375,5.5,-91.5
1589478858.619148,-2.19,-3.82,8.91,0.52,-0.12222222222222222,-0.6377777777777778,0.75,4.25,-90.75
1589478858.6249516,-2.2,-3.82,8.81,0.5344444444444445,-0.07111111111111111,-0.6311111111111111,1.25,4.8125,-89.25
1589478858.6324427,-2.03,-3.77,8.89,0.5344444444444445,-0.07111111111111111,-0.6311111111111111,1.125,4.6875,-87.875
1589478858.6445491,-1.95,-3.77,8.88,0.5344444444444445,-0.07111111111111111,-0.6311111111111111,0.75,3.8125,-86.3125
1589478858.6516545,-1.83,-3.65,8.72,0.5344444444444445,-0.07111111111111111,-0.6311111111111111,1.625,5.5,-84.625
1589478858.6637044,-1.75,-3.58,8.78,0.5344444444444445,-0.07111111111111111,-0.6311111111111111,1.375,4.5625,-83.3125
1589478858.6765373,-1.82,-3.76,8.94,0.56,-0.01,-0.6088888888888889,0.875,5.125,-82.1875
1589478858.6825507,-1.62,-3.62,8.77,0.56,-0.01,-0.6088888888888889,1.375,4.8125,-81.0625
1589478858.696784,-1.53,-3.67,8.93,0.56,-0.01,-0.6088888888888889,1.5625,3.875,-80.75
1589478858.7028255,-1.65,-3.81,8.69,0.56,-0.01,-0.6088888888888889,1.3125,5.5625,-80.4375
1589478858.717916,-1.39,-3.66,8.72,0.56,-0.01,-0.6088888888888889,1.0,4.25,-79.875
1589478858.7239404,-1.36,-3.6,8.85,0.5422222222222223,0.04777777777777778,-0.6166666666666667,1.0625,2.25,-80.0
1589478858.7328556,-1.33,-3.68,8.98,0.5422222222222223,0.04777777777777778,-0.6166666666666667,0.6875,3.3125,-79.9375
1589478858.741924,-1.35,-3.75,8.61,0.5422222222222223,0.04777777777777778,-0.6166666666666667,1.1875,4.3125,-79.625
1589478858.7560046,-1.35,-3.84,8.72,0.5422222222222223,0.04777777777777778,-0.6166666666666667,1.5,4.5,-79.0
1589478858.765568,-1.31,-3.88,8.78,0.5422222222222223,0.04777777777777778,-0.6166666666666667,1.1875,4.25,-77.8125
1589478858.7757242,-1.27,-3.94,8.88,0.5777777777777777,0.09333333333333334,-0.6233333333333333,1.25,4.0625,-77.25
1589478858.7827375,-1.25,-4.02,8.88,0.5777777777777777,0.09333333333333334,-0.6233333333333333,1.1875,3.8125,-76.4375
1589478858.7935562,-1.25,-3.91,8.69,0.5777777777777777,0.09333333333333334,-0.6233333333333333,1.25,3.9375,-75.6875
1589478858.8035765,-1.23,-3.93,8.69,0.5777777777777777,0.09333333333333334,-0.6233333333333333,1.6875,4.3125,-73.6875
1589478858.815302,-1.16,-3.91,8.85,0.5777777777777777,0.09333333333333334,-0.6233333333333333,1.3125,3.6875,-71.8125
1589478858.8271525,-1.15,-4.07,8.83,0.5555555555555556,0.11333333333333333,-0.6377777777777778,1.1875,4.375,-69.875
1589478858.8331318,-1.15,-4.12,8.8,0.5555555555555556,0.11333333333333333,-0.6377777777777778,1.25,3.8125,-67.9375
1589478858.843564,-1.09,-4.25,8.8,0.5555555555555556,0.11333333333333333,-0.6377777777777778,1.1875,3.6875,-66.3125
1589478858.8554235,-1.17,-4.36,8.83,0.5555555555555556,0.11333333333333333,-0.6377777777777778,1.25,3.875,-64.9375
1589478858.8688922,-0.93,-4.14,8.65,0.5555555555555556,0.11333333333333333,-0.6377777777777778,0.8125,3.6875,-63.25
1589478858.8745134,-0.86,-4.15,8.96,0.5577777777777778,0.15777777777777774,-0.6377777777777778,0.6875,2.1875,-61.8125
1589478858.888402,-0.82,-4.14,8.87,0.5577777777777778,0.15777777777777774,-0.6377777777777778,1.25,3.6875,-60.875
1589478858.894751,-0.65,-3.74,8.65,0.5577777777777778,0.15777777777777774,-0.6377777777777778,1.25,3.375,-60.5625
1589478858.9072018,-0.7,-3.87,8.97,0.5577777777777778,0.15777777777777774,-0.6377777777777778,0.3125,2.625,-60.1875
1589478858.914901,-0.63,-3.73,8.6,0.5577777777777778,0.15777777777777774,-0.6377777777777778,0.8125,4.375,-59.625
1589478858.9266806,-0.63,-4.01,8.91,0.5455555555555556,0.18444444444444444,-0.6444444444444445,0.75,2.5625,-59.8125
1589478858.934338,-0.65,-4.04,8.67,0.5455555555555556,0.18444444444444444,-0.6444444444444445,1.625,3.625,-58.875
1589478858.9441586,-0.33,-4.12,8.81,0.5455555555555556,0.18444444444444444,-0.6444444444444445,1.0,2.6875,-58.8125
1589478858.9545918,-0.88,-4.12,8.75,0.5455555555555556,0.18444444444444444,-0.6444444444444445,0.75,4.25,-61.5625
1589478858.9652452,-0.69,-4.22,8.75,0.5455555555555556,0.18444444444444444,-0.6444444444444445,2.1875,4.625,-51.125
1589478858.9728053,-0.67,-4.36,8.82,0.56,0.21666666666666667,-0.6233333333333333,1.8125,2.0,-41.1875
1589478858.9839175,-0.81,-4.17,8.84,0.56,0.21666666666666667,-0.6233333333333333,-1.6875,1.0,-35.0
1589478858.9942956,-0.73,-3.89,8.81,0.56,0.21666666666666667,-0.6233333333333333,0.125,1.125,-25.8125
1589478859.006384,-0.75,-4.03,8.69,0.56,0.21666666666666667,-0.6233333333333333,2.4375,1.5625,-14.875
1589478859.0208404,-0.53,-4.04,8.92,0.56,0.21666666666666667,-0.6233333333333333,-1.0625,-1.3125,-4.9375
1589478859.0268526,-0.22,-3.82,8.85,0.5666666666666667,0.21444444444444444,-0.6588888888888889,-1.0625,-0.375,1.125
1589478859.0379212,-0.15,-4.15,8.89,0.5666666666666667,0.21444444444444444,-0.6588888888888889,1.0,-0.125,0.0625
1589478859.0441644,-0.28,-4.25,8.65,0.5666666666666667,0.21444444444444444,-0.6588888888888889,0.0625,-0.5,-4.25
1589478859.05879,-0.28,-4.2,8.7,0.5666666666666667,0.21444444444444444,-0.6588888888888889,-0.625,0.0625,-7.3125
1589478859.0660086,-0.45,-4.33,8.74,0.5666666666666667,0.21444444444444444,-0.6588888888888889,1.125,0.9375,-8.625
1589478859.0726194,-0.59,-4.06,8.78,0.6133333333333333,0.19666666666666666,-0.6377777777777778,0.0625,0.3125,-7.5625
1589478859.0844831,-0.57,-4.19,8.81,0.6133333333333333,0.19666666666666666,-0.6377777777777778,-0.6875,0.125,-3.6875
1589478859.0940814,-0.63,-4.32,8.68,0.6133333333333333,0.19666666666666666,-0.6377777777777778,0.0,-0.5625,0.0625
1589478859.103931,-0.7,-4.2,8.71,0.6133333333333333,0.19666666666666666,-0.6377777777777778,-0.75,-0.75,3.5
1589478859.1161544,-0.75,-4.4,8.84,0.6133333333333333,0.19666666666666666,-0.6377777777777778,-0.5625,-0.6875,7.3125
1589478859.1242595,-0.64,-4.46,8.78,0.73,0.14222222222222222,-0.6233333333333333,0.25,-0.375,11.875
1589478859.134768,-0.73,-4.62,8.8,0.73,0.14222222222222222,-0.6233333333333333,0.1875,-0.9375,15.625
1589478859.1437714,-0.7,-4.59,8.61,0.73,0.14222222222222222,-0.6233333333333333,-0.5625,-1.1875,19.6875
1589478859.1551151,-0.71,-4.7,8.74,0.73,0.14222222222222222,-0.6233333333333333,-0.375,-1.4375,23.875
1589478859.1666849,-0.75,-4.64,8.75,0.73,0.14222222222222222,-0.6233333333333333,-0.375,-1.75,27.4375
1589478859.178315,-0.74,-4.8,8.72,0.9966666666666668,0.0,-0.5455555555555556,-0.4375,-1.625,31.3125
1589478859.187771,-0.81,-4.84,8.7,0.9966666666666668,0.0,-0.5455555555555556,-0.3125,-1.9375,34.3125
1589478859.1948116,-0.77,-4.71,8.73,0.9966666666666668,0.0,-0.5455555555555556,-0.625,-2.4375,37.6875
1589478859.2091482,-0.77,-4.72,8.69,0.9966666666666668,0.0,-0.5455555555555556,-0.4375,-2.25,41.1875
1589478859.2158885,-0.72,-4.46,8.82,0.9966666666666668,0.0,-0.5455555555555556,0.0,-2.25,43.75
1589478859.2295508,-0.6,-4.36,8.8,1.4377777777777778,-0.13111111111111112,-0.11666666666666667,-0.875,-3.3125,45.25
1589478859.2354033,-0.79,-4.65,8.78,1.4377777777777778,-0.13111111111111112,-0.11666666666666667,-0.5625,-2.5625,45.3125
1589478859.2482667,-0.7,-4.5,8.67,1.4377777777777778,-0.13111111111111112,-0.11666666666666667,-0.25,-2.25,44.9375
1589478859.255798,-0.9,-4.57,8.76,1.4377777777777778,-0.13111111111111112,-0.11666666666666667,-0.75,-2.75,43.8125
1589478859.2686136,-0.94,-4.6,8.74,1.4377777777777778,-0.13111111111111112,-0.11666666666666667,-0.9375,-2.625,44.0625
1589478859.275617,-0.97,-4.67,8.78,1.4433333333333334,0.3588888888888889,-0.3033333333333333,0.0625,-2.0625,45.0625
1589478859.2883322,-0.81,-4.55,8.75,1.4433333333333334,0.3588888888888889,-0.3033333333333333,-0.9375,-2.9375,45.1875
1589478859.2958815,-0.66,-4.3,8.64,1.4433333333333334,0.3588888888888889,-0.3033333333333333,-0.8125,-2.5,44.0
1589478859.3045142,-0.7,-4.17,8.75,1.4433333333333334,0.3588888888888889,-0.3033333333333333,-0.0625,-2.375,40.5
1589478859.3162606,-0.74,-4.19,8.75,1.4433333333333334,0.3588888888888889,-0.3033333333333333,-0.125,-2.0625,36.625
1589478859.3258078,-0.7,-4.17,8.78,1.0344444444444445,0.2788888888888889,-0.6111111111111112,-0.5,-1.9375,32.3125
1589478859.3361225,-0.75,-4.2,8.87,1.0344444444444445,0.2788888888888889,-0.6111111111111112,-0.4375,-1.875,27.3125
1589478859.3461988,-0.73,-4.15,8.71,1.0344444444444445,0.2788888888888889,-0.6111111111111112,-0.125,-1.0625,22.6875
1589478859.3554099,-0.76,-4.13,8.86,1.0344444444444445,0.2788888888888889,-0.6111111111111112,-0.125,-0.9375,18.375
1589478859.3678188,-0.84,-4.31,8.73,1.0344444444444445,0.2788888888888889,-0.6111111111111112,-0.3125,-1.25,13.8125
1589478859.375516,-0.89,-4.43,8.84,0.7911111111111111,0.19666666666666666,-0.6533333333333333,-0.3125,-0.9375,10.5625
1589478859.3878815,-0.81,-4.17,8.8,0.7911111111111111,0.19666666666666666,-0.6533333333333333,0.25,-0.4375,7.8125
1589478859.3952048,-0.76,-3.88,8.65,0.7911111111111111,0.19666666666666666,-0.6533333333333333,0.4375,-0.4375,5.1875
1589478859.4062512,-0.72,-3.99,8.75,0.7911111111111111,0.19666666666666666,-0.6533333333333333,0.4375,0.0625,2.75
1589478859.4208848,-0.72,-3.97,8.86,0.7911111111111111,0.19666666666666666,-0.6533333333333333,-0.5,-0.1875,-0.0625
1589478859.426639,-0.62,-3.77,8.8,0.6788888888888889,0.19666666666666666,-0.6966666666666667,0.0,0.375,-2.625
1589478859.4394474,-0.68,-4.0,8.84,0.6788888888888889,0.19666666666666666,-0.6966666666666667,0.3125,0.3125,-5.6875
1589478859.4458475,-0.72,-4.12,8.7,0.6788888888888889,0.19666666666666666,-0.6966666666666667,0.125,0.3125,-9.125
1589478859.456593,-0.82,-4.16,8.83,0.6788888888888889,0.19666666666666666,-0.6966666666666667,-0.3125,0.4375,-11.75
1589478859.4680948,-0.93,-4.21,8.81,0.6788888888888889,0.19666666666666666,-0.6966666666666667,0.4375,0.5,-12.8125
1589478859.476349,-0.93,-4.01,8.9,0.5988888888888889,0.17222222222222222,-0.6755555555555556,0.0,0.8125,-12.5625
1589478859.4863634,-0.97,-4.04,8.73,0.5988888888888889,0.17222222222222222,-0.6755555555555556,0.0625,0.875,-10.875
1589478859.495868,-1.06,-4.09,8.65,0.5988888888888889,0.17222222222222222,-0.6755555555555556,0.375,0.4375,-7.8125
1589478859.5060573,-1.01,-3.88,8.83,0.5988888888888889,0.17222222222222222,-0.6755555555555556,-0.125,0.0,-2.5625
1589478859.518448,-1.03,-4.02,8.79,0.5988888888888889,0.17222222222222222,-0.6755555555555556,0.25,-0.125,3.75
1589478859.5260751,-1.04,-4.22,8.85,0.5733333333333334,0.1811111111111111,-0.7111111111111111,0.25,0.0625,9.875
1589478859.5387766,-1.14,-4.25,8.95,0.5733333333333334,0.1811111111111111,-0.7111111111111111,-0.625,-1.75,15.0
1589478859.5463428,-1.02,-4.13,8.51,0.5733333333333334,0.1811111111111111,-0.7111111111111111,0.4375,-1.0625,20.625
1589478859.5565026,-1.01,-4.08,9.0,0.5733333333333334,0.1811111111111111,-0.7111111111111111,0.375,-1.3125,26.0625
1589478859.572014,-0.9,-3.84,8.45,0.5733333333333334,0.1811111111111111,-0.7111111111111111,0.3125,-2.875,30.25
1589478859.5786202,-0.77,-3.74,8.83,0.5611111111111111,0.17555555555555555,-0.7111111111111111,-1.0625,-1.1875,33.6875
1589478859.5913026,-0.72,-3.7,8.92,0.5611111111111111,0.17555555555555555,-0.7111111111111111,-0.25,-2.1875,34.6875
1589478859.597451,-0.65,-3.62,8.73,0.5611111111111111,0.17555555555555555,-0.7111111111111111,-0.375,-2.25,34.5
1589478859.6102805,-0.79,-3.7,8.94,0.5611111111111111,0.17555555555555555,-0.7111111111111111,-0.3125,-1.9375,32.5
1589478859.617789,-0.83,-3.75,8.61,0.5611111111111111,0.17555555555555555,-0.7111111111111111,-0.4375,-1.75,29.8125
1589478859.6276836,-0.82,-3.77,8.94,0.5666666666666667,0.16333333333333333,-0.7033333333333334,-0.6875,-1.6875,27.25
1589478859.6369288,-0.74,-3.55,8.95,0.5666666666666667,0.16333333333333333,-0.7033333333333334,-0.5,-1.5,24.1875
1589478859.6480613,-0.53,-3.4,8.53,0.5666666666666667,0.16333333333333333,-0.7033333333333334,0.25,-0.5625,20.375
1589478859.6569586,-0.55,-3.49,8.96,0.5666666666666667,0.16333333333333333,-0.7033333333333334,-0.5625,-1.1875,15.1875
1589478859.669203,-0.75,-3.75,8.88,0.5666666666666667,0.16333333333333333,-0.7033333333333334,-0.5,-1.6875,9.0625
1589478859.6770566,-0.81,-3.94,8.61,0.5688888888888889,0.14222222222222222,-0.7122222222222222,0.8125,0.6875,3.1875
1589478859.6889708,-0.86,-3.82,8.88,0.5688888888888889,0.14222222222222222,-0.7122222222222222,-0.5625,-0.5,-2.875
1589478859.6968222,-0.87,-3.71,8.45,0.5688888888888889,0.14222222222222222,-0.7122222222222222,-0.125,0.625,-7.9375
1589478859.7070127,-0.94,-3.97,8.92,0.5688888888888889,0.14222222222222222,-0.7122222222222222,0.625,0.375,-11.3125
1589478859.720418,-0.83,-4.04,8.78,0.5688888888888889,0.14222222222222222,-0.7122222222222222,0.0625,1.3125,-14.4375
1589478859.7286234,-0.83,-4.0,8.93,0.5755555555555556,0.14222222222222222,-0.6966666666666667,-0.0625,1.125,-18.0
1589478859.742652,-0.88,-4.02,8.81,0.5755555555555556,0.14222222222222222,-0.6966666666666667,0.6875,1.5,-21.9375
1589478859.7486892,-1.01,-4.16,9.06,0.5755555555555556,0.14222222222222222,-0.6966666666666667,0.5625,1.5625,-24.9375
1589478859.7617447,-0.89,-4.04,8.96,0.5755555555555556,0.14222222222222222,-0.6966666666666667,1.375,4.375,-26.875
1589478859.769421,-1.07,-4.14,9.26,0.5755555555555556,0.14222222222222222,-0.6966666666666667,-0.3125,-0.8125,-30.125
1589478859.7779965,-0.99,-4.14,8.63,0.5555555555555556,0.13333333333333333,-0.7022222222222222,1.4375,4.4375,-30.25
1589478859.7867177,-0.89,-4.03,9.53,0.5555555555555556,0.13333333333333333,-0.7022222222222222,2.0,6.0625,-30.3125
1589478859.7974224,-0.61,-3.44,7.99,0.5555555555555556,0.13333333333333333,-0.7022222222222222,1.8125,0.0625,-32.5
1589478859.8067846,-0.71,-3.56,8.65,0.5555555555555556,0.13333333333333333,-0.7022222222222222,4.25,-2.8125,-34.25
1589478859.8212073,-0.74,-3.58,9.03,0.5555555555555556,0.13333333333333333,-0.7022222222222222,0.625,0.8125,-34.875
1589478859.8268545,-0.67,-3.53,9.27,0.5366666666666666,0.15222222222222226,-0.6733333333333333,0.625,2.1875,-34.75
1589478859.838305,-0.27,-2.98,8.62,0.5366666666666666,0.15222222222222226,-0.6733333333333333,0.0625,3.8125,-34.0625
1589478859.84711,-0.58,-3.01,8.6,0.5366666666666666,0.15222222222222226,-0.6733333333333333,1.75,-0.4375,-34.4375
1589478859.8570616,-9.54,-19.06,4.66,0.5366666666666666,0.15222222222222226,-0.6733333333333333,0.375,4.0,-33.75
1589478859.8720305,-21.85,-37.0,9.85,0.5366666666666666,0.15222222222222226,-0.6733333333333333,-0.1875,0.5,-42.5
1589478859.8775744,3.48,6.96,2.26,0.5288888888888889,0.17777777777777778,-0.6733333333333333,-47.6875,6.8125,-153.1875
1589478859.8925614,1.74,-0.94,8.75,0.5288888888888889,0.17777777777777778,-0.6733333333333333,-40.1875,-31.6875,-199.8125
1589478859.8988035,0.08,-0.2,8.6,0.5288888888888889,0.17777777777777778,-0.6733333333333333,10.0625,12.4375,-205.875
1589478859.9077964,1.29,1.36,4.58,0.5288888888888889,0.17777777777777778,-0.6733333333333333,93.9375,65.9375,-203.3125
1589478859.9194849,1.05,-2.2,12.53,0.5288888888888889,0.17777777777777778,-0.6733333333333333,19.1875,-9.1875,-184.3125
1589478859.9299884,0.2,-1.6,8.18,0.4977777777777778,0.2577777777777778,-0.6944444444444444,-41.3125,6.3125,-152.875
1589478859.937346,0.71,-2.64,8.81,0.4977777777777778,0.2577777777777778,-0.6944444444444444,6.125,19.5,-139.125
1589478859.9515505,0.08,-2.63,8.5,0.4977777777777778,0.2577777777777778,-0.6944444444444444,18.8125,8.75,-129.6875
1589478859.957698,-0.43,-2.56,9.09,0.4977777777777778,0.2577777777777778,-0.6944444444444444,-4.75,5.375,-113.5
1589478859.9719794,-0.78,-5.3,7.94,0.4977777777777778,0.2577777777777778,-0.6944444444444444,-4.875,4.375,-91.125
1589478859.9780035,2.18,-0.43,6.72,0.4711111111111111,0.2977777777777777,-0.7177777777777777,1.4375,9.4375,35.0
1589478859.988055,2.25,-2.95,12.01,0.4711111111111111,0.2977777777777777,-0.7177777777777777,2.875,-17.375,93.5625
1589478859.9984252,0.39,-2.25,7.04,0.4711111111111111,0.2977777777777777,-0.7177777777777777,-1.3125,-3.625,73.3125
1589478860.0083628,6.17,-18.02,8.91,0.4711111111111111,0.2977777777777777,-0.7177777777777777,-1.625,3.4375,62.4375
1589478860.0202484,-0.17,-0.52,7.83,0.4711111111111111,0.2977777777777777,-0.7177777777777777,-1.125,-9.5625,53.3125
1589478860.0278304,-0.48,-2.42,9.44,0.4311111111111111,0.3144444444444445,-0.6755555555555556,-4.0625,3.5625,18.0625
1589478860.0341928,-0.48,-2.42,9.44,0.4311111111111111,0.3144444444444445,-0.6755555555555556,-4.0625,3.5625,18.0625
1589478860.0462394,0.19,-4.23,8.69,0.4311111111111111,0.3144444444444445,-0.6755555555555556,8.1875,4.0625,10.1875
1589478860.0526195,0.05,-4.55,8.54,0.4311111111111111,0.3144444444444445,-0.6755555555555556,-3.0,-5.125,0.5625
1589478860.059767,-0.08,-4.18,8.71,0.4311111111111111,0.3144444444444445,-0.6755555555555556,-1.6875,0.875,-0.0625
1589478860.0715694,-0.1,-4.08,8.95,0.4311111111111111,0.3144444444444445,-0.6755555555555556,2.9375,1.5625,0.1875
1589478860.0846558,0.0,-4.3,8.71,0.4533333333333333,0.3088888888888889,-0.6822222222222222,-0.125,-0.5625,0.0
1589478860.0911822,0.0,-4.33,8.8,0.4533333333333333,0.3088888888888889,-0.6822222222222222,-1.6875,-0.4375,-0.0625
1589478860.103972,-0.06,-4.16,8.68,0.4533333333333333,0.3088888888888889,-0.6822222222222222,0.4375,0.125,0.0625
1589478860.109867,-0.02,-4.28,8.76,0.4533333333333333,0.3088888888888889,-0.6822222222222222,0.25,0.125,-0.125
1589478860.1213243,-0.03,-4.27,8.78,0.4533333333333333,0.3088888888888889,-0.6822222222222222,-0.3125,-0.5625,-0.125
1589478860.1288195,-0.02,-4.22,8.89,0.48,0.2888888888888889,-0.6677777777777778,0.375,0.25,0.0625
1589478860.1396024,-0.01,-4.23,8.8,0.48,0.2888888888888889,-0.6677777777777778,0.125,-0.3125,0.0625
1589478860.1488626,-0.01,-4.25,8.67,0.48,0.2888888888888889,-0.6677777777777778,-0.8125,-0.125,-0.0625
1589478860.160342,-0.03,-4.26,8.74,0.48,0.2888888888888889,-0.6677777777777778,0.125,0.125,0.0625
1589478860.1716075,0.01,-4.22,8.8,0.48,0.2888888888888889,-0.6677777777777778,0.0,0.0625,-0.0625
1589478860.1793175,-0.01,-4.26,8.8,0.4577777777777778,0.3088888888888889,-0.7033333333333334,-0.125,0.0,0.0625
1589478860.1899686,-0.01,-4.27,8.79,0.4577777777777778,0.3088888888888889,-0.7033333333333334,-0.1875,-0.125,-0.0625
1589478860.2014635,-0.02,-4.29,8.67,0.4577777777777778,0.3088888888888889,-0.7033333333333334,-0.5,0.0625,0.1875
1589478860.2094672,0.0,-4.27,8.72,0.4577777777777778,0.3088888888888889,-0.7033333333333334,0.1875,0.125,0.0625
1589478860.2220757,-0.01,-4.23,8.82,0.4577777777777778,0.3088888888888889,-0.7033333333333334,0.25,-0.125,0.0625
1589478860.2300026,0.0,-4.24,8.81,0.4577777777777778,0.3022222222222222,-0.6822222222222222,0.125,0.0,-0.0625
1589478860.2399352,-0.04,-4.26,8.8,0.4577777777777778,0.3022222222222222,-0.6822222222222222,-0.1875,-0.0625,0.0625
1589478860.2542038,0.0,-4.25,8.73,0.4577777777777778,0.3022222222222222,-0.6822222222222222,-0.3125,0.0,0.0625
1589478860.2601724,-0.01,-4.27,8.75,0.4577777777777778,0.3022222222222222,-0.6822222222222222,-0.1875,-0.125,0.0625
1589478860.27659,0.0,-4.24,8.79,0.4577777777777778,0.3022222222222222,-0.6822222222222222,0.25,0.1875,-0.0625
1589478860.282741,-0.02,-4.23,8.82,0.4533333333333333,0.2966666666666667,-0.6677777777777778,0.0625,0.0,-0.0625
1589478860.2943695,-0.04,-4.25,8.76,0.4533333333333333,0.2966666666666667,-0.6677777777777778,-0.1875,-0.0625,0.125
1589478860.3007288,-0.01,-4.27,8.68,0.4533333333333333,0.2966666666666667,-0.6677777777777778,-0.3125,-0.125,0.125
1589478860.3135905,0.0,-4.26,8.71,0.4533333333333333,0.2966666666666667,-0.6677777777777778,-0.125,0.0,0.0625
1589478860.3221989,-0.01,-4.28,8.75,0.4533333333333333,0.2966666666666667,-0.6677777777777778,0.125,-0.125,0.0
1589478860.3336182,-0.01,-4.24,8.82,0.4988888888888889,0.2966666666666667,-0.6822222222222222,0.1875,0.0625,0.0625
1589478860.3403347,0.0,-4.22,8.82,0.4988888888888889,0.2966666666666667,-0.6822222222222222,-0.25,0.0,-0.0625
1589478860.3498688,-0.03,-4.29,8.7,0.4988888888888889,0.2966666666666667,-0.6822222222222222,-0.375,0.0,0.0625
1589478860.3600762,0.0,-4.29,8.71,0.4988888888888889,0.2966666666666667,-0.6822222222222222,-0.125,0.0,-0.0625
1589478860.3728669,-0.01,-4.26,8.79,0.4988888888888889,0.2966666666666667,-0.6822222222222222,0.0625,0.0625,0.0625
1589478860.3808901,-0.01,-4.26,8.83,0.4655555555555556,0.2966666666666667,-0.6888888888888889,0.1875,0.125,0.0
1589478860.3902185,0.0,-4.25,8.83,0.4655555555555556,0.2966666666666667,-0.6888888888888889,0.0,0.125,0.125
1589478860.4003458,0.0,-4.25,8.68,0.4655555555555556,0.2966666666666667,-0.6888888888888889,-0.1875,-0.125,0.0
1589478860.4116025,-0.01,-4.28,8.73,0.4655555555555556,0.2966666666666667,-0.6888888888888889,-0.3125,0.0625,0.0625
1589478860.428096,-0.01,-4.28,8.77,0.4655555555555556,0.2966666666666667,-0.6888888888888889,-0.0625,-0.125,0.0625
1589478860.4345922,-0.02,-4.25,8.78,0.48,0.3088888888888889,-0.6822222222222222,0.0,0.125,0.0
1589478860.4453194,0.0,-4.24,8.78,0.48,0.3088888888888889,-0.6822222222222222,0.1875,-0.125,0.125
1589478860.4519892,0.0,-4.28,8.68,0.48,0.3088888888888889,-0.6822222222222222,-0.1875,0.25,-0.125
1589478860.4645104,0.0,-4.26,8.73,0.48,0.3088888888888889,-0.6822222222222222,-0.1875,0.0,0.0
1589478860.4731126,0.02,-4.28,8.79,0.48,0.3088888888888889,-0.6822222222222222,-0.1875,0.0625,-0.0625
1589478860.4847233,-0.01,-4.25,8.81,0.4577777777777778,0.3088888888888889,-0.6822222222222222,0.25,-0.0625,0.0
1589478860.4902403,0.0,-4.25,8.83,0.4577777777777778,0.3088888888888889,-0.6822222222222222,0.25,0.0625,0.0
1589478860.5040953,0.0,-4.23,8.73,0.4577777777777778,0.3088888888888889,-0.6822222222222222,-0.125,-0.0625,0.0625
1589478860.5114176,0.0,-4.27,8.77,0.4577777777777778,0.3088888888888889,-0.6822222222222222,-0.3125,0.0,0.0625
1589478860.5229821,0.0,-4.28,8.76,0.4577777777777778,0.3088888888888889,-0.6822222222222222,-0.1875,0.0625,0.0
1589478860.5308702,0.0,-4.27,8.8,0.4655555555555556,0.2966666666666667,-0.6822222222222222,0.0,-0.125,0.0
1589478860.5411534,-0.01,-4.27,8.77,0.4655555555555556,0.2966666666666667,-0.6822222222222222,0.0,0.0625,0.125
1589478860.555678,0.0,-4.25,8.69,0.4655555555555556,0.2966666666666667,-0.6822222222222222,-0.0625,0.125,0.0
1589478860.5618455,0.01,-4.27,8.74,0.4655555555555556,0.2966666666666667,-0.6822222222222222,-0.25,0.0,0.0
1589478860.5778565,0.0,-4.28,8.78,0.4655555555555556,0.2966666666666667,-0.6822222222222222,-0.375,0.0,0.0625
1589478860.5840616,-0.01,-4.25,8.81,0.4844444444444445,0.3022222222222222,-0.6822222222222222,0.0625,0.125,0.0
1589478860.5908434,-0.02,-4.26,8.8,0.4844444444444445,0.3022222222222222,-0.6822222222222222,0.0625,0.0625,-0.0625
1589478860.6015663,0.0,-4.27,8.71,0.4844444444444445,0.3022222222222222,-0.6822222222222222,-0.0625,0.1875,0.1875
1589478860.616257,-0.02,-4.25,8.74,0.4844444444444445,0.3022222222222222,-0.6822222222222222,-0.25,0.125,-0.0625
1589478860.6240704,-0.01,-4.26,8.79,0.4844444444444445,0.3022222222222222,-0.6822222222222222,-0.0625,0.1875,0.0625
1589478860.6356356,0.0,-4.25,8.81,0.4722222222222222,0.2966666666666667,-0.6977777777777778,-0.125,0.0625,0.0
1589478860.6417994,0.0,-4.27,8.8,0.4722222222222222,0.2966666666666667,-0.6977777777777778,0.0625,0.125,0.0
1589478860.6553864,-0.02,-4.26,8.69,0.4722222222222222,0.2966666666666667,-0.6977777777777778,-0.0625,0.125,-0.125
1589478860.6614487,-0.01,-4.25,8.75,0.4722222222222222,0.2966666666666667,-0.6977777777777778,-0.125,0.0,0.0625
1589478860.674026,0.0,-4.28,8.77,0.4722222222222222,0.2966666666666667,-0.6977777777777778,-0.125,-0.0625,0.0
1589478860.6815176,-0.02,-4.28,8.79,0.4722222222222222,0.2966666666666667,-0.6888888888888889,0.0,-0.0625,0.125
1589478860.6918206,-0.01,-4.28,8.75,0.4722222222222222,0.2966666666666667,-0.6888888888888889,0.125,0.125,-0.0625
1589478860.7018273,-0.02,-4.25,8.72,0.4722222222222222,0.2966666666666667,-0.6888888888888889,0.0625,0.1875,0.0
1589478860.7139885,0.0,-4.25,8.77,0.4722222222222222,0.2966666666666667,-0.6888888888888889,0.125,-0.125,0.0625
