time,acc_x,acc_y,acc_z,mag_x,mag_y,mag_z,gyr_x,gyr_y,gyr_z
1588959977.20745,0.32,-1.62,-10.22,-0.46888888888888897,0.10111111111111099,0.7211111111111109,12.1875,-14.75,-32.375
1588959977.21745,0.23173491645012612,-1.4356419399503064,-10.352609297649982,-0.46888888888888897,0.10111111111111099,0.7211111111111109,9.494448580315991,-11.700989131877929,-36.894213625931755
1588959977.22745,0.16728253324077536,-1.2917186415336146,-10.37033294174187,-0.46888888888888897,0.10111111111111099,0.7211111111111109,7.997919114113312,-10.43045135366049,-39.25496776045282
1588959977.23745,-0.001666666666666667,-1.0250000000000001,-10.558333333333334,-0.47092592592592597,0.10018518518518515,0.7235185185185184,7.114583333333333,-9.46875,-38.927083333333336
1588959977.2474499,-0.0835777189088566,-0.7136693634996778,-10.898348607431805,-0.48111111111111104,0.095555555555556,0.735555555555556,5.973045840194745,-8.429469911219302,-36.3704065833751
1588959977.2574499,0.08264612040251043,-0.5495876722415063,-10.925910732442762,-0.48111111111111104,0.095555555555556,0.735555555555556,2.482385785912135,-6.676115844465482,-32.22852021317625
1588959977.2674499,0.11985609831985064,-0.6831720597386434,-10.942452551337897,-0.48111111111111104,0.095555555555556,0.735555555555556,-0.16616268668326073,-5.827072475886745,-29.95883731331674
1588959977.2774498,-0.16220897666068224,-1.3586624775583482,-10.473605026929983,-0.48111111111111104,0.095555555555556,0.735555555555556,-1.6010188509874328,-6.09084380610413,-27.016719030520647
1588959977.2874498,-0.3408151487826871,-1.5437933273219115,-10.25404364292155,-0.47702538823765145,0.09411353571786432,0.7324311792405573,-0.25312894499549143,-5.146742560865645,-23.702182146077547
1588959977.2974498,-0.3618634487708595,-1.6436024134218552,-10.119192759734434,-0.46222222222222203,0.08888888888888902,0.7211111111111109,2.793474116274897,-1.7422435739278666,-15.91111861878701
1588959977.3074498,-0.12725022235398759,-1.7468366439371479,-10.109076489771716,-0.46222222222222203,0.08888888888888902,0.7211111111111109,3.9128187073821525,1.411095463978654,-9.79949229172843
1588959977.3174498,0.16805090771199696,-1.8509745461440017,-10.141949092288003,-0.46222222222222203,0.08888888888888902,0.7211111111111109,3.9557727402000284,4.378181731999811,-5.784954614400152
1588959977.3274498,0.21652737091024601,-1.7902611795432888,-10.113368157272438,-0.46222222222222203,0.08888888888888902,0.7211111111111109,4.123041153425334,5.915796068189038,-5.454306815374299
1588959977.3374498,0.2647358202386808,-1.677365968572834,-10.08104895285925,-0.46292411285706464,0.08888888888888902,0.7226318741532699,5.0329253928395765,6.151296629475265,-7.625121346656657
1588959977.3474498,0.1635644527855976,-1.5109992006394886,-9.989261807944947,-0.46888888888888897,0.08888888888888902,0.735555555555556,6.679623692350468,4.60705565981997,-14.941603239147813
1588959977.3574498,-0.045406539991162176,-1.240931185473828,-10.181744265456151,-0.46888888888888897,0.08888888888888902,0.735555555555556,6.7111273751657095,1.5563323524685655,-22.555941931466677
1588959977.3674498,-0.12858755271690112,-1.1309792545281685,-10.14211867092465,-0.46888888888888897,0.08888888888888902,0.735555555555556,4.280191852953365,-0.30096474976231685,-25.66713695424295
1588959977.3774498,-0.21169630224465605,-1.322482887843677,-10.004425452181561,-0.46888888888888897,0.08888888888888902,0.735555555555556,0.9598581316202057,-2.0643809032159384,-26.875
1588959977.3874497,-0.322551519981783,-1.6819175680291472,-9.758716383923488,-0.46930269333434543,0.08789575821979344,0.7334037724391822,-0.7918977001024707,-4.551901400432654,-26.763272799726746
1588959977.3974497,-0.23560558112773303,-1.8416782940161105,-9.363927287111622,-0.47444444444444395,0.075555555555556,0.706666666666667,-1.2687063974395858,-6.825908911104718,-25.246538765822784
1588959977.4074497,-0.376625953144947,-2.106625953144947,-9.27993892971742,-0.47444444444444395,0.075555555555556,0.706666666666667,0.5735495807887382,-8.424923662146776,-20.944236707725217
1588959977.4174497,-0.4489838871062347,-2.178983887106235,-9.388475830659353,-0.47444444444444395,0.075555555555556,0.706666666666667,3.1513009781596106,-8.56059478832419,-16.376642126418936
1588959977.4274497,0.2238613684960798,-1.995613863150392,-9.564104953670705,-0.47444444444444395,0.075555555555556,0.706666666666667,7.433341500356379,-4.9749877494654315,-7.957883775837491
1588959977.4374497,0.5792460773057787,-1.9441676234213547,-9.520355912743973,-0.4764549049623672,0.07614193987328355,0.7088446655610838,9.266360505166475,-2.178339073861462,-5.861844623038653
1588959977.4474497,0.3125749566819468,-1.5588814072335666,-9.914314039435878,-0.5011111111111111,0.083333333333333,0.735555555555556,11.609434288158269,1.5363021735792777,-9.608906520737833
1588959977.4574497,-0.21728928473143028,-1.2211060518876184,-10.161214880788572,-0.5011111111111111,0.083333333333333,0.735555555555556,12.893982512321433,2.9495696880238174,-12.500680180630958
1588959977.4674497,-0.42444462075531575,-1.1468055775944144,-10.203194422405586,-0.5011111111111111,0.083333333333333,0.735555555555556,12.901045798952714,4.838535881466202,-12.149312718184703
1588959977.4774497,-0.3686551304868808,-1.148069217078715,-10.203275652434405,-0.5011111111111111,0.083333333333333,0.735555555555556,11.137484801494299,6.801514123596892,-9.374335891381346
1588959977.4874496,-0.3612641632451673,-1.192415020528996,-10.166320816225836,-0.5011111111111111,0.083333333333333,0.735555555555556,8.45825917637315,7.77157857407179,-6.279368358913814
1588959977.4974496,-0.3824626542541676,-1.7524626542541675,-9.702462654254168,-0.48,0.083333333333333,0.735555555555556,5.4510243017969255,8.381535505520675,-4.276114959948041
1588959977.5074496,-0.3755066650209825,-1.754202666008393,-9.738986669958036,-0.48,0.083333333333333,0.735555555555556,5.929350006171315,6.102316557640089,-5.4574333497901755
1588959977.5174496,-0.3183671922819086,-1.7659593692617097,-9.749428138389344,-0.48,0.083333333333333,0.735555555555556,6.089541009647614,2.992851729866799,-5.826020504823807
1588959977.5274496,-0.223769740742737,-1.89516556172407,-9.484014265437754,-0.48,0.083333333333333,0.735555555555556,6.559443441312276,-0.8489238038771807,-5.790467399701756
1588959977.5374496,-0.17670327212542775,-1.992397620272416,-9.36,-0.480199801689368,0.083333333333333,0.7366211645655187,7.6093285209456285,-3.913649605242558,-5.555007436648699
1588959977.5474496,-0.07351322940663371,-2.0674449240679027,-9.36,-0.48645374367232563,0.083333333333333,0.7699755218079566,9.075096173201226,-7.079707734114647,-5.320484612287804
1588959977.5574496,0.13251145781766502,-2.0849770843646698,-9.37995416872934,-0.4866666666666671,0.083333333333333,0.7711111111111109,9.482298270548219,-8.249140663675124,-5.2046288385685315
1588959977.5674496,0.13920937065840533,-2.071581258683189,-9.353162517366378,-0.4866666666666671,0.083333333333333,0.7711111111111109,8.268301568164034,-7.7467972006196,-6.083729898915699
1588959977.5774496,0.13636411486051817,-2.184181531083689,-9.104485837378405,-0.4866666666666671,0.083333333333333,0.7711111111111109,8.042825360157515,-7.382574760707254,-8.038627989940933
1588959977.5874496,0.25901163810749167,-2.1105930171355047,-9.357957385422148,-0.4866666666666671,0.083333333333333,0.7711111111111109,13.766376445016277,-7.127059087276059,-5.892296333118896
1588959977.5974495,0.6842706763139383,-1.9606130037182192,-9.587505527082705,-0.48,0.083333333333333,0.7211111111111109,19.329809818108732,-4.864164091548588,-6.06276536277761
1588959977.6074495,0.8,-1.77,-10.03,-0.48,0.083333333333333,0.7211111111111109,19.5,-3.375,-8.0625
1588959977.6174495,0.5039672333530516,-2.092250713716211,-9.333782052930738,-0.48,0.083333333333333,0.7211111111111109,12.858751703917081,-1.626157377639464,-13.310185244721072
1588959977.6274495,0.33915926427368487,-2.1808407357263153,-9.633293597067661,-0.48,0.083333333333333,0.7211111111111109,10.53131088399432,0.5780470891259123,-15.764775203909783
1588959977.6374495,0.24220684872700854,-2.2777931512729914,-10.672069477924909,-0.48,0.083333333333333,0.7211111111111109,16.201295900340124,4.430174313971535,-14.379740696100122
1588959977.6474495,0.07194103194103194,-2.0086404586404583,-9.375809445809445,-0.4866666666666671,0.10222222222222198,0.7211111111111109,33.04813336063336,9.498993311493312,-10.134503822003822
1588959977.6574495,-0.4523590010641429,-1.84662825186225,-9.745166753458465,-0.4866666666666671,0.10222222222222198,0.7211111111111109,28.506329669210043,13.614450551316594,-6.846232764281025
1588959977.6674495,-0.46520282825357756,-2.0350611742561355,-9.987926590892636,-0.4866666666666671,0.10222222222222198,0.7211111111111109,26.693214725258812,16.13960882260672,-1.5602059653949178
1588959977.6774495,-0.19753939972815107,-2.0376969986407554,-10.258034238271922,-0.4866666666666671,0.10222222222222198,0.7211111111111109,25.430138955218396,15.801458432827596,3.299816777487969
1588959977.6874495,-0.10508945299584879,-1.575447264979244,-11.937541603908747,-0.4866666666666671,0.10222222222222198,0.7211111111111109,24.37081664891077,14.21247497336615,5.562914431872452
1588959977.6974494,-0.5264891545532763,-1.539959244667844,-12.348629262328489,-0.472222222222222,0.11,0.726666666666667,9.034251460399403,18.462850382647286,4.916369492369697
1588959977.7074494,0.7592030500553438,-2.2483815028901737,-9.580796949944657,-0.472222222222222,0.11,0.726666666666667,-1.20923779362932,22.946408805804943,9.954256856475219
1588959977.7174494,0.3833763199044223,-2.594731626754748,-9.956623680095579,-0.472222222222222,0.11,0.726666666666667,-4.525356000843333,18.478860665530508,10.921458000245972
1588959977.7274494,0.3809931851851852,-2.6735442962962965,-9.861061333333332,-0.472222222222222,0.11,0.726666666666667,-4.010162962962963,13.86075925925926,9.40774074074074
1588959977.7374494,0.3975632592592593,-2.5658388148148146,-9.711930666666666,-0.472222222222222,0.11,0.726666666666667,-2.0942481481481483,10.494962962962964,5.783037037037037
1588959977.7474494,0.2753818106591503,-2.35846060355305,-9.4330787928939,-0.4933333333333329,0.128888888888889,0.714444444444444,-1.3316664942721936,7.788257027229707,-0.6540915673243515
1588959977.7574494,0.2701107852074993,-2.3554847596020454,-9.468282532006818,-0.4933333333333329,0.128888888888889,0.714444444444444,-0.8071329125213048,6.05176582504261,-2.817867087478695
1588959977.7674494,0.3608878329373515,-2.3789641949064233,-9.549408111375099,-0.4933333333333329,0.128888888888889,0.714444444444444,-1.0606503480471843,6.582846171480972,-2.552326914259514
1588959977.7774494,0.4133362510941603,-2.3177743737234797,-9.51444249927056,-0.4933333333333329,0.128888888888889,0.714444444444444,-0.9513828102204993,7.784789087574508,-1.9513554562127464
1588959977.7874494,0.35833950825193667,-2.2923827166434103,-9.483574074965116,-0.4933333333333329,0.128888888888889,0.714444444444444,-0.717283958042631,7.276851874127893,-3.416512293701583
1588959977.7974494,0.41693992037640243,-2.2732650199058995,-9.555307410423453,-0.508208871194756,0.128888888888889,0.7218822133751555,-0.4783127488237423,6.35075099529497,-5.246201196615997
1588959977.8074493,0.40375416019525184,-2.303754160195252,-9.641586421122698,-0.5111111111111111,0.128888888888889,0.7233333333333329,-0.3671094963390282,7.404329376525405,-6.332122254271134
1588959977.8174493,0.43759485245174173,-2.3375948524517414,-9.836170401597515,-0.5111111111111111,0.128888888888889,0.7233333333333329,0.2674034834701575,7.6687097847792325,-7.07238739738185
1588959977.8274493,0.29402478448275865,-2.3646384313423643,-9.632578509852218,-0.5111111111111111,0.128888888888889,0.7233333333333329,1.2615960783559113,8.965211764932267,-8.306701960822044
1588959977.8374493,0.06803879310344824,-2.4049930726600985,-9.568011083743842,-0.5111111111111111,0.128888888888889,0.7233333333333329,1.3624826816502462,8.662551955049262,-8.256258659174877
1588959977.8474493,-0.1509650749670413,-2.2452861260697605,-9.374321051102719,-0.506666666666667,0.124444444444444,0.7155555555555559,0.903128002592005,6.1665251491520126,-6.107601725024021
1588959977.8574493,0.0645934350769781,-2.1328208164815767,-9.477414251558555,-0.506666666666667,0.124444444444444,0.7155555555555559,0.08306845351149639,4.17495195852792,-2.7102121645476283
1588959977.8674493,0.3376262692372422,-2.2064646483534975,-9.640575761542346,-0.506666666666667,0.124444444444444,0.7155555555555559,0.014709594779063903,3.981628784337192,-0.6178029807206835
1588959977.8774493,0.581055862262562,-2.377237952652756,-9.806381023673623,-0.506666666666667,0.124444444444444,0.7155555555555559,0.13939365584354824,4.6282995695705065,0.5625
1588959977.8874493,1.0834142416019463,-2.549923645550669,-9.720038177224666,-0.506666666666667,0.124444444444444,0.7155555555555559,0.4828027042200805,6.198169505006082,0.5625
1588959977.8974493,1.0856688161864758,-2.570944802697746,-9.595196414837602,-0.506666666666667,0.11068235750392762,0.7367279970025046,1.098427424125895,11.921774241258948,-0.9261872892385967
1588959977.9074492,0.6408010988741446,-2.351111874218156,-9.564488949937452,-0.506666666666667,0.11,0.7377777777777779,1.5991669528318084,17.96082961318649,-3.3338872672864186
1588959977.9174492,-0.01273278132585082,-1.92,-9.52532388838202,-0.506666666666667,0.11,0.7377777777777779,1.3790486047752664,19.9748229071629,-4.176935755969083
1588959977.9274492,-0.21489903771668592,-1.92,-9.496442994611902,-0.506666666666667,0.11,0.7377777777777779,1.018037432648775,19.433306148973163,-3.725671790810969
1588959977.9374492,-0.21118811634003248,-1.928135313943328,-9.514405941829983,-0.506666666666667,0.11,0.7377777777777779,0.835808575708401,19.007425727125202,-1.591171514168019
1588959977.9474492,0.3329328514196133,-2.1551828949660337,-9.467457324507924,-0.5266829239969806,0.10082588205693954,0.7110894346706922,0.7186737937641526,20.34489309353771,2.252743424490507
1588959977.9574492,0.6150398040416412,-2.219248009797918,-9.560527862829149,-0.5333333333333329,0.09777777777777802,0.7022222222222221,0.8148499693815064,23.575650642988364,6.31909828536436
1588959977.9674492,0.9575015309246785,-2.2021249234537663,-9.800251071647276,-0.5333333333333329,0.09777777777777802,0.7022222222222221,0.868359614206981,22.4519481016534,9.315638395590938
1588959977.9774492,0.8516432376442734,-2.250821618822137,-9.774248668245042,-0.5333333333333329,0.09777777777777802,0.7022222222222221,1.489729764723291,17.9735822358686,9.274054823912401
1588959977.9874492,0.867159292690145,-2.2585796463450722,-9.719942475584492,-0.5333333333333329,0.09777777777777802,0.7022222222222221,1.3927544206865936,14.77339588265759,7.14059725510506
1588959977.9974492,0.88,-2.3,-9.49,-0.545555555555556,0.11,0.6877777777777779,1.375,11.875,5.3125
1588959978.0074492,0.8759358892889925,-2.3050801383887594,-9.475775612511473,-0.545555555555556,0.11,0.6877777777777779,1.330548789098355,11.709895502365319,5.03944256160418
1588959978.0174491,0.8407818136584152,-2.346872745366339,-9.359381763900982,-0.545555555555556,0.11,0.6877777777777779,0.908181987809429,10.030114908570718,2.5761366463490485
1588959978.0274491,0.8494775469585769,-2.3120898121656923,-9.463730563502924,-0.545555555555556,0.11,0.6877777777777779,0.5820919890533649,7.584439917900236,2.0326533150889414
1588959978.0374491,0.971972664070178,-2.2884754122229096,-9.340852473337458,-0.545555555555556,0.11,0.6877777777777779,0.06922819677501552,5.957684590325046,1.461885305572744
1588959978.047449,0.9246897546897547,-2.3059937032664304,-9.723228387773842,-0.545555555555556,0.14562100077251583,0.6800759397729097,0.7414567755476846,1.5842516069788797,0.43769677292404563
1588959978.057449,0.7326429154543361,-2.3269428338182654,-9.898842861030289,-0.545555555555556,0.151111111111111,0.6788888888888891,-0.21281241496242648,-4.819732118560693,-0.35330364431792016
1588959978.067449,0.469253553262303,-2.432298578695079,-9.881283570217487,-0.545555555555556,0.151111111111111,0.6788888888888891,-0.5969219014924748,-4.929477686140707,-0.024066941577878698
1588959978.077449,0.5837946198114831,-2.2913393113205744,-9.827968758962202,-0.545555555555556,0.151111111111111,0.6788888888888891,-1.0895646521232052,-4.519391813089116,1.4401504215819358
1588959978.087449,0.5161748270356572,-2.300706758914316,-9.627879723257053,-0.545555555555556,0.151111111111111,0.6788888888888891,-1.5819900878126663,-4.375,3.3128875066524746
1588959978.097449,0.6100822488287351,-2.244689224362311,-9.528921395106716,-0.5584877089478858,0.13589681300248718,0.6887781826594943,-1.6019195731389901,-4.46058042686101,4.605804268610099
1588959978.107449,0.7222858769931663,-2.1694920273348517,-9.370761958997722,-0.564444444444444,0.128888888888889,0.693333333333333,-1.4968251708428246,-3.4507901480637813,6.203374145785877
1588959978.117449,0.7939424829157176,-2.1535683371298404,-9.39464749430524,-0.564444444444444,0.128888888888889,0.693333333333333,-1.3973021070615035,-1.9081826594533031,6.700989464692483
1588959978.127449,0.8915886305652377,-2.175214883754357,-9.402747493621762,-0.564444444444444,0.128888888888889,0.693333333333333,-1.1032713176901794,-0.31974289410327356,6.706542635380359
1588959978.137449,1.042305508642064,-2.2430374788889287,-9.56853605950627,-0.564444444444444,0.128888888888889,0.693333333333333,-0.8206771712961299,-0.41394094290129,6.14135434259226
1588959978.147449,1.15,-2.3,-9.62,-0.5522222222222221,0.143333333333333,0.693333333333333,-0.3125,-0.5625,4.875
1588959978.157449,1.15,-2.3,-9.62,-0.5522222222222221,0.143333333333333,0.693333333333333,-0.3125,-0.5625,4.875
1588959978.167449,0.7727224906983706,-2.272041868023778,-9.577277509301629,-0.5522222222222221,0.143333333333333,0.693333333333333,0.44600778343240816,6.046792808878245,1.4787305414189795
1588959978.177449,0.808597271522046,-2.2989479536415343,-9.541402728477953,-0.5522222222222221,0.143333333333333,0.693333333333333,0.5581164735063935,6.663390604285165,1.1984588162340162
1588959978.187449,0.8205304000209025,-2.2894695999790975,-9.54,-0.5522222222222221,0.143333333333333,0.693333333333333,0.6612225001959606,6.852037500326601,1.1545924999346797
1588959978.197449,0.83,-2.28,-9.549388511426805,-0.5488319264292086,0.1388998696040076,0.6886390776199297,0.7206609017912291,6.867974058060531,1.0663218035824582
1588959978.207449,0.8572990767073123,-2.2709003077642294,-9.607299076707312,-0.537777777777778,0.124444444444444,0.673333333333333,0.5681269235264327,6.323753847052865,1.045619229420702
1588959978.217449,0.8523116318770854,-2.285376736245829,-9.663818576860402,-0.537777777777778,0.124444444444444,0.673333333333333,0.5625,5.8319769923178395,1.014447699231784
1588959978.227449,0.85,-2.2955886020584786,-9.646468387649128,-0.537777777777778,0.124444444444444,0.673333333333333,0.4577137114035251,4.849209691228201,0.8952137114035251
1588959978.237449,0.8603056497175141,-2.3,-9.59938870056497,-0.537777777777778,0.124444444444444,0.673333333333333,0.24617937853107344,3.028114406779661,0.5226536016949153
1588959978.247449,1.0174936303955664,-2.33226423164903,-9.533908240501386,-0.5444354763720222,0.12649296708882712,0.6866487305218217,0.03857795094009783,0.6411692641014672,-0.038073496866340595
1588959978.257449,1.3427191147952393,-2.3601471538841783,-9.489852846115822,-0.5522222222222221,0.128888888888889,0.7022222222222221,-0.15487043233583025,-2.168186052701624,-0.8984324499030382
1588959978.267449,1.5110158883004334,-2.3610158883004333,-9.455936446798267,-0.5522222222222221,0.128888888888889,0.7022222222222221,-0.3188493018777082,-4.3606162734713525,-2.8489106884930187
1588959978.277449,1.5129986462093863,-2.4890230144404333,-9.546024368231047,-0.5522222222222221,0.128888888888889,0.7022222222222221,-0.024932310469314045,-5.106258461191335,-6.931816899819495
1588959978.287449,1.2633013093187806,-2.3919807855912687,-9.53656319382483,-0.5522222222222221,0.128888888888889,0.7022222222222221,0.6976933890814019,-3.8915065465939036,-11.976087035461582
1588959978.2974489,0.805610573600553,-2.1863286109191433,-9.557890463026952,-0.5458368271519624,0.128888888888889,0.6937083621285415,1.1170892363510712,-2.297464581893573,-17.154284727021423
1588959978.3074489,0.5891257164333364,-2.160869115850794,-9.617392652447617,-0.545555555555556,0.128888888888889,0.693333333333333,0.8858639481349244,-2.369568025932538,-17.551636051865074
1588959978.3174489,0.45823162050834265,-2.1904420948729144,-9.696105237182286,-0.545555555555556,0.128888888888889,0.693333333333333,0.875,-2.612828866194643,-15.992829483115354
1588959978.3274488,0.2978091251763291,-2.2271535277385937,-9.658904562588166,-0.545555555555556,0.128888888888889,0.693333333333333,0.9174273870915524,-3.0693464838239715,-14.184751000161876
1588959978.3374488,0.10866075907038958,-2.249381374352115,-9.615927938471827,-0.545555555555556,0.128888888888889,0.693333333333333,0.46843128239424847,-3.425900769102157,-10.894671668617288
1588959978.3474488,0.25244348762109803,-2.2762468604233943,-9.51470398277718,-0.545555555555556,0.1270836821751783,0.6969437467607541,-0.03711428058844636,-2.1018568353067817,-6.123385360602798
1588959978.3574488,0.9175906638223115,-2.3169707617015933,-9.449397665955578,-0.545555555555556,0.124444444444444,0.7022222222222221,0.05303363031748024,0.6553363031748023,-2.448793763332915
1588959978.3674488,1.041933211583616,-2.3125515262196714,-9.541933211583617,-0.545555555555556,0.124444444444444,0.7022222222222221,0.015947038872945477,-1.5776480563527264,-2.9017414557787635
1588959978.3774488,1.1669024201569234,-2.301924798320256,-9.561924798320257,-0.545555555555556,0.124444444444444,0.7022222222222221,0.05047001049839761,-4.141450367443916,-4.588630304453531
1588959978.3874488,0.7783692412824357,-2.220329530570794,-9.626392057857672,-0.545555555555556,0.124444444444444,0.7022222222222221,0.26997518080522387,-7.550142603595225,-5.3524503616104475
1588959978.3974488,0.8700710862619808,-2.2622775559105435,-9.742277555910544,-0.5525464589989353,0.1265954916577918,0.6952313187788427,0.16325628993610222,-9.90947484025559,-5.381005391373802
1588959978.4074488,1.2675515774263466,-2.3887757887131733,-9.694284739503892,-0.56,0.128888888888889,0.6877777777777779,0.13945723288111103,-7.015704021835113,-6.601200630167777
1588959978.4174488,0.8512829475035038,-2.3093060128666227,-9.65915877277409,-0.56,0.128888888888889,0.6877777777777779,0.45977913986120256,-2.175407991827499,-8.528785269236614
1588959978.4274487,0.46154500736059745,-2.2015450073605978,-9.564798032386628,-0.56,0.128888888888889,0.6877777777777779,0.5894312592007468,0.5335311119887975,-8.868400147211949
1588959978.4374487,0.542760528122098,-2.2102236847417935,-9.445821052206565,-0.56,0.128888888888889,0.6877777777777779,0.5247203940727581,-0.535904631162434,-7.493009851818953
1588959978.4474487,0.6274426408615577,-2.2125573591384424,-9.464885281723117,-0.5474025371555421,0.11822949725127062,0.6926229557948769,0.39098349461526455,-2.9717228226939287,-5.512293682690807
1588959978.4574487,0.6669126904479519,-2.227225922209044,-9.51183438250768,-0.545555555555556,0.116666666666667,0.693333333333333,0.3596197123133534,-2.926035109327008,-4.804950506340663
1588959978.4674487,0.76257686342487,-2.271869202931606,-9.620253778548186,-0.545555555555556,0.116666666666667,0.693333333333333,0.3197596402396375,-2.2484138840738375,-3.4895681279080373
1588959978.4774487,0.8539589284751793,-2.261510267881205,-9.578367559604017,-0.545555555555556,0.116666666666667,0.693333333333333,0.3895405504949784,-1.9709188990100432,-3.25
1588959978.4874487,1.0001001224519197,-2.2907815313693005,-9.569659295541308,-0.545555555555556,0.116666666666667,0.693333333333333,0.3911573507167039,-1.4347448318086868,-3.782940466757905
1588959978.4974487,1.1886889185580773,-2.349320617966813,-9.609320617966812,-0.543479009049103,0.11874321317311984,0.6894768898213489,0.32918653442685486,0.030020980354758753,-5.23815563608621
1588959978.5074487,1.0599004272326351,-2.2808479189636164,-9.58,-0.537777777777778,0.124444444444444,0.6788888888888891,0.5218203038864389,3.3213827349779494,-8.413963444046306
1588959978.5174487,0.7729511588384522,-2.2261020664515656,-9.650236693677495,-0.537777777777778,0.124444444444444,0.6788888888888891,0.8917345016132607,3.906989667742174,-9.588341420162065
1588959978.5274487,0.42595254486208634,-2.22,-9.566634540364404,-0.537777777777778,0.124444444444444,0.6788888888888891,0.9905485566111341,3.2478687640552573,-8.944820207444124
1588959978.5374486,0.31821116624855794,-2.2264736042189304,-9.51763197890535,-0.537777777777778,0.124444444444444,0.6788888888888891,0.959539973631686,2.760859762685173,-7.355939050740694
1588959978.5474486,0.29927735972517583,-2.2485547194503517,-9.5,-0.5511784084919206,0.10382808949960895,0.6871354308668232,0.7635495051529527,1.2288795395059708,-4.011226075576641
1588959978.5574486,0.39079322033898306,-2.25,-9.490920677966102,-0.5522222222222221,0.10222222222222198,0.6877777777777779,0.5230169491525424,-0.4071355932203389,-1.712906779661017
1588959978.5674486,0.7706763307541717,-2.267651253845437,-9.666512538454366,-0.5522222222222221,0.10222222222222198,0.6877777777777779,0.5551601682669899,-0.8383008413349492,-0.34163646639321343
1588959978.5774486,0.7989003449524499,-2.27,-9.6478006899049,-0.5522222222222221,0.10222222222222198,0.6877777777777779,0.518542385317604,-1.050830458729584,-0.1875
1588959978.5874486,0.8032020822210357,-2.261198611852643,-9.603595835557929,-0.5522222222222221,0.10222222222222198,0.6877777777777779,0.4724956620395088,-1.1525043379604911,-0.15999566203950882
1588959978.5974486,0.8475464602577677,-2.243878564387163,-9.539392821935815,-0.5478011853907286,0.10664325905371574,0.6877777777777779,0.3801115411296506,-1.1301115411296505,-0.2015179451604659
1588959978.6074486,0.9343047497946966,-2.23,-9.524685687038067,-0.537777777777778,0.116666666666667,0.6877777777777779,0.3639285146626401,-0.6961906275662931,-0.6028570293252802
1588959978.6174486,0.898389080878856,-2.247203639707048,-9.67182365809581,-0.537777777777778,0.116666666666667,0.6877777777777779,0.32997725183095017,0.3601819853523984,-1.0725682445071494
1588959978.6274486,0.8224216780698596,-2.2781576341375582,-9.644947785379905,-0.537777777777778,0.116666666666667,0.6877777777777779,0.4532881706877926,1.0279556400792222,-1.2305911280158444
1588959978.6374485,0.7635339482836837,-2.2967669741418417,-9.584135793134735,-0.537777777777778,0.116666666666667,0.6877777777777779,0.5422935883865114,1.29605511870558,-1.2114679419325571
1588959978.6474485,0.7707048397717297,-2.294140967954346,-9.542422903863038,-0.5409985306311582,0.11390602136376958,0.6877777777777779,0.6294052485733099,0.4564979559920983,-0.8447137017120281
1588959978.6574485,0.8196600458365164,-2.3,-9.566553348612173,-0.545555555555556,0.11,0.6877777777777779,0.6077078558696205,-0.9678348612172141,-0.7069168576521517
1588959978.6674485,0.9020237957454689,-2.2495833429781715,-9.634821416170922,-0.545555555555556,0.11,0.6877777777777779,0.45498512765908194,-2.8430056595912134,-0.9750743617045902
1588959978.6774485,0.8578781583651384,-2.3453949466157784,-9.66,-0.545555555555556,0.11,0.6877777777777779,0.347347697956423,-4.384099171457558,-1.6034138122614618
1588959978.6874485,0.9342554957946793,-2.351590080496697,-9.539283110132477,-0.545555555555556,0.11,0.6877777777777779,0.27820542901490813,-7.87080595964336,-1.8810891419701838
1588959978.6974485,1.0443280313094683,-2.3078359843452656,-9.33660586693476,-0.545555555555556,0.11,0.6823715485978962,0.021924706473735234,-17.925972137445694,-2.8117886251840147
1588959978.7074485,0.6309967590599007,-2.3,-9.530215080570224,-0.545555555555556,0.11,0.6788888888888891,-0.9161945017337897,-30.398213516759967,-4.69365750288965
1588959978.7174485,0.3654583233437225,-2.2846287860624948,-9.647685606968754,-0.545555555555556,0.11,0.6788888888888891,-1.298035043554703,-30.406652081834892,-4.721614520898266
1588959978.7274485,0.3598379399482999,-2.28,-9.65,-0.545555555555556,0.11,0.6788888888888891,-1.0645257506462518,-20.55175606482402,-3.198641628554385
1588959978.7374485,0.37,-2.264216462835055,-9.622378809961345,-0.545555555555556,0.11,0.6788888888888891,-0.592235124516824,-11.240277073696216,-1.6861613649325138
1588959978.7474484,0.3827748790798644,-2.241419431008874,-9.56864455192901,-0.5444515536597653,0.10716113798225235,0.680939178123929,0.13267176372015083,-2.4914546597097917,-0.24232823627984917
1588959978.7574484,0.5220082135523614,-2.241141683778234,-9.522145790554415,-0.537777777777778,0.09,0.693333333333333,1.7830980492813142,10.26392453798768,1.6295559548254621
1588959978.7674484,0.6616288065264786,-2.273140164568535,-9.63628032913707,-0.537777777777778,0.09,0.693333333333333,2.606108024474295,18.97171038750967,2.8851800407904915
1588959978.7774484,0.7550621047877145,-2.2649604787714543,-9.64494918699187,-0.537777777777778,0.09,0.693333333333333,2.5310029923215898,21.46899700767841,3.0937147131887985
1588959978.7874484,0.7727276069802302,-2.2268939672483525,-9.559621574228583,-0.537777777777778,0.09,0.693333333333333,2.3319127046977965,21.493372953022032,2.9460237718132194
1588959978.7974484,0.6018219842730467,-2.2738865651664715,-9.484696335954492,-0.5356005428215566,0.0997975573029948,0.6862573197256148,3.1710515308683287,23.297567759745693,3.269229964865317
1588959978.8074484,0.5910313517217749,-2.3705156758608874,-9.56077351379133,-0.5333333333333329,0.11,0.6788888888888891,4.633057435326366,29.845382902175775,5.183318699674491
1588959978.8174484,0.8981578947368422,-2.3349932523616737,-9.67251012145749,-0.5333333333333329,0.11,0.6788888888888891,4.249915654520918,33.636934885290145,6.328188259109312
1588959978.8274484,1.0482806593074248,-2.317070164826856,-9.695859670346287,-0.5333333333333329,0.11,0.6788888888888891,3.4072376379857854,32.404827612278844,6.1648032284893395
1588959978.8374484,1.08144926510904,-2.33072463255452,-9.69536231627726,-0.5333333333333329,0.11,0.6788888888888891,2.7518118024726297,29.41757348909602,5.5978262792055045
1588959978.8474483,1.2153358031031067,-2.391901111396398,-9.601964567362359,-0.5403816324118565,0.11832980800189079,0.6872186968907799,2.1587453691816747,24.318680537725122,4.817490738363349
1588959978.8574483,1.2414933607030598,-2.38449483610238,-9.3349778690102,-0.545555555555556,0.124444444444444,0.693333333333333,1.3499262300339985,16.411872955288985,3.321741291936622
1588959978.8674483,1.1075650780937125,-2.3668289947937526,-9.462185822987585,-0.545555555555556,0.124444444444444,0.693333333333333,0.4451441730076091,8.14502903484181,1.5351071285542652
1588959978.8774483,1.0065055867909758,-2.3539516760372927,-9.602096647925416,-0.545555555555556,0.124444444444444,0.693333333333333,0.1875,5.185989876165397,0.8328299587217991
1588959978.8874483,1.0329568167655272,-2.3254086366468942,-9.575282387425855,-0.545555555555556,0.124444444444444,0.693333333333333,0.3470930366745909,6.072342303875182,0.9838870681099545
1588959978.8974483,1.1776623323603257,-2.3029437220600544,-9.453506501459511,-0.5475180369289253,0.12215488284217978,0.684829247382065,0.7537878401273755,7.970238216742534,1.3712121598726243
1588959978.9074483,1.215420961132497,-2.319158077735006,-9.388473653710832,-0.5522222222222221,0.116666666666667,0.664444444444444,1.0148016784635125,6.294064841259986,0.8907860424686452
1588959978.9174483,1.1861607862709718,-2.3696160786270974,-9.388446270203863,-0.5522222222222221,0.116666666666667,0.664444444444444,0.7332034399355012,2.2502255538065805,-0.09849262870964026
1588959978.9274483,1.1199875761699107,-2.326680470922321,-9.590004141276696,-0.5522222222222221,0.116666666666667,0.664444444444444,0.1459023546116074,-1.0415976453883926,-1.020824705673549
1588959978.9374483,1.1890787269681742,-2.264539363484087,-9.554112227805696,-0.5522222222222221,0.116666666666667,0.664444444444444,-0.1591289782244556,-1.2189593802345058,-1.133427554438861
1588959978.9474483,1.2404402696113581,-2.2902201348056788,-9.505110067402839,-0.5561967190910974,0.12064116353554179,0.6689867265803013,0.2249412914097232,-0.33618286605478276,-1.5346896063387352
1588959978.9574482,1.3618819344456679,-2.3719166596087065,-9.515993054967392,-0.56,0.124444444444444,0.673333333333333,0.7247395612772084,0.0,-2.2868054967392224
1588959978.9674482,1.1779096509240246,-2.4777707049965776,-9.567266940451745,-0.56,0.124444444444444,0.673333333333333,0.7437029431895962,0.13129705681040382,-3.442458076659822
1588959978.9774482,0.8651802199566508,-2.450834871959541,-9.63261860801156,-0.56,0.124444444444444,0.673333333333333,0.37760897487356504,-0.13875732519868345,-4.018975274945814
1588959978.9874482,0.8746047475899243,-2.3846710894578624,-9.639342178915726,-0.56,0.124444444444444,0.673333333333333,-0.37869674510210427,-0.6373341453301544,-3.3046918731211776
1588959978.9974482,0.9894699286442405,-2.3305300713557595,-9.646489976214747,-0.5557248209813619,0.124444444444444,0.673333333333333,-1.0811247026843358,-1.8774776305357346,-2.3377505946313284
1588959979.0074482,1.03,-2.2949193304617244,-9.635403347691378,-0.5522222222222221,0.124444444444444,0.673333333333333,-1.5267123384720018,-3.9490868000453414,-1.84627092307111
1588959979.0174482,1.0433060238123306,-2.3044353412707768,-9.641047388895437,-0.5522222222222221,0.124444444444444,0.673333333333333,-1.9788252976541318,-5.24294176588471,-1.3825702876340917
1588959979.0274482,1.081970703822794,-2.320985351911397,-9.515219721329046,-0.5522222222222221,0.124444444444444,0.673333333333333,-2.5651214719542694,-5.552804573061808,-0.8626831011075384
1588959979.0374482,1.0970931568778493,-2.33,-9.374186313755699,-0.5522222222222221,0.124444444444444,0.673333333333333,-2.7841611524327874,-6.404039702483931,-0.8590066170806552
1588959979.0474482,1.0917965879099372,-2.33,-9.363593175819874,-0.5522222222222221,0.124444444444444,0.673333333333333,-2.618643372185531,-7.595767720264178,-1.057627953377363
1588959979.0574481,1.0573895929339479,-2.32,-9.466961085509473,-0.5522222222222221,0.143333333333333,0.673333333333333,-1.8532466077828982,-9.366883480542755,-1.4592533922171018
1588959979.0674481,1.0179087795204615,-2.3079087795204614,-9.57325085631873,-0.5522222222222221,0.143333333333333,0.673333333333333,-1.5116448080043265,-9.76746721200649,-1.7252850639985577
1588959979.0774481,0.99,-2.28,-9.639773129435431,-0.5522222222222221,0.143333333333333,0.673333333333333,-1.1860820589714456,-9.08097747126865,-1.7613656471771564
1588959979.0874481,0.99,-2.28,-9.600710600331551,-0.5522222222222221,0.143333333333333,0.673333333333333,-0.9419412520721963,-7.957929759532103,-1.566053001657757
1588959979.097448,0.9817024173074801,-2.28609919423084,-9.57792560432687,-0.555352621100441,0.12991733814096648,0.675569332532061,-0.83688003605725,-6.4862600721145,-1.7126549909856874
1588959979.107448,0.9048762060441752,-2.2792572362650505,-9.565123793955825,-0.56,0.11,0.6788888888888891,-0.5594051511043776,-5.194764921058927,-1.4617865899848497
1588959979.117448,0.8960152261123268,-2.285862964989059,-9.518197939460247,-0.56,0.11,0.6788888888888891,-0.21335646881838075,-3.0047581601021154,-0.9135467952224654
1588959979.127448,0.9308489217030963,-2.3672326144687306,-9.462693845390609,-0.56,0.11,0.6788888888888891,0.38030576064435173,-0.2739807978521609,-0.24469423935564827
1588959979.137448,0.997172639399708,-2.339895762101022,-9.49,-0.56,0.11,0.6788888888888891,0.4728420075036502,-0.028135222799268056,-0.04482899624817491
1588959979.147448,1.0416536203522506,-2.2852625570776253,-9.493608936725375,-0.5616039718779443,0.11681688048126408,0.6873097412480975,0.007053163731245926,-2.0549575994781475,-0.48072610893672535
1588959979.157448,1.0763704870641353,-2.326370487064135,-9.529036103486918,-0.564444444444444,0.128888888888889,0.7022222222222221,-0.448606735094928,-5.286989630195053,-1.272213470189856
1588959979.167448,1.0632379649210102,-2.3132379649210097,-9.587889040925488,-0.564444444444444,0.128888888888889,0.7022222222222221,-0.6945437865406145,-8.304670978977486,-1.820437865406145
1588959979.177448,1.0062265121319545,-2.252453024263909,-9.61603860918759,-0.564444444444444,0.128888888888889,0.7022222222222221,-0.75,-12.560119069485516,-2.563674393402274
1588959979.187448,1.003926009078042,-2.243926009078042,-9.550184977304896,-0.564444444444444,0.128888888888889,0.7022222222222221,-0.7622687783688809,-14.490751134755234,-3.02222534042657
1588959979.197448,1.02,-2.264174795523529,-9.497475613429412,-0.5618931805133983,0.12633762495784337,0.6961919620215686,-0.9038236520772029,-17.113173092518362,-3.898970956231609
1588959979.207448,0.9544230566950668,-2.2991266084639386,-9.534703551768871,-0.5522222222222221,0.116666666666667,0.673333333333333,-1.4890826057992357,-21.298928859436906,-5.398587882612811
1588959979.217448,0.7104917082514239,-2.253757749886587,-9.797427541710771,-0.5522222222222221,0.116666666666667,0.673333333333333,-2.058165104087908,-30.928442713846465,-6.758669791824184
1588959979.227448,0.65,-2.17,-9.83,-0.5522222222222221,0.116666666666667,0.673333333333333,-2.0,-35.0,-6.875
1588959979.237448,0.6311702688455456,-2.1888297311544544,-9.547554032683184,-0.5522222222222221,0.116666666666667,0.673333333333333,-1.4115709014232998,-29.93950975224038,-5.87467053241961
1588959979.247448,0.6961942198021717,-2.263805780197828,-9.676427167574186,-0.5436763647689314,0.12018554914743333,0.6693117533553139,-1.2797326577955344,-18.336163288977673,-4.6264559235750875
1588959979.257448,0.74,-2.1913120472229677,-9.636093372685806,-0.5333333333333329,0.124444444444444,0.664444444444444,-0.9972665682854843,-16.445700295143546,-4.309766568285484
1588959979.267448,0.6990809567152103,-2.20835886933657,-9.61371991302589,-0.5333333333333329,0.124444444444444,0.664444444444444,-0.9462527179409386,-16.064004348705502,-4.630744020529935
1588959979.277448,0.6223274643938544,-2.2823274643938545,-9.56629225075698,-0.5333333333333329,0.124444444444444,0.664444444444444,-0.6780699786923854,-15.174559829539083,-5.230336716384434
1588959979.287448,0.6013656264925967,-2.2843906225123387,-9.474243750995065,-0.5333333333333329,0.124444444444444,0.664444444444444,-0.5085351655787295,-13.818281324629837,-5.625917946982964
1588959979.297448,0.5397829952462169,-2.317765721958123,-9.451062887832494,-0.5301060428283998,0.11947938212916218,0.6756158346538281,-0.3889642377617302,-12.484679482527126,-6.0073211888086515
1588959979.307448,0.4064318477120807,-2.3228636954241613,-9.461807010128524,-0.518888888888889,0.10222222222222198,0.714444444444444,-0.1762061866967235,-9.693244258676561,-5.807810469794455
1588959979.317448,0.4195638629283489,-2.349127725856698,-9.54716510903427,-0.518888888888889,0.10222222222222198,0.714444444444444,0.3572819314641744,-5.876752336448598,-4.904984423676012
1588959979.327448,0.44905577327747637,-2.3209442267225238,-9.753776906890094,-0.518888888888889,0.10222222222222198,0.714444444444444,-0.05543663970346918,-0.6261619432807584,-2.9351761134384833
1588959979.337448,0.4768903035071406,-2.2958658178957156,-9.664487757194287,-0.518888888888889,0.10222222222222198,0.714444444444444,0.2758386381517774,-1.105564396919629,-1.9505325680089645
1588959979.3474479,0.5176302248826388,-2.2747395502347225,-9.61104179906111,-0.5211270098330635,0.10169560552947508,0.711943015153896,0.43009445275824604,-1.2342946024066748,-1.2129722637912301
1588959979.3574479,0.5004337754453578,-2.3091324491092844,-9.473470203562863,-0.5373681009682734,0.09787417232119086,0.693791207414544,0.3763555482667432,-0.21325541706812068,-0.944277741333716
1588959979.3674479,0.4865576799692031,-2.3134423200307968,-9.524750160400359,-0.537777777777778,0.09777777777777802,0.693333333333333,0.06045649942255871,-0.3965145001924804,-0.6639419992300782
1588959979.3774478,0.5087043430401281,-2.3035975182627837,-9.605899379565695,-0.537777777777778,0.09777777777777802,0.693333333333333,-0.03687112228559992,-0.20684010057039928,-0.32059785599919943
1588959979.3874478,0.5597357770276241,-2.276754740990792,-9.596754740990791,-0.537777777777778,0.09777777777777802,0.693333333333333,-0.08113147523020095,0.18584860642265072,-0.0625
1588959979.3974478,0.5755992791515259,-2.2711001802121187,-9.593300540636355,-0.5364331130740776,0.09826674676094176,0.6943112712996606,-0.22937162102277764,0.2506148630683329,-0.05562387367425921
1588959979.4074478,0.54,-2.28,-9.60904675842254,-0.525555555555556,0.10222222222222198,0.7022222222222221,-0.028271120070438853,-0.21577112007043886,0.017114439964780574
1588959979.4174478,0.5316108869372578,-2.277203628979086,-9.607963710209141,-0.525555555555556,0.10222222222222198,0.7022222222222221,0.04502268111928687,0.032295869926418225,0.04502268111928687
1588959979.4274478,0.5134060535506403,-2.2802181606519207,-9.656157625145518,-0.525555555555556,0.10222222222222198,0.7022222222222221,0.06386350407450524,0.4800756693830035,0.0
1588959979.4374478,0.5275881533748027,-2.2949412310834645,-9.579647386500788,-0.525555555555556,0.10222222222222198,0.7022222222222221,0.1875,0.5308826942716554,0.015808652864172313
1588959979.4474478,0.55,-2.2806149309551205,-9.488155207134637,-0.5260338351873166,0.10222222222222198,0.7026321761923027,0.17597004459148446,0.44518663693901034,0.06634331846950518
1588959979.4574478,0.5553132806867529,-2.29,-9.491879684120518,-0.5333333333333329,0.10222222222222198,0.7088888888888891,0.016604002146102644,0.49608399141558945,0.125
1588959979.4674478,0.5693779655617591,-2.29,-9.576267793370555,-0.5333333333333329,0.10222222222222198,0.7088888888888891,0.060556142380497294,0.3202754304780108,0.125
1588959979.4774477,0.57,-2.2776144973425305,-9.672843492027592,-0.5333333333333329,0.10222222222222198,0.7088888888888891,-0.044728174827547214,0.4673187832183648,0.014909391609182405
1588959979.4874477,0.5688664543004165,-2.269622151433472,-9.650377848566528,-0.5333333333333329,0.10222222222222198,0.7088888888888891,-0.1780537858368047,0.5648615535407988,0.0625
1588959979.4974477,0.54,-2.2611606213120443,-9.655357514751822,-0.5335912491804539,0.10222222222222198,0.7085020151182077,0.06612694160013884,0.6177461167997224,0.05887305839986116
1588959979.5074477,0.54,-2.279358729607775,-9.5825650815689,-0.5376352732461724,0.10222222222222198,0.7024359790196304,0.12299603002429713,0.5040079399514058,0.002003969975702881
1588959979.5174477,0.5411235418514223,-2.275561770925711,-9.562247083702843,-0.537777777777778,0.10222222222222198,0.7022222222222221,0.1527389317143052,0.4548805341428474,-0.125
1588959979.5274477,0.5697359983627805,-2.28986799918139,-9.61947199672556,-0.537777777777778,0.10222222222222198,0.7022222222222221,0.0633250051163108,0.4995874974418446,-0.125
1588959979.5374477,0.5945365433295632,-2.274536543329563,-9.540926913340874,-0.537777777777778,0.10222222222222198,0.7022222222222221,0.0,0.19298688533419509,-0.09085339580977003
1588959979.5474477,0.5804889172059957,-2.2604889172059957,-9.568533248382012,-0.5375604812417799,0.10200492568622388,0.7028197876962169,0.0030557325374735923,-0.1311114650749472,-0.0030557325374735923
1588959979.5574477,0.5833652530779754,-2.2733173734610124,-9.546634746922024,-0.5333333333333329,0.09777777777777802,0.714444444444444,0.08323358413132695,-0.270733584131327,-0.08323358413132695
1588959979.5674477,0.552470919054028,-2.2764941838108057,-9.605575610459526,-0.5333333333333329,0.09777777777777802,0.714444444444444,0.08117729763507017,-0.3344113511824649,-0.125
1588959979.5774477,0.52,-2.2664172008931787,-9.675668803572714,-0.5333333333333329,0.09777777777777802,0.714444444444444,-0.04478498883526615,-0.3526075055823669,-0.125
1588959979.5874476,0.52,-2.266100471754848,-9.639832547075255,-0.5333333333333329,0.09777777777777802,0.714444444444444,-0.08687205153220094,-0.299790683844067,-0.125
1588959979.5974476,0.52,-2.2829164606358665,-9.611805898940222,-0.5333333333333329,0.09777777777777802,0.714444444444444,0.018227878974167083,-0.26475737367527763,-0.125
1588959979.6074476,0.5673621570999337,-2.29,-9.48633082296016,-0.5259658866733441,0.10198774729777166,0.6944470892244722,0.18090539274983417,-0.07239191087524877,-0.006594607250165835
1588959979.6174476,0.5625384191176471,-2.29,-9.517307904411764,-0.525555555555556,0.10222222222222198,0.693333333333333,0.14086511948529412,-0.0625,-0.04663488051470588
1588959979.6274476,0.5887832699619772,-2.2793916349809886,-9.61,-0.525555555555556,0.10222222222222198,0.693333333333333,-0.11739543726235742,-0.2652091254752852,0.16468631178707224
1588959979.6374476,0.5725098936913168,-2.271254946845658,-9.61,-0.525555555555556,0.10222222222222198,0.693333333333333,-0.015686835570730195,-0.4686263288585396,-0.1404394932878094
1588959979.6474476,0.5310699882026942,-2.2602674970506733,-9.58080249115202,-0.525555555555556,0.10222222222222198,0.693333333333333,0.0,-0.682484430299871,-0.0658437131334193
1588959979.6574476,0.5174723391897779,-2.2787361695948887,-9.578736169594888,-0.5333333333333329,0.09777777777777802,0.714444444444444,-0.08550529984027878,-0.5467021199361115,-0.015797880063888485
1588959979.6674476,0.5060548304205027,-2.2679817231931656,-9.578073107227336,-0.5333333333333329,0.09777777777777802,0.714444444444444,0.17488576995728605,-0.3618146197437163,-0.08715730987185814
1588959979.6774476,0.5274677943603969,-2.2608440685465343,-9.606623725813861,-0.5333333333333329,0.09777777777777802,0.714444444444444,0.1302754284158399,-0.09415257049503939,0.046673714752480305
1588959979.6874475,0.5542354948112346,-2.288588168396255,-9.56717633679251,-0.5333333333333329,0.09777777777777802,0.714444444444444,0.15220420990637884,0.3125,-0.04485210495318942
1588959979.6974475,0.5797892000568632,-2.280070266647712,-9.550140533295425,-0.5333333333333329,0.09777777777777802,0.714444444444444,-0.060743333807193184,0.3125,0.06162166690359659
1588959979.7074475,0.5847112141168911,-2.28,-9.560577571766219,-0.525555555555556,0.11,0.7155555555555559,-0.10847254411528488,0.2794450882305698,0.05889017646113953
1588959979.7174475,0.57,-2.2848013984655724,-9.611606293095075,-0.525555555555556,0.11,0.7155555555555559,-0.047495629795085946,0.14248688938525783,-0.07998688938525783
1588959979.7274475,0.5627706833310692,-2.292770683331069,-9.67277068333107,-0.525555555555556,0.11,0.7155555555555559,0.0,-0.0753053819680297,0.0625
1588959979.7374475,0.54,-2.27,-9.65,-0.525555555555556,0.11,0.7155555555555559,0.028645691579119264,-0.3220485638597064,0.0625
1588959979.7474475,0.54,-2.27,-9.65,-0.525555555555556,0.11,0.7155555555555559,0.17134001959610257,-0.36961333986536754,0.0625
1588959979.7574475,0.5579869263826915,-2.29,-9.555973852765383,-0.5333333333333329,0.09777777777777802,0.6877777777777779,0.1875,-0.47483657978364313,-0.012581710108178422
1588959979.7674475,0.5441746661617243,-2.29,-9.52834933232345,-0.5333333333333329,0.09777777777777802,0.6877777777777779,0.1875,-0.30218332702155337,-0.09890833648922333
1588959979.7774475,0.5867695536588778,-2.28,-9.576769553658877,-0.5333333333333329,0.09777777777777802,0.6877777777777779,0.16730971036798656,-0.0625,0.05576990345599552
1588959979.7874475,0.5618730791439269,-2.278126920856073,-9.548126920856074,-0.5333333333333329,0.09777777777777802,0.6877777777777779,0.0,-0.03908651070091456,0.0
1588959979.7974474,0.5696855849647028,-2.270314415035297,-9.540314415035297,-0.5333333333333329,0.09777777777777802,0.6877777777777779,0.0,0.05856981205878517,0.0
1588959979.8074474,0.5463609137353926,-2.262120304578464,-9.571518781686143,-0.5368354201873493,0.09164912578324998,0.708790298901873,-0.04924809638459882,0.013251903615401177,0.04924809638459882
1588959979.8174474,0.5309385366920637,-2.2728156100761914,-9.589385366920638,-0.537777777777778,0.09,0.714444444444444,0.056634145674601725,-0.0625,0.0625
1588959979.8274474,0.538583719149867,-2.2957511574496006,-9.66583719149867,-0.537777777777778,0.09,0.714444444444444,0.008851755313331627,-0.0625,0.0625
1588959979.8374474,0.57,-2.262938217372821,-9.609716239195125,-0.537777777777778,0.09,0.714444444444444,-0.1158180707099334,-0.10840964645033299,-0.0533180707099334
1588959979.8474474,0.57,-2.277796868357659,-9.557710960748194,-0.537777777777778,0.09,0.714444444444444,-0.06938478638231543,-0.34057606808842283,-0.006884786382315433
1588959979.8574474,0.5616106452614731,-2.264831935784419,-9.54483193578442,-0.525555555555556,0.09777777777777802,0.7088888888888891,0.042366934231586995,-0.3125,-0.1149334671157935
1588959979.8674474,0.5683676885551676,-2.2883676885551676,-9.581426180113827,-0.525555555555556,0.09777777777777802,0.7088888888888891,-0.0625,-0.33290389306040463,-0.0625
1588959979.8774474,0.558284381478922,-2.2782843814789215,-9.633137525915688,-0.525555555555556,0.09777777777777802,0.7088888888888891,-0.05177738424326192,-0.4803904630269523,-0.0625
1588959979.8874474,0.5529266588650377,-2.2670733411349624,-9.591220023404887,-0.525555555555556,0.09777777777777802,0.7088888888888891,0.018291617906485248,-0.6783541910467574,-0.08079161790648524
1588959979.8974473,0.5675784675038862,-2.252421532496114,-9.54726459748834,-0.525555555555556,0.09777777777777802,0.7088888888888891,0.1098654218992891,-0.6325672890503554,-0.1723654218992891
1588959979.9074473,0.57,-2.241840449333458,-9.54,-0.5355283397035521,0.11319026237013591,0.7134219725925233,0.023005616668220374,-0.5740028083341102,-0.1365028083341102
1588959979.9174473,0.6516866019105724,-2.1877938107088384,-9.507793810708838,-0.537777777777778,0.116666666666667,0.714444444444444,0.12175257887131734,-0.27677836758449065,-0.22646905354419203
1588959979.9274473,0.5170056996066469,-2.3140571566187687,-9.634057156618768,-0.537777777777778,0.116666666666667,0.714444444444444,0.06914285140884643,0.30192863450268925,-0.8577857830938428
1588959979.9374473,0.5204960494267213,-2.31,-9.598511851719836,-0.537777777777778,0.116666666666667,0.714444444444444,0.125,-0.13740123566803303,-1.1156990732489753
1588959979.9474473,0.5288017584506625,-2.31,-9.573594724648013,-0.537777777777778,0.116666666666667,0.714444444444444,0.125,-0.3450439612665598,-0.9599670290500801
1588959979.9574473,0.5568949900269858,-2.2968949900269857,-9.577762524932536,-0.525555555555556,0.09777777777777802,0.7088888888888891,0.125,-0.08618737533732254,-0.7208905315029919
1588959979.9674473,0.5380718827040353,-2.2790359413520176,-9.625784351887894,-0.525555555555556,0.09777777777777802,0.7088888888888891,0.11897463345011029,0.09487316725055145,-0.5444239003503308
1588959979.9774473,0.5244663941871026,-2.272233197093551,-9.666600817438692,-0.525555555555556,0.09777777777777802,0.7088888888888891,0.07645748183469572,-0.11771259082652136,-0.4168724455040872
1588959979.9874473,0.5105453023963484,-2.2902726511981744,-9.638364092810955,-0.525555555555556,0.09777777777777802,0.7088888888888891,0.06420406998858881,-0.06590813997717763,-0.30738779003423355
1588959979.9974473,0.5233084823126665,-2.2966542411563333,-9.600074553062,-0.525555555555556,0.09777777777777802,0.7088888888888891,0.10408900722708253,-0.14567801445416506,-0.18773297831875235
1588959980.0074472,0.5527255125284739,-2.2848496583143505,-9.534548974943052,-0.5205054416603393,0.0918859782333587,0.7088888888888891,0.030310364464692485,-0.2821896355353075,-0.07765518223234624
1588959980.0174472,0.5523283060392259,-2.28,-9.535343387921548,-0.518888888888889,0.09,0.7088888888888891,-0.0479480872548385,-0.1686557382354845,-0.0625
1588959980.0274472,0.54,-2.280151317018494,-9.639546048944517,-0.518888888888889,0.09,0.7088888888888891,-0.0009457313655893891,0.1254728656827947,0.06202713431720531
1588959980.0374472,0.54,-2.2997398654959835,-9.58078040351205,-0.518888888888889,0.09,0.7088888888888891,-0.12337415934989725,0.18668707967494863,0.0008129203250513764
1588959980.0474472,0.548141241270778,-2.275576276187666,-9.563717517458445,-0.518888888888889,0.09,0.7088888888888891,-0.125,-0.06691378971181272,0.0
1588959980.0574472,0.55,-2.2793451439417907,-9.54130971211642,-0.518888888888889,0.09571092129776079,0.7016204436008295,-0.03738927554571339,0.0210178740904777,0.02920357481809554
1588959980.0674472,0.5490117898816974,-2.29,-9.53185852141963,-0.518888888888889,0.10222222222222198,0.693333333333333,0.06867631323939112,0.16897106028182662,0.0625
1588959980.0774472,0.5405442726208262,-2.29,-9.633468728550087,-0.518888888888889,0.10222222222222198,0.693333333333333,0.12159829611983689,0.010205111640489345,0.0625
1588959980.0874472,0.5597664276022486,-2.2995328552044967,-9.599299282806745,-0.518888888888889,0.10222222222222198,0.693333333333333,0.12354017251405311,-0.002919654971893778,-0.06104017251405311
1588959980.0974472,0.5516363636363637,-2.283272727272727,-9.574909090909092,-0.518888888888889,0.10222222222222198,0.693333333333333,0.07272727272727272,-0.10454545454545455,-0.010227272727272724
1588959980.1074471,0.5492416079569001,-2.28,-9.5605055946954,-0.5333333333333329,0.09777777777777802,0.693333333333333,0.0,-0.18592001657687526,-0.001579983423124741
1588959980.1174471,0.5197006006327276,-2.2797006006327276,-9.582095795570908,-0.5333333333333329,0.09777777777777802,0.693333333333333,0.0018712460454524613,-0.12125750790909508,-0.0625
1588959980.1274471,0.5132903363848941,-2.273290336384894,-9.626967645305742,-0.5333333333333329,0.09777777777777802,0.693333333333333,0.041935397594412435,-0.04112920481117513,-0.0625
1588959980.137447,0.5174648041832742,-2.277464804183274,-9.635070391633452,-0.5333333333333329,0.09777777777777802,0.693333333333333,0.0625,0.13996507843639155,-0.01584497385453615
1588959980.147447,0.5420386195174921,-2.28,-9.580413106085643,-0.5333333333333329,0.09777777777777802,0.693333333333333,0.02806465700391861,0.29080602898824415,0.03443534299608139
1588959980.157447,0.5652845208070618,-2.2747154791929383,-9.545284520807062,-0.5333333333333329,0.09366759492784094,0.6968563472047077,0.033028255044136194,0.3419717449558638,0.1285565100882724
1588959980.167447,0.57,-2.2637195952316103,-9.537439190463221,-0.5333333333333329,0.09,0.7,-0.05525758940730344,0.19474241059269656,0.06974241059269656
1588959980.177447,0.5503835860838537,-2.2894246208742195,-9.657506690454952,-0.5333333333333329,0.09,0.7,-0.125,0.18630129348795718,0.0
1588959980.187447,0.5571283690869088,-2.282871630913091,-9.638614892739275,-0.5333333333333329,0.09,0.7,0.053209227172717255,0.009290772827282745,0.0
1588959980.197447,0.5466879417660091,-2.266687941766009,-9.603375883532019,-0.5333333333333329,0.09,0.7,0.08339981801877835,-0.1457003639624433,0.12480054594366495
1588959980.207447,0.5330576708656561,-2.266942329134344,-9.562230683462625,-0.5279337440066215,0.09539958932671212,0.7015427398076318,0.10588955708964962,-0.1875,0.05733132873105115
1588959980.217447,0.5496231257598272,-2.2798115628799134,-9.57943468863974,-0.525555555555556,0.09777777777777802,0.7022222222222221,0.125,-0.06485546400108065,0.0
1588959980.227447,0.5340725845247947,-2.2879637077376027,-9.619818538688014,-0.525555555555556,0.09777777777777802,0.7022222222222221,0.02545365327996614,0.03704634672003386,0.04977317336001693
1588959980.237447,0.5404629744866211,-2.3098456751711263,-9.579845675171127,-0.525555555555556,0.09777777777777802,0.7022222222222221,-0.06346453018046048,-0.05671281891723709,0.0
1588959980.247447,0.5628345630722731,-2.302388478975909,-9.57238847897591,-0.525555555555556,0.09777777777777802,0.7022222222222221,-0.11007200640056894,0.22293203840341363,0.0
1588959980.257447,0.5400659331686706,-2.2799340668313293,-9.54006593316867,-0.545555555555556,0.10222222222222198,0.693333333333333,0.062087917695809264,0.3741758353916185,0.0004120823041907367
1588959980.267447,0.5486276511053503,-2.27137234889465,-9.54862765110535,-0.545555555555556,0.10222222222222198,0.693333333333333,0.008577180591561373,0.26715436118312275,0.05392281940843863
1588959980.277447,0.5563565975418269,-2.2763565975418265,-9.613565975418268,-0.545555555555556,0.10222222222222198,0.693333333333333,0.03972873463641778,0.17054253072716444,0.0625
1588959980.287447,0.5513837623762377,-2.2713837623762374,-9.598302574257426,-0.545555555555556,0.10222222222222198,0.693333333333333,0.00864851485148515,0.2327029702970297,0.0625
1588959980.297447,0.5445042237818214,-2.2809915524363573,-9.573512671345464,-0.545555555555556,0.10222222222222198,0.693333333333333,-0.10304580409085062,0.07825699318191565,-0.006197202727233744
1588959980.307447,0.5481940298507463,-2.2818059701492537,-9.551805970149253,-0.5373615257048098,0.1081401326699834,0.7056243781094524,-0.11068097014925372,-0.011287313432835823,-0.03689365671641791
1588959980.317447,0.5503068501044444,-2.27,-9.54,-0.525555555555556,0.116666666666667,0.7233333333333329,0.0,0.0625,0.060582186847223225
1588959980.327447,0.5750988496386032,-2.27,-9.632029115341545,-0.525555555555556,0.116666666666667,0.7233333333333329,-0.0522892700804235,0.1147892700804235,0.0102107299195765
1588959980.337447,0.5481302264399136,-2.2779674433900214,-9.618130226439913,-0.525555555555556,0.116666666666667,0.7233333333333329,-0.012703478812364936,0.07520347881236494,0.09959304237527013
1588959980.347447,0.54,-2.28,-9.583366401984119,-0.525555555555556,0.116666666666667,0.7233333333333329,0.0,-0.062344990699441966,0.08338500310018601
1588959980.357447,0.5454205687773864,-2.28,-9.548317724890454,-0.5153167034204928,0.10883695621044193,0.7155036228771086,-0.10163566457599452,-0.19275710971732968,-0.005257109717329664
1588959980.367447,0.5352122472393518,-2.272606123619676,-9.544787752760648,-0.506666666666667,0.10222222222222198,0.7088888888888891,-0.0026530904918972975,-0.25,0.02992345475405135
1588959980.377447,0.5438011463142812,-2.283801146314281,-9.619005731571406,-0.506666666666667,0.10222222222222198,0.7088888888888891,0.0625,-0.12061425330361408,0.01937141776787136
1588959980.3874469,0.5594255790677725,-2.29,-9.602872104661138,-0.506666666666667,0.10222222222222198,0.7088888888888891,-0.11422960752073205,-0.0625,-0.05890986917357736
1588959980.3974469,0.56,-2.2754728805013325,-9.585472880501333,-0.506666666666667,0.10222222222222198,0.7088888888888891,-0.03420550313332853,-0.10789724843333573,0.11908899373334295
1588959980.4074469,0.5425051509304379,-2.287494849069562,-9.562505150930438,-0.5231895796768091,0.10222222222222198,0.7137485691859891,0.0,-0.07032859665761847,0.13282859665761848
1588959980.4174469,0.54,-2.2810474020482947,-9.542094804096589,-0.525555555555556,0.10222222222222198,0.714444444444444,-0.11190747439631683,0.21726868599079208,0.125
1588959980.4274468,0.5209653421353307,-2.2704826710676653,-9.644690618255682,-0.525555555555556,0.10222222222222198,0.714444444444444,0.05344991748127459,0.30948330582709155,0.06551669417290847
1588959980.4374468,0.528655296889523,-2.287310593779046,-9.58941292177334,-0.525555555555556,0.10222222222222198,0.714444444444444,0.0625,0.3665956055595184,0.11659560555951841
1588959980.4474468,0.5400197747640352,-2.274970337853947,-9.574990112617982,-0.525555555555556,0.10222222222222198,0.714444444444444,0.03118820386239008,0.3436882038623901,0.09368820386239007
1588959980.4574468,0.55,-2.2677519190934565,-9.55966410787539,-0.5307235016178605,0.1010737897639322,0.7107120389550019,0.016149831444701678,0.26405050566589494,0.07864983144470168
1588959980.4674468,0.5821291460354067,-2.29,-9.570161432544259,-0.545555555555556,0.09777777777777802,0.7,0.012298209319677136,0.17520179068032288,0.024596418639354273
1588959980.4774468,0.575554289825529,-2.2827771449127643,-9.64500569578512,-0.545555555555556,0.09777777777777802,0.7,0.045142844295221536,0.052071467114335385,0.045142844295221536
1588959980.4874468,0.5633727936485433,-2.273372793648543,-9.636863968242716,-0.545555555555556,0.09777777777777802,0.7,-0.020340079393209046,-0.04142003969660452,0.10392003969660452
1588959980.4974468,0.56,-2.2639367576806766,-9.589683788403383,-0.545555555555556,0.09777777777777802,0.7,-0.0625,-0.1761857934873121,0.04920947100845861
1588959980.5074468,0.550092144952688,-2.269907855047312,-9.555138217429032,-0.5395007552488649,0.09777777777777802,0.7044034911321388,0.030386141068550893,-0.1880759059542994,0.0
1588959980.5174468,0.5460445778559846,-2.292089155711969,-9.552089155711968,-0.5333333333333329,0.09777777777777802,0.7088888888888891,0.04944277680019321,-0.1627786115999034,-0.037778611599903394
1588959980.5274467,0.5386987152153359,-2.2830480728230036,-9.58825321196166,-0.5333333333333329,0.09777777777777802,0.7088888888888891,-0.035316514952075495,-0.08155045514377351,-0.0625
1588959980.5374467,0.5822836013901237,-2.2774690859128746,-9.61,-0.5333333333333329,0.09777777777777802,0.7088888888888891,-0.10918178695546756,0.8402721651984159,0.12422714782187022
1588959980.5474467,0.5736226366274235,-2.293188681686288,-9.583622636627423,-0.5333333333333329,0.09777777777777802,0.7088888888888891,-0.24864389080895263,0.9601414789213965,0.10507073946069824
1588959980.5574467,0.5528210764111489,-2.2784632292334464,-9.548463229233446,-0.5141895370963968,0.10096841048393378,0.6977216744173423,-0.22276345513935952,-0.06723372103672498,0.0625
1588959980.5674467,0.6245395696571846,-2.27,-9.54,-0.506666666666667,0.10222222222222198,0.693333333333333,0.092023386214442,-0.7636106172501824,-0.12384892414296134
1588959980.5774467,0.4867783170233644,-2.3271275890418224,-9.703221682976636,-0.506666666666667,0.10222222222222198,0.693333333333333,0.2895135518603973,-2.0481558463945686,-0.2895135518603973
1588959980.5874467,0.5626982274711788,-2.276607247047462,-9.592083576444077,-0.506666666666667,0.10222222222222198,0.693333333333333,0.004340784258495434,-0.11136274470353902,0.08370470595336293
1588959980.5974467,0.569168692351237,-2.272684059804868,-9.575368119609736,-0.506666666666667,0.10222222222222198,0.693333333333333,-0.21006522426825613,0.6423695514634877,0.16493477573174387
1588959980.6074467,0.5269766553318306,-2.2965116723340846,-9.609070034004509,-0.515968873775774,0.10222222222222198,0.6987596208136458,-0.20348976044014824,0.6337184312077332,0.0625
1588959980.6174467,0.554841747630685,-2.29,-9.577420873815342,-0.5333333333333329,0.10222222222222198,0.7088888888888891,-0.04638046134589021,0.9072390773082196,0.0625
1588959980.6274467,0.5659944537482218,-2.284005546251778,-9.60997226874111,-0.5333333333333329,0.10222222222222198,0.7088888888888891,-0.0625,0.6502079844416833,0.0625
1588959980.6374466,0.57,-2.261288351328246,-9.617525567552164,-0.5333333333333329,0.10222222222222198,0.7088888888888891,0.01546520279897412,0.5,0.10148260139948706
1588959980.6474466,0.57,-2.268112923311774,-9.5858494355843,-0.5333333333333329,0.10222222222222198,0.7088888888888891,-0.05070577069858996,0.38679422930141005,0.08726474310047001
1588959980.6574466,0.57,-2.284268039652655,-9.56146392069469,-0.5238488007718775,0.10222222222222198,0.6998785829555062,-0.018299008683624066,0.285824752170906,0.009149504341812033
1588959980.6674466,0.5557335323461251,-2.2852445107820416,-9.545244510782041,-0.5111111111111111,0.10222222222222198,0.6877777777777779,0.09527819238776071,0.13111276955104284,-0.003056384775521427
1588959980.6774466,0.5740589156257445,-2.270268881249787,-9.574058915625743,-0.5111111111111111,0.10222222222222198,0.6877777777777779,0.032090253905585245,-0.09122923828324428,0.0016805078111704827
1588959980.6874466,0.5803219765180436,-2.268479435280559,-9.576082258877763,-0.5111111111111111,0.10222222222222198,0.6877777777777779,0.1324911762587337,-0.7174647050349348,-0.08899823525174674
1588959980.6974466,0.5225235721982758,-2.293107320851293,-9.586798390355604,-0.5111111111111111,0.10222222222222198,0.6877777777777779,0.2578861631196121,-1.464806918440194,-0.09769308155980604
1588959980.7074466,0.5303831855876465,-2.291770088647412,-9.605310265942236,-0.513474247767928,0.10087185841832673,0.6941920058462812,0.1305315270231627,-1.0252627251930226,-0.08148949099227909
1588959980.7174466,0.585444120505345,-2.2597039196631035,-9.528519598315517,-0.518888888888889,0.09777777777777802,0.7088888888888891,0.030324748947197926,0.0625,-0.09467525105280207
1588959980.7274466,0.556318295171163,-2.283681704828837,-9.648408524144184,-0.518888888888889,0.09777777777777802,0.7088888888888891,0.10525532759011562,0.01974467240988438,-0.0625
1588959980.7374465,0.5442810919432571,-2.272843275829771,-9.628529827489313,-0.518888888888889,0.09777777777777802,0.7088888888888891,-0.017972701418572573,-0.03574317535464314,0.04472952606392944
1588959980.7474465,0.5339753334289402,-2.2630123332855296,-9.580963000143411,-0.518888888888889,0.09777777777777802,0.7088888888888891,-0.04969166786175247,-0.006018750896314352,0.06851875089631435
1588959980.7574465,0.5211449880207126,-2.2722899760414252,-9.557710023958576,-0.5205427604743627,0.09777777777777802,0.7088888888888891,0.11784382487054641,0.13931235025890717,-0.048187649741092825
1588959980.7674465,0.5477671262722151,-2.2722328737277846,-9.534077624575927,-0.5333333333333329,0.09777777777777802,0.7088888888888891,0.025485153599551807,0.28701484640044816,-0.011529692800896385
1588959980.7774465,0.56,-2.26703120429059,-9.62140565577767,-0.5333333333333329,0.09777777777777802,0.7088888888888891,0.04394502681618723,0.3564450268161872,-0.10644502681618723
1588959980.7874465,0.5533677220971948,-2.276632277902805,-9.606941776777557,-0.5333333333333329,0.09777777777777802,0.7088888888888891,0.02104826310746674,0.16774131553733374,-0.0006447893224002382
1588959980.7974465,0.55,-2.2853039558745034,-9.574696044125497,-0.5333333333333329,0.09777777777777802,0.7088888888888891,-0.03314972421564557,0.32769779372516455,-0.0037994484312911386
1588959980.8074465,0.546739446087658,-2.2802183382629737,-9.556957784350631,-0.5347824684054852,0.09777777777777802,0.7088888888888891,-0.042121538047862325,0.5421215380478623,0.019013847808550685
1588959980.8174465,0.5415751141387057,-2.2615751141387057,-9.534725342416117,-0.537777777777778,0.09777777777777802,0.7088888888888891,0.0,0.5196889267338213,0.1678110732661787
1588959980.8274465,0.5559418907750017,-2.27,-9.619418907750017,-0.537777777777778,0.09777777777777802,0.7088888888888891,0.07427363468751987,0.43931591328120034,0.0625
1588959980.8374465,0.554198250149135,-2.264198250149135,-9.62518950089481,-0.537777777777778,0.09777777777777802,0.7088888888888891,0.125,0.09493438059256312,0.0625
1588959980.8474464,0.5647369910502671,-2.267368495525133,-9.585263008949733,-0.537777777777778,0.09777777777777802,0.7088888888888891,0.1480265485160423,-0.17763274258021156,0.01644690296791538
1588959980.8574464,0.5877977536027126,-2.28,-9.557797753602713,-0.5336179790273463,0.09777777777777802,0.7069313365357447,0.17373596001695393,-0.38876403998304604,-0.021207880050861827
1588959980.8674464,0.58,-2.27027439845299,-9.57917680464103,-0.518888888888889,0.09777777777777802,0.7,0.09460749516559372,-0.49828500966881256,0.06421499033118744
1588959980.8774464,0.5614258279906639,-2.278574172009336,-9.65953112535823,-0.518888888888889,0.09777777777777802,0.7,-0.014892383372233878,-0.4464114249416492,-0.07739238337223388
1588959980.8874464,0.5451933290316177,-2.2851933290316175,-9.656353303221323,-0.518888888888889,0.09777777777777802,0.7,0.0276250806571698,-0.25483322579044027,-0.09495830644761007
1588959980.8974464,0.542943030032626,-2.271170909902122,-9.599398789771618,-0.518888888888889,0.09777777777777802,0.7,0.08821212459217534,-0.06981818688826302,-0.02571212459217534
1588959980.9074464,0.5464427908568008,-2.2571144182863985,-9.542885581713602,-0.521260361651022,0.09777777777777802,0.7051381909846209,-0.0222325571449954,0.12919767143498623,0.018034885710009198
1588959980.9174464,0.5485340654576982,-2.27,-9.53,-0.525555555555556,0.09777777777777802,0.714444444444444,-0.009162090889386604,0.25,-0.0358310454446933
1588959980.9274464,0.5651205860403001,-2.2751205860403,-9.5760852743627,-0.525555555555556,0.09777777777777802,0.714444444444444,-0.001507325503751128,0.1539890117443733,0.032003662751875564
1588959980.9374464,0.5809434203789042,-2.252641449052739,-9.609056579621095,-0.525555555555556,0.09777777777777802,0.714444444444444,-0.09669818868407579,0.09669818868407579,-0.005896377368151559
1588959980.9474463,0.6272567456289856,-2.0650058407859206,-9.578710431069151,-0.525555555555556,0.09777777777777802,0.714444444444444,-0.0584700970910971,0.125,-0.1290299029089029
1588959980.9574463,0.6051925784549921,-2.002211132317512,-9.549038515690999,-0.5298183550090562,0.09351497832427727,0.7065278168879431,-0.03425463846562999,0.15925463846562998,-0.6670649385188199
1588959980.9674463,0.5196357650611252,-2.1968590240936066,-9.574597915661892,-0.5333333333333329,0.09,0.7,-0.09853949548113822,0.07938151355658538,-1.3147764683679675
1588959980.9774463,0.5518897234551041,-2.302377944691021,-9.643322806418572,-0.5333333333333329,0.09,0.7,-0.24104323147832024,1.1604323147832025,-1.3452756913622397
1588959980.9874463,0.573922054516783,-2.2671254787114217,-9.627125478711422,-0.5333333333333329,0.09,0.7,-0.24550856048659608,1.3055727641360666,-1.25
1588959980.9974463,0.557124419808328,-2.232875580191672,-9.57562209904164,-0.5333333333333329,0.09,0.7,-0.16952762380205028,0.7406104952082011,-1.2679723761979498
1588959981.0074463,0.550121548068254,-2.2398784519317463,-9.540607740341269,-0.5333333333333329,0.09,0.7,-0.12575967542658698,0.5655387017063479,-1.311740324573413
1588959981.0174463,0.5284688606314573,-2.23,-9.481291814175277,-0.5333333333333329,0.10222222222222198,0.7233333333333329,-0.375,0.9007172982443465,-1.0191392421067842
1588959981.0274463,0.5491550265967625,-2.2190153457579123,-9.521829627645324,-0.5333333333333329,0.10222222222222198,0.7233333333333329,-0.39084325131070374,1.1514054188511729,-0.7341567486892963
1588959981.0374463,0.529546755356176,-1.8212468094980279,-9.587280532137056,-0.5333333333333329,0.10222222222222198,0.7233333333333329,-0.5407224069920334,1.546387965039833,-0.5842775930079666
1588959981.0474463,0.5180802769522193,-1.2649854665403835,-9.499627682158138,-0.5333333333333329,0.10222222222222198,0.7233333333333329,-0.4663321793657533,3.450224942029459,-0.8438408341226036
1588959981.0574462,0.5748803913026259,-1.0188516376886212,-9.506363618361123,-0.535055821792722,0.10049973376283323,0.7254864439075693,-0.08433007247811791,9.44318215572894,-1.9219498792031366
1588959981.0674462,0.6547763991453311,-0.6519886044157889,-9.319800202421563,-0.537777777777778,0.09777777777777802,0.7288888888888891,0.27176500356112004,13.4316124376804,-3.1262487348652397
1588959981.0774462,0.7173633066685176,-0.47912110222283916,-9.279287164448455,-0.537777777777778,0.09777777777777802,0.7288888888888891,0.3245241111246074,17.59619288899686,-4.605103333391175
1588959981.0874462,0.7424588997224397,-0.5465582520817024,-9.331147249306099,-0.537777777777778,0.09777777777777802,0.7288888888888891,0.633197815102128,18.67519215714184,-6.6854672265319195
1588959981.0974462,0.7349753644433585,-0.6847782799902272,-9.285073906669924,-0.537777777777778,0.09777777777777802,0.7288888888888891,0.8121920555419823,13.954129000732959,-9.774629194152618
1588959981.1074462,0.78024108421298,-0.7529949052645599,-9.28724617894842,-0.5422490093569982,0.10480399883083787,0.7256951520465887,0.7672113815723752,5.999448486563884,-12.274745263227999
1588959981.1174462,0.81,-0.7808099296035569,-9.327024824008893,-0.545555555555556,0.11,0.7233333333333329,0.552375879955539,-0.8206650611337536,-14.341117080400148
1588959981.1274462,0.8057077385424494,-0.79,-9.401507137490608,-0.545555555555556,0.11,0.7233333333333329,0.49115326821938393,-4.823065364387679,-16.0456658527423
1588959981.1374462,0.8038663571212274,-0.7668018572726355,-9.45453457151509,-0.545555555555556,0.11,0.7233333333333329,0.5625,-5.863364287877259,-17.348300444130413
1588959981.1474462,0.8065396991693482,-0.747301504153259,-9.414428646262067,-0.545555555555556,0.11,0.7233333333333329,0.6057537603831475,-4.601193594252788,-18.162201601436802
1588959981.1574461,0.7939847339669236,-0.8100763301653819,-9.357931302851156,-0.545555555555556,0.11,0.7233333333333329,0.762690825413455,-2.247137618798174,-18.750715595300456
1588959981.1674461,0.7888349514563107,-0.8046601941747573,-9.268834951456311,-0.545555555555556,0.09777777777777802,0.693333333333333,0.966626213592233,3.954490291262136,-19.38531553398058
1588959981.1774461,0.780243947400762,-0.8390242103969522,-9.260243947400761,-0.545555555555556,0.09777777777777802,0.693333333333333,1.1814013149809512,7.766748340911884,-19.922253287452378
1588959981.187446,0.7748225819312655,-0.9748225819312655,-9.427411290965633,-0.545555555555556,0.09777777777777802,0.693333333333333,1.2360382943943864,10.4375,-21.307409197831113
1588959981.197446,0.76,-0.9558888153921371,-9.411777630784274,-0.545555555555556,0.09777777777777802,0.693333333333333,1.3578700641339048,10.171985994075524,-22.33310445486181
1588959981.207446,0.7676817143408733,-0.9338408571704366,-9.36,-0.5481161270025136,0.09777777777777802,0.693333333333333,1.2019892853695422,7.659812493966987,-23.658091074358893
1588959981.217446,0.8027264572203173,-0.9718170401084443,-9.396362331552508,-0.5522222222222221,0.09777777777777802,0.693333333333333,1.2386322861015868,5.573890140339686,-24.624988786779365
1588959981.227446,0.83,-1.0030199157410953,-9.446980084258904,-0.5522222222222221,0.09777777777777802,0.693333333333333,1.353187236690923,4.600248946763692,-25.19631486978169
1588959981.237446,0.8341559576146995,-1.019091703302897,-9.443376169541201,-0.5522222222222221,0.09777777777777802,0.693333333333333,1.3125,4.723222086010597,-25.640424205275618
1588959981.247446,0.84,-1.040188344326314,-9.400188344326313,-0.5522222222222221,0.09777777777777802,0.693333333333333,1.3372645695921075,5.62029139184215,-25.94811655673686
1588959981.257446,0.8431932884570746,-0.9972268461717014,-9.350840269257551,-0.5500933632508391,0.09139120086362873,0.7000747200760461,1.375,6.634454687137315,-26.42962247571045
1588959981.267446,0.8546333917483395,-0.9839001752450185,-9.328533566993357,-0.545555555555556,0.077777777777778,0.714444444444444,1.375,7.013747809437269,-27.102086984271217
1588959981.277446,0.8777072893526889,-1.0398414010435502,-9.403121868058067,-0.545555555555556,0.077777777777778,0.714444444444444,1.4580029188407295,6.369817766182776,-27.797179314976493
1588959981.287446,0.9100019643471001,-1.0749970534793498,-9.45499705347935,-0.545555555555556,0.077777777777778,0.714444444444444,1.5625,5.531194752737809,-28.68758594018563
1588959981.297446,0.9228013342158886,-1.0712053368635543,-9.434397331568222,-0.545555555555556,0.077777777777778,0.714444444444444,1.5625,5.285016677698607,-29.23005003309582
1588959981.307446,0.9282450129138601,-1.0929800516554402,-9.42350997417228,-0.545555555555556,0.077777777777778,0.714444444444444,1.5625,5.35306266142325,-29.43418798426975
1588959981.317446,0.9556726515742909,-1.1329820452771273,-9.357836325787146,-0.5522222222222221,0.09,0.7233333333333329,1.5270459276606818,5.907160746812386,-29.934206674473067
1588959981.327446,0.9445518525129407,-1.152688884922355,-9.400070377642349,-0.5522222222222221,0.09,0.7233333333333329,1.6534490782058802,6.27844907820588,-30.5172453910294
1588959981.337446,0.9563425083993465,-1.12951376259902,-9.444143729001635,-0.5522222222222221,0.09,0.7233333333333329,1.7469610162438738,6.3125,-30.76678135499183
1588959981.347446,0.9692707209567549,-1.1489060814351324,-9.411823197608113,-0.5522222222222221,0.09,0.7233333333333329,1.8681630089695773,6.3125,-30.928384011959437
1588959981.357446,0.9851468926553673,-1.2537250470809793,-9.39,-0.5522222222222221,0.08447185603682783,0.7242864616028455,1.6875,5.950058851224106,-31.06066384180791
1588959981.367446,1.0175852234918341,-1.3010369412704148,-9.401377835237751,-0.5522222222222221,0.057777777777778004,0.7288888888888891,1.6637961765880183,6.502130587295853,-30.489257942468203
1588959981.377446,1.0372650524711262,-1.2645512106466554,-9.434530104942253,-0.5522222222222221,0.057777777777778004,0.7288888888888891,1.6136483555138652,6.869258222430673,-29.960335199624787
1588959981.387446,1.069949645227741,-1.2401510643167772,-9.49994964522774,-0.5522222222222221,0.057777777777778004,0.7288888888888891,1.5623426413366903,7.12531471732662,-29.49874113069352
1588959981.397446,1.05,-1.3054145313062406,-9.455634609121917,-0.5522222222222221,0.057777777777778004,0.7288888888888891,1.5169204103320022,7.233079589667998,-28.78003466568397
1588959981.407446,1.05,-1.3197926057967537,-9.390933273914609,-0.5522222222222221,0.057777777777778004,0.7288888888888891,1.5618518931148553,7.188148106885145,-28.195925389506883
1588959981.417446,1.073015022813757,-1.317135205323811,-9.353015022813757,-0.564444444444444,0.05111111111111099,0.7288888888888891,1.5744366444841205,7.3125,-26.798685503796282
1588959981.427446,1.0907189736363974,-1.3895279765656865,-9.380246950202084,-0.564444444444444,0.05111111111111099,0.7288888888888891,1.3273874633838851,7.334831195075828,-26.053512829545035
1588959981.4374459,1.1571210046740001,-1.4256560124640008,-9.491363014022001,-0.564444444444444,0.05111111111111099,0.7288888888888891,1.4106687597375005,7.5,-24.49904395448751
1588959981.4474459,1.143034344952436,-1.392137379809745,-9.443034344952435,-0.564444444444444,0.05111111111111099,0.7288888888888891,1.280176720236367,7.44310603214182,-23.35174222499274
1588959981.4574459,1.1505423013827043,-1.4194576986172955,-9.44981923287243,-0.564705552517598,0.05133204871147207,0.7291700821984396,1.063629794547301,7.285384930864776,-22.39343801265526
1588959981.4674459,1.1702015467541598,-1.39979845324584,-9.443266151081946,-0.5741711151038547,0.059341370899842635,0.7393637649836382,1.104586555737833,6.302422662292008,-20.796124326224515
1588959981.4774458,1.1753898409080947,-1.394610159091905,-9.46766095455143,-0.578888888888889,0.063333333333333,0.744444444444444,1.125,5.265043607836263,-19.337289630538635
1588959981.4874458,1.1865268548291055,-1.4247902822436584,-9.491736572585447,-0.578888888888889,0.063333333333333,0.744444444444444,1.073353578659045,4.160182207931404,-17.891096522567583
1588959981.4974458,1.2200140812468654,-1.453323945835423,-9.466647891670846,-0.578888888888889,0.063333333333333,0.744444444444444,0.979137330735697,3.2496479688283633,-16.45765860692103
1588959981.5074458,1.2448310502283104,-1.4520776255707761,-9.430337899543378,-0.5818411973617453,0.0587706747843733,0.7530329781836628,0.9073059360730593,2.825485159817352,-15.167865296803653
1588959981.5174458,1.2676757844586826,-1.4631347543946114,-9.388486323311977,-0.5911111111111109,0.044444444444445,0.78,0.7645263471332348,2.942565867833087,-13.525329339165435
1588959981.5274458,1.2861865395081244,-1.457119237048747,-9.413305776556872,-0.5911111111111109,0.044444444444445,0.78,0.7068329359628891,2.6726682561484436,-12.214507152667997
1588959981.5374458,1.3035259395895782,-1.547051879179156,-9.49237030205211,-0.5911111111111109,0.044444444444445,0.78,0.6618515102605488,2.5220371224348628,-10.952683306433018
1588959981.5474458,1.31,-1.5573102739194538,-9.451930821758362,-0.5911111111111109,0.044444444444445,0.78,0.5336215760068286,2.898715760068286,-9.675851875921472
1588959981.5574458,1.2992276569612022,-1.545383281554801,-9.4284610938516,-0.5900851736788444,0.045470381876711354,0.7832488018688437,0.5961455097175059,3.889445307419984,-8.374927750885051
1588959981.5674458,1.2579623702841625,-1.5499372838069376,-9.408025086477226,-0.584444444444444,0.05111111111111099,0.8011111111111109,0.418789197620664,3.975705557171952,-6.62578395241328
1588959981.5774457,1.298640287072059,-1.617733811786765,-9.380906475285295,-0.584444444444444,0.05111111111111099,0.8011111111111109,0.3764163676332719,3.2129946173988944,-5.778327352665438
1588959981.5874457,1.224337886515211,-1.4200913014016192,-9.437191768608011,-0.584444444444444,0.05111111111111099,0.8011111111111109,0.3214897107600128,1.3309073968401155,-4.071917686080103
1588959981.5974457,1.118550092839267,-1.2340825058529103,-9.337041252926456,-0.584444444444444,0.05111111111111099,0.8011111111111109,0.1875,0.033840921934285936,-2.908840921934286
1588959981.6074457,1.282888348460503,-1.4985558257697487,-9.457002431927737,-0.5852467634612504,0.05287621294808495,0.8070482718354779,0.16944782212185694,-1.7236043557562861,-0.8896390650106397
1588959981.6174457,1.2975382030820923,-1.4949235938358156,-9.386564791781089,-0.59,0.063333333333333,0.8422222222222221,0.0625,-1.840053871999483,1.0288623073692373
1588959981.6274457,1.2758864476832716,-1.5411703284750924,-9.480602566891452,-0.59,0.063333333333333,0.8422222222222221,0.007314552969327821,-0.2901212747443985,3.33864476832717
1588959981.6374457,1.2950182183027936,-1.530036436605587,-9.519963563394413,-0.59,0.063333333333333,0.8422222222222221,-0.06227227121508158,1.0163651185509848,5.173412169298199
1588959981.6474457,1.30470412642669,-1.5335206321334505,-9.455576821773485,-0.59,0.063333333333333,0.8422222222222221,0.09190079016681299,1.4760535557506584,6.818140913081651
1588959981.6574457,1.2940954975164236,-1.4640954975164235,-9.36,-0.5810505795011482,0.06697377557015408,0.8567839911695062,0.0,0.9430479891043102,8.037113443358436
1588959981.6674457,1.3133288853304868,-1.4866644426652433,-9.363335557334755,-0.5244444444444439,0.09,0.9488888888888891,-0.041694466684458684,-0.1669029668178988,9.37520850013344
1588959981.6774457,1.3140945678779892,-1.525102617209565,-9.406645876482772,-0.5244444444444439,0.09,0.9488888888888891,-0.07214537045754095,-1.2273641969497269,10.264273147712295
1588959981.6874456,1.3472328322803961,-1.61232832280396,-9.491698496841188,-0.5244444444444439,0.09,0.9488888888888891,0.04520520175247501,-2.280653184227725,11.17962717546535
1588959981.6974456,1.34,-1.5490575955545545,-9.451884808890892,-0.5244444444444439,0.09,0.9488888888888891,-0.014152493053991138,-2.6308900277840355,12.05309238191785
1588959981.7074456,1.338317406477284,-1.578317406477284,-9.390240370503246,-0.5208121790620726,0.08794349680556914,0.9508118529148505,-0.06099768435471772,-2.420974527901895,12.890023156452823
1588959981.7174456,1.27,-1.5212300864284045,-9.4,-0.3733333333333329,0.004444444444444,1.02888888888889,0.011698006696254768,-1.7266039866074905,13.687168107140076
1588959981.7274456,1.27,-1.5604199953281943,-9.4,-0.3733333333333329,0.004444444444444,1.02888888888889,0.05252082846686911,-1.6449583430662618,14.340333255469906
1588959981.7374456,1.236215503670125,-1.531353488989625,-9.456215503670126,-0.3733333333333329,0.004444444444444,1.02888888888889,0.3440374694156251,-1.9848062041234376,15.610381142954688
1588959981.7474456,1.2123494490070748,-1.602951652978776,-9.432349449007075,-0.3733333333333329,0.004444444444444,1.02888888888889,0.5429212582743774,-2.283131887411566,16.306474403960323
1588959981.7574456,1.2277560201111406,-1.5843900502778514,-9.464390050277851,-0.3725230072623559,-0.0025368263208966,1.021284290376644,0.6285062185763429,-3.358080841492458,17.577136808679544
1588959981.7674456,1.19,-1.49,-9.375425375500907,-0.358888888888889,-0.12,0.893333333333333,0.6761971343731081,-4.06848567186554,19.123663043791623
1588959981.7774456,1.1814742148933934,-1.4928419283688688,-9.42273542695095,-0.358888888888889,-0.12,0.893333333333333,0.6782861569162904,-3.6881656338619893,20.605241046108603
1588959981.7874455,1.1564842973175282,-1.5,-9.473847520305675,-0.358888888888889,-0.12,0.893333333333333,0.7795402873518272,-3.336547001910465,21.774664272068108
1588959981.7974455,1.1377402884690584,-1.5,-9.441045504820853,-0.358888888888889,-0.12,0.893333333333333,0.6038152043974214,-3.131534405130325,23.23903996335482
1588959981.8074455,1.120672737075421,-1.5067273707542084,-9.410672737075421,-0.37144664763007795,-0.12411117101646064,0.8835412714577631,0.42488617983585936,-2.9248861798358594,24.721705954591744
1588959981.8174455,1.1232810200062195,-1.5843223800145123,-9.408801700010367,-0.545555555555556,-0.181111111111111,0.7477777777777779,0.19400850005182957,-2.7639978749870426,26.454440499637194
1588959981.8274455,1.096243859113492,-1.5312520469621693,-9.392536845319048,-0.545555555555556,-0.181111111111111,0.7477777777777779,0.0,-2.8203252935135583,27.98465645729829
1588959981.8374455,1.0577075275917367,-1.5449169889633054,-9.518039571738516,-0.545555555555556,-0.181111111111111,0.7477777777777779,-0.1229247240826337,-2.951827952551646,29.60237094377889
1588959981.8474455,1.018104081438493,-1.5562081628769862,-9.425687755684521,-0.545555555555556,-0.181111111111111,0.7477777777777779,-0.5710969460565123,-3.317844401103606,31.206785748263723
1588959981.8574455,1.010123299400628,-1.540246598801256,-9.449630101798116,-0.545555555555556,-0.181111111111111,0.7477777777777779,-0.8703762724764532,-3.866523166206831,32.60342260489011
1588959981.8674455,0.9840223112248108,-1.643910755100757,-9.43268154081654,-0.585003157028991,-0.1743761547619877,0.6659961649669965,-1.0914807397932438,-4.795043144121286,34.30272573339764
1588959981.8774455,0.9724661976009833,-1.6147971856059,-9.43,-0.5911111111111109,-0.17333333333333303,0.653333333333333,-1.4546038549569789,-5.314190119950833,36.3046918047726
1588959981.8874454,0.93,-1.5871633678212627,-9.518784300494826,-0.5911111111111109,-0.17333333333333303,0.653333333333333,-1.642728951117109,-5.635130829209777,39.0861120482831
1588959981.8974454,0.93,-1.532132441145599,-9.495199617633828,-0.5911111111111109,-0.17333333333333303,0.653333333333333,-1.986672242840006,-5.831669853051432,40.756693750937174
1588959981.9074454,0.8673502682579656,-1.466300229935399,-9.4094503449031,-0.5911111111111109,-0.17333333333333303,0.653333333333333,-2.342186302419796,-6.3224980838716744,43.082804116938576
1588959981.9174454,0.8434658856708971,-1.4930682286582058,-9.39173294283545,-0.5681470634318012,-0.09892981885236977,0.6432291523544369,-2.4783382145568935,-6.943360180062913,44.965911432910296
1588959981.9274454,0.8036325975791314,-1.5239594795779663,-9.41971454463072,-0.563333333333333,-0.083333333333333,0.641111111111111,-2.664796265130429,-7.8334196388115735,47.990820603275296
1588959981.9374454,0.7761256507166797,-1.6461256507166797,-9.523542751194466,-0.563333333333333,-0.083333333333333,0.641111111111111,-2.852857805034586,-8.423429366041503,50.13536244027669
1588959981.9474454,0.7489120318169704,-1.6167360954509113,-9.478912031816972,-0.563333333333333,-0.083333333333333,0.641111111111111,-3.13859960228787,-8.777199204575739,52.59809164804526
1588959981.9574454,0.7403134545603641,-1.5909403636810924,-9.470313454560365,-0.563333333333333,-0.083333333333333,0.641111111111111,-3.246081817995449,-8.992163635990897,54.855218177904426
1588959981.9674454,0.7117907187507262,-1.5731715195315223,-9.426828480468478,-0.5366666666666671,-0.0033333333333329996,0.626666666666667,-3.4375,-9.5625,58.875
1588959981.9774454,0.6601338766006984,-1.564187427240978,-9.466214202561117,-0.5366666666666671,-0.0033333333333329996,0.626666666666667,-3.5008367287543654,-9.76517753201397,59.33102444703143
1588959981.9874454,0.6928094715456646,-1.6164047357728324,-9.524607103659248,-0.5366666666666671,-0.0033333333333329996,0.626666666666667,-3.7949408028395957,-10.607440802839596,61.383409616327675
1588959981.9974453,0.6491992079207921,-1.6027001980198021,-9.494599603960395,-0.5366666666666671,-0.0033333333333329996,0.626666666666667,-4.008438118811881,-10.846252475247525,62.748138613861386
1588959982.0074453,0.5827548514851485,-1.619311287128713,-9.461377425742574,-0.5366666666666671,-0.0033333333333329996,0.626666666666667,-4.060347772277228,-11.05389108910891,63.89015099009901
1588959982.0174453,0.5611682045997471,-1.6953271816010118,-9.46,-0.5314356123888186,0.02805299233375492,0.635036353511224,-4.0625,-11.003650639374209,65.29103529439318
1588959982.0274453,0.5257265952959608,-1.7135898929439413,-9.4735611705867,-0.5311111111111111,0.03,0.6355555555555561,-4.308048536766626,-10.754451463233375,66.85683511760098
1588959982.0374453,0.4751796653744953,-1.637769498061743,-9.515683612187921,-0.5311111111111111,0.03,0.6355555555555561,-4.255395484765099,-10.8071045152349,68.12050836563762
1588959982.0474453,0.430755980861244,-1.706047846889952,-9.516220095693779,-0.5311111111111111,0.03,0.6355555555555561,-4.504724880382775,-11.29724880382775,69.64282296650718
1588959982.0574453,0.4392957345006617,-1.7743658760052936,-9.473521327496693,-0.5311111111111111,0.03,0.6355555555555561,-4.558098340629136,-11.830983406291358,70.5501717906953
1588959982.0674453,0.33184317766640126,-1.8250653426389996,-9.47,-0.5120835219968669,0.0940929317532436,0.6535816926111558,-4.675163356597499,-12.156658391493746,71.75163356597498
1588959982.0774453,0.37,-1.8113264918282022,-9.477295705055113,-0.51,0.10111111111111099,0.655555555555556,-4.949935860889395,-12.62882459141011,73.51307725199544
1588959982.0874453,0.37,-1.8258190801976435,-9.557004941087039,-0.51,0.10111111111111099,0.655555555555556,-5.085803876852908,-13.353454009882174,72.29026510832384
1588959982.0974452,0.3221194476138018,-1.75921194476138,-9.52684777904552,-0.51,0.10111111111111099,0.655555555555556,-5.052649309517252,-16.017835011999843,70.05604516662076
1588959982.1074452,0.2396097100365897,-1.7509609710036589,-9.493843884014636,-0.51,0.10111111111111099,0.655555555555556,-4.949512137545737,-17.513324005586814,69.33408496282016
1588959982.1174452,0.21212672923969994,-1.6895702815786497,-9.46106336461985,-0.5111111111111111,0.134444444444444,0.655555555555556,-5.167561913377813,-18.11311913377813,70.40554440423688
1588959982.1274452,0.2279369746315353,-1.7607163858419088,-9.468968487315768,-0.5111111111111111,0.134444444444444,0.655555555555556,-5.019340862829356,-16.630908628293565,71.09724264012966
1588959982.1374452,0.1789053295607403,-1.8334319773644419,-9.60671598868222,-0.5111111111111111,0.134444444444444,0.655555555555556,-4.791974929263881,-13.371857460921193,71.47947492926389
1588959982.1474452,0.15970075537478212,-1.7761377832655434,-9.53880302149913,-0.5111111111111111,0.134444444444444,0.655555555555556,-4.649138854590355,-11.228014008933759,71.30847685756828
1588959982.1574452,0.03784427658338177,-1.7304416037187682,-9.051377106333527,-0.5111111111111111,0.134444444444444,0.655555555555556,-4.934739976757699,-10.228410081348054,71.26087667054038
1588959982.1674452,-0.023315305033865086,-1.732841690029027,-9.560947230009676,-0.48,0.17555555555555602,0.676666666666667,-4.511840375120947,-10.528924876572308,71.98486150048379
1588959982.1774452,-0.09301048787737251,-1.7967735977240882,-9.585268353785402,-0.48,0.17555555555555602,0.676666666666667,-4.745296112691605,-13.789636055793808,73.01746608424271
1588959982.1874452,-0.12862935756443464,-1.876916054519978,-9.64760137573776,-0.48,0.17555555555555602,0.676666666666667,-4.689641628805571,-15.737542991805018,73.9635923103053
1588959982.1974452,-0.10647639196859043,-1.7340944321256382,-9.533523608031409,-0.48,0.17555555555555602,0.676666666666667,-4.604761275098155,-16.336306375490775,74.66369362450922
1588959982.2074451,-0.15767113534186383,-1.5293154586325448,-9.482328864658136,-0.48,0.17555555555555602,0.676666666666667,-4.444777702056675,-15.536388510283377,75.46361148971663
1588959982.2174451,-0.20997503432779926,-1.6199500686555988,-9.460009986268881,-0.4688944368160447,0.198877238241862,0.6911038988058085,-4.562437585819498,-13.688405005617277,77.24912620147298
1588959982.2274451,-0.30071875546233173,-1.659460933403251,-9.501437510924664,-0.46888888888888897,0.198888888888889,0.6911111111111109,-4.623876944590107,-12.44086916622968,79.28144555147702
1588959982.237445,-0.3300443978325468,-1.63746670162559,-9.560088795665093,-0.46888888888888897,0.198888888888889,0.6911111111111109,-4.578055628386646,-12.578333114840063,80.56444240517392
1588959982.247445,-0.3607584435353439,-1.6018961088383599,-9.528483112929312,-0.46888888888888897,0.198888888888889,0.6911111111111109,-4.632110408143849,-13.398701360479498,82.79977285700694
1588959982.257445,-0.3767200076110741,-1.6418000190276851,-9.496559984777852,-0.46888888888888897,0.198888888888889,0.6911111111111109,-4.7817500713538195,-13.897500237846065,83.84725049947674
1588959982.267445,-0.37225617549322615,-1.6190247019729045,-9.459024701972904,-0.49384121229960465,0.198888888888889,0.6868089863851259,-4.66730329049799,-14.532387934840704,84.30449451583668
1588959982.277445,-0.4265595595815147,-1.631209834843068,-9.464139889895378,-0.5011111111111111,0.198888888888889,0.6855555555555559,-4.625,-14.6875,84.55174862369223
1588959982.287445,-0.468904136767964,-1.706164478687874,-9.573972752223803,-0.5011111111111111,0.198888888888889,0.6855555555555559,-4.684075427399888,-14.864726282199662,84.625
1588959982.297445,-0.47,-1.6365390226112326,-9.543269511305615,-0.5011111111111111,0.198888888888889,0.6855555555555559,-4.515325834245076,-15.047174165754923,84.05108611415025
1588959982.307445,-0.4933888900180898,-1.6689814833634828,-9.516611109981909,-0.5011111111111111,0.198888888888889,0.6855555555555559,-4.451273145795646,-14.867592583182585,83.07418977011727
1588959982.317445,-0.527849563465413,-1.6591128274009401,-9.489112827400941,-0.5699614207894933,0.21590806656219666,0.6584795910752933,-4.3069551712558765,-14.290320685023506,81.63759654130288
1588959982.327445,-0.5930898876404495,-1.6337078651685393,-9.443913857677902,-0.6,0.22333333333333302,0.6466666666666671,-4.182350187265918,-13.365987827715356,79.78675093632958
1588959982.337445,-0.7367696629213483,-1.806123595505618,-9.625908239700376,-0.6,0.22333333333333302,0.6466666666666671,-3.9428838951310863,-12.946921816479401,78.58941947565543
1588959982.347445,-0.6993802322441264,-1.8088981906562247,-9.539793410748041,-0.6,0.22333333333333302,0.6466666666666671,-3.8741392114501756,-13.68534802862544,76.1664106805293
1588959982.357445,-0.6265653331275799,-1.6794494811156977,-9.515521777709193,-0.6,0.22333333333333302,0.6466666666666671,-3.773007407121639,-13.432518517804096,73.68868147448015
1588959982.367445,-0.6441654179061082,-1.582082708953054,-9.433124063429581,-1.11444444444444,0.18444444444444397,0.267777777777778,-3.243491534521706,-11.30991534521706,68.38744101004227
1588959982.377445,-0.7192127217015947,-1.6196063608507973,-9.489409541276196,-1.11444444444444,0.18444444444444397,0.267777777777778,-3.1262301223412585,-10.137301223412583,64.10739946545593
1588959982.387445,-0.72,-1.577501834627528,-9.532498165372473,-1.11444444444444,0.18444444444444397,0.267777777777778,-2.947924310948033,-9.460966166055124,61.22928897516853
1588959982.397445,-0.7001509584664536,-1.5004528753993611,-9.530150958466454,-1.11444444444444,0.18444444444444397,0.267777777777778,-2.6268869808306707,-8.443160942492012,55.59646565495208
1588959982.407445,-0.671327922211693,-1.5,-9.484124675538707,-1.11444444444444,0.18444444444444397,0.267777777777778,-2.445799513823081,-7.97157873594001,52.55193183222776
1588959982.417445,-0.6117135040062537,-1.4617135040062537,-9.437237834668752,-0.9721699346405203,0.6126859922263472,0.3599489718367971,-2.259324311119797,-7.359121555598984,47.414424956028924
1588959982.427445,-0.48746180000819306,-1.3430416615460243,-9.41442013846217,-0.78,1.1911111111111101,0.484444444444445,-1.9085069231084346,-7.034874134611446,38.89661423128917
1588959982.437445,-0.3058887853147856,-1.436013193747311,-9.519509895310483,-0.78,1.1911111111111101,0.484444444444445,-1.504983507815861,-6.651837892585688,27.356161713035995
1588959982.447445,-0.24733801832296995,-1.5216549541925752,-9.53467603664594,-0.78,1.1911111111111101,0.484444444444445,-0.9626756871113727,-6.89568692740719,15.49497544059752
1588959982.457445,-0.232453432129258,-1.570186271482968,-9.504906864258515,-0.78,1.1911111111111101,0.484444444444445,-0.31017160646290004,-7.31366419676855,-1.3846801996500968
1588959982.467445,-0.17866096085334232,-1.6166707422476125,-9.455995109302865,-0.5281942365663936,0.7029827865262231,0.6832813579648334,0.2708842780951578,-6.137362449143074,-16.647106952378945
1588959982.477445,-0.13168277595205877,-1.7432688961917648,-9.468317224047942,-0.4366666666666671,0.525555555555556,0.755555555555556,1.0864363844319866,-1.9708643437077131,-36.09200214253495
1588959982.4874449,-0.1450586208188186,-1.7951758624564558,-9.57541034573173,-0.4366666666666671,0.525555555555556,0.755555555555556,1.548523710529273,2.249946154998689,-49.65865312581938
1588959982.4974449,-0.07197959778490237,-1.9217596424754686,-9.53032993296415,-0.4366666666666671,0.525555555555556,0.755555555555556,2.5728104051296996,9.232865782570679,-71.51664602156805
1588959982.5074449,-0.21867618770037892,-2.0521566112892256,-9.55477936461673,-0.4366666666666671,0.525555555555556,0.755555555555556,3.336855144272807,12.59466263480035,-86.64473185660157
1588959982.5174448,-0.16,-2.29,-9.53,-0.337777777777778,0.346666666666667,0.756666666666667,4.1875,14.5625,-108.5625
1588959982.5274448,-0.15838050057255032,-2.2980974971372485,-9.532699165712415,-0.337777777777778,0.346666666666667,0.756666666666667,4.2246135285457225,14.57599582856208,-109.58818297071814
1588959982.5374448,-0.08098475683522866,-2.482013065569804,-9.625514154367288,-0.337777777777778,0.346666666666667,0.756666666666667,5.0062908299056375,15.228254294701186,-134.60844120493587
1588959982.5474448,0.13069177097577225,-2.700396549910592,-9.707536902633148,-0.337777777777778,0.346666666666667,0.756666666666667,5.388549226885453,16.47722511482767,-153.3218352266751
1588959982.5574448,0.4188868613138686,-3.280059306569343,-9.716222627737226,-0.337777777777778,0.346666666666667,0.756666666666667,6.395500684306569,21.587591240875913,-181.38603444343065
1588959982.5674448,0.13282523090141046,-3.5385787928689054,-9.877169041311664,-0.34301687310565393,0.31666093887974067,0.7590480736338833,7.517908283811842,30.607843488222237,-209.43982691343882
1588959982.5774448,-0.20401469996708962,-3.5995012249972573,-9.08137382528248,-0.35,0.27666666666666695,0.7622222222222221,8.765739843492888,38.29098484294438,-243.91797546348778
1588959982.5874448,-0.02562498505392541,-3.580592103689887,-10.048914556280938,-0.35,0.27666666666666695,0.7622222222222221,9.66159546356745,38.316200648061795,-258.33922806514096
1588959982.5974448,-0.15385888629055833,-3.5948732095878397,-9.797409017831043,-0.35,0.27666666666666695,0.7622222222222221,10.105809019657995,40.86883289790997,-266.7908289334259
1588959982.6074448,-0.1403828594313176,-3.5850957148578293,-9.759617140568682,-0.35,0.27666666666666695,0.7622222222222221,10.156848217861434,41.61027232679215,-274.6392721265519
1588959982.6174448,0.20057598338626925,-3.656160110758205,-9.639616011075821,-0.40333333333333293,0.222222222222222,0.756666666666667,10.258399757716427,41.747498269403046,-282.1235964349703
1588959982.6274447,0.22619472269728808,-3.485368515351413,-9.622536851535141,-0.40333333333333293,0.222222222222222,0.756666666666667,10.632006372668783,44.41611694763417,-287.6209509121264
1588959982.6374447,0.1843978475009121,-3.681496169281284,-9.867554542137906,-0.40333333333333293,0.222222222222222,0.756666666666667,10.768932415176943,45.463959321415544,-292.10195868296245
1588959982.6474447,0.1515456665802821,-3.7492739994816926,-9.856276331864796,-0.40333333333333293,0.222222222222222,0.756666666666667,11.12953750323942,45.019906241901445,-295.0664520935915
1588959982.6574447,0.13629434071816088,-3.705735851795402,-9.727207555386206,-0.40333333333333293,0.222222222222222,0.756666666666667,11.059009444232759,45.81726407562644,-292.5088681436322
1588959982.6674447,0.11384367816091955,-3.560749425287356,-9.73654712643678,-0.46795862068965477,0.1513139208173687,0.7342273307790552,11.151465517241379,49.02686781609195,-283.07086206896554
1588959982.6774447,0.15036573090258362,-3.482906647280319,-9.756727621817097,-0.4833333333333329,0.134444444444444,0.7288888888888891,11.103404727286284,52.16831054505462,-271.1597101834247
1588959982.6874447,0.3200522980372854,-3.8351307450932133,-9.662466006275764,-0.4833333333333329,0.134444444444444,0.7288888888888891,11.0625,54.35971820586968,-254.44899018642712
1588959982.6974447,0.28756701868399676,-3.760786961819659,-9.877298943948011,-0.4833333333333329,0.134444444444444,0.7288888888888891,11.706507666531275,53.82882311129163,-240.79695115759546
1588959982.7074447,0.26214726173759084,-3.710490872458636,-9.973803651016546,-0.4833333333333329,0.134444444444444,0.7288888888888891,11.924079614140057,51.3623427864949,-230.47851669821114
1588959982.7174447,0.2875485354223434,-3.709611716621253,-9.919805858310626,-0.4924195333787463,0.1208850382228274,0.7212005657735394,11.702417191757494,47.55764645776567,-219.5400763155654
1588959982.7274446,2.7272472393517857,5.5451175964434265,-5.250223003011617,-0.555555555555556,0.026666666666667005,0.667777777777778,12.280806324394092,53.39477717625125,-140.0389000430231
1588959982.7374446,1.0331030201682374,7.060967619337184,-1.4022402959359486,-0.555555555555556,0.026666666666667005,0.667777777777778,93.32560555386642,-4.683208548697685,228.1389622605655
1588959982.7474446,1.3616963716023651,5.080253732613041,-2.4150574248160277,-0.555555555555556,0.026666666666667005,0.667777777777778,86.42556042366753,-15.796918201539835,309.0760240758858
1588959982.7574446,3.8789715013532877,-0.22166215570768977,-9.510487183569495,-0.555555555555556,0.026666666666667005,0.667777777777778,14.703898662633339,-21.956734596401848,436.53137438306004
1588959982.7674446,4.725442947540314,0.4188824249846905,-8.689540722596448,-0.5638275384999207,-0.0022852736386110815,0.667777777777778,-105.56035032659727,8.064955858338436,373.3510984384568
1588959982.7774446,5.564811836603409,4.126145062721132,-15.06481022836925,-0.573333333333333,-0.035555555555556,0.667777777777778,-110.54153264715342,-48.30361450627211,266.5710638468961
1588959982.7874446,3.2706433494598715,2.426373351448074,-12.225828749420106,-0.573333333333333,-0.035555555555556,0.667777777777778,-26.181396629995362,-155.43958243588042,160.19088719431375
1588959982.7974446,0.5751729952114386,-1.2927773656167802,-5.735411748836582,-0.573333333333333,-0.035555555555556,0.667777777777778,21.465476832805017,-180.97782339650638,88.64948657853915
1588959982.8074446,0.4199914221560663,-0.015080858793551588,-8.481781416353407,-0.573333333333333,-0.035555555555556,0.667777777777778,13.179451964073971,-52.74758748139364,67.5253077932235
1588959982.8174446,0.8657921279579839,-1.8527767001879982,-7.441345826743458,-0.5348703410820328,0.057717200653848076,0.6860476990971458,-24.423017815045807,66.51362425770643,60.72103936021008
1588959982.8274446,0.39679992725228586,-2.144298893904072,-11.698040110444257,-0.528888888888889,0.072222222222222,0.6888888888888891,-15.89598730221715,80.80887398111867,36.84779917497478
1588959982.8374445,-0.03611514322779706,-1.1958546334280005,-9.259079274920234,-0.528888888888889,0.072222222222222,0.6888888888888891,1.234127923284598,52.15269231443498,1.5297368605588844
1588959982.8474445,-0.1527979274611399,-1.3245164075993092,-9.27039291882556,-0.528888888888889,0.072222222222222,0.6888888888888891,-0.40565630397236596,29.331876079447323,-8.442519430051814
1588959982.8574445,-0.09120688314717393,-1.5740086039339674,-10.770491357192837,-0.528888888888889,0.072222222222222,0.6888888888888891,-2.363631209993003,11.303338883561821,-5.042187135563791
1588959982.8674445,0.3191984186215382,-1.160444560985941,-10.001246142364401,-0.5097915476038396,0.09131956350727134,0.6823412290197295,1.0016842487443773,-7.976613399358573,0.9977900538556184
1588959982.8774445,0.8397339104519974,-1.22353863620237,-9.982564393670616,-0.49,0.111111111111111,0.675555555555556,0.35288352373518794,-17.03041847016249,7.133288689420279
1588959982.8874445,0.97,-1.473304693680232,-9.512828953151095,-0.49,0.111111111111111,0.675555555555556,0.1727525929506899,-17.060889019513052,7.4315930715478595
1588959982.8974445,0.97,-1.4829193978246777,-9.17981488150976,-0.49,0.111111111111111,0.675555555555556,1.3998505366275302,-14.614105380681409,3.1971655982136427
1588959982.9074445,1.612160135182056,-2.4217617647739638,-9.265182750399296,-0.49,0.111111111111111,0.675555555555556,1.0972792875164927,-9.912371820096757,-1.9765398949098403
1588959982.9174445,5.563486901535682,-13.765780100658148,-7.564391534391534,-0.5076675126539625,0.09344359845714857,0.685784115513113,5.50976738934056,-0.4476706671828623,-14.336027229319912
1588959982.9274445,0.5201387719817099,-11.682586618741043,-15.193637873376254,-0.5111111111111111,0.09,0.6877777777777779,26.262678583615806,45.63287559433082,-64.57430983688604
1588959982.9374444,1.0977286273841957,-3.96122530653951,-11.033539254087193,-0.5111111111111111,0.09,0.6877777777777779,6.028666233821525,61.47188590982629,-81.56085953465599
1588959982.9474444,2.0669757790989984,-1.6373951558197997,-9.845858505247197,-0.5111111111111111,0.09,0.6877777777777779,-1.2706421331950042,28.614041738158896,-54.63146921511512
1588959982.9574444,1.7664642990787436,-1.8984310126695059,-9.970857641796897,-0.5111111111111111,0.09,0.6877777777777779,0.3542104723890305,1.47463314563695,-22.631011778542025
1588959982.9674444,0.922563202247191,-2.295704002808989,-9.359422401685393,-0.5078989154182272,0.09554833801498124,0.6901139200998754,1.648239992977528,-4.423060042134831,-2.107399929775281
1588959982.9774444,1.0472980471205324,-2.4164345319374902,-9.488161562303574,-0.49888888888888894,0.111111111111111,0.696666666666667,0.44968653141730064,-5.314588887443917,1.7621865314173006
1588959982.9874444,1.0322717451016297,-2.260233656839407,-9.583630470609778,-0.49888888888888894,0.111111111111111,0.696666666666667,-0.2074047793444424,-1.375135048525911,0.4148095586888848
1588959982.9974444,1.0346539509536785,-2.3062288828337874,-9.662076294277929,-0.49888888888888894,0.111111111111111,0.696666666666667,-0.2295640326975477,-0.2122615803814714,0.125
1588959983.0074444,1.0420848377938867,-2.377915162206113,-9.61749097323668,-0.49888888888888894,0.111111111111111,0.696666666666667,0.002651181058956509,-0.125,0.17535349080786086
1588959983.0174444,1.0512499190886142,-2.3775001618227716,-9.488124797721536,-0.5013194669198292,0.10138879898734904,0.696666666666667,0.4531239886076769,-0.09765599715191922,0.16796799145575764
1588959983.0274444,1.0343768598554628,-2.3437685985546266,-9.471246280289074,-0.5044444444444439,0.08888888888888902,0.696666666666667,0.24221074819328325,-0.09764462590335837,0.09764462590335837
1588959983.0374444,1.03,-2.346805875706215,-9.586984858757063,-0.5044444444444439,0.08888888888888902,0.696666666666667,-0.1886186440677966,-0.125,0.041418079096045196
1588959983.0474443,1.047626801059637,-2.346497598587151,-9.61649759858715,-0.5044444444444439,0.08888888888888902,0.696666666666667,-0.30155499558484633,-0.125,-0.036722502207576835
1588959983.0574443,1.0459093719090011,-2.339393752060666,-9.562424991757336,-0.5044444444444439,0.08888888888888902,0.696666666666667,-0.015156198483349814,-0.125,-0.0037890496208374536
1588959983.0674443,1.035633058770375,-2.33873388245925,-9.4974677649185,-0.5081998169580275,0.10078090184856951,0.679767490355542,0.39082646925937514,-0.05458676537031244,-0.007913234629687557
1588959983.0774443,1.0537338132859615,-2.3849352531438455,-9.500600719928942,-0.5111111111111111,0.11,0.666666666666667,0.28540916740685335,0.1716726660745173,-0.0625
1588959983.0874443,1.0539138872302312,-2.3673972106116183,-9.583033353237226,-0.5111111111111111,0.11,0.666666666666667,-0.1168056384884415,0.17392359037788963,-0.024461795188944813
1588959983.0974443,1.05,-2.320454460716283,-9.605568075895354,-0.5111111111111111,0.11,0.666666666666667,-0.2819600948691924,0.03338028460757711,0.0
1588959983.1074443,1.0470675503441245,-2.3087973489676266,-9.577067550344125,-0.5111111111111111,0.11,0.666666666666667,-0.12170532755544228,-0.08082781034922254,0.0
1588959983.1174443,1.0401335395526048,-2.3302670791052096,-9.568397525368743,-0.5111111111111111,0.10980710953512644,0.6667853684912045,0.1908384888151194,-0.1233307555924403,0.0008346222037798484
1588959983.1274443,1.05,-2.3626420306682148,-9.478444569003482,-0.5111111111111111,0.095555555555556,0.675555555555556,0.35848730832365777,0.01975317291908556,0.0625
1588959983.1374443,1.05,-2.3678275124732715,-9.551086243763363,-0.5111111111111111,0.095555555555556,0.675555555555556,0.08356646471846044,-0.00678902352102638,0.010533232359230219
1588959983.1474442,1.0379715671393137,-2.3220284328606864,-9.592028432860687,-0.5111111111111111,0.095555555555556,0.675555555555556,-0.23761847025285995,-0.16244076487357004,-0.049822294620710084
1588959983.1574442,1.0225957735031157,-2.34,-9.594425358981306,-0.5111111111111111,0.095555555555556,0.675555555555556,-0.23138207802763477,-0.09255283121105391,0.013829246816580869
1588959983.1674442,1.036630370672837,-2.353260741345674,-9.53010888798149,-0.5111111111111111,0.095555555555556,0.6726087241454062,0.10359954176307791,-0.020719908352615578,-0.04212036658953769
1588959983.1774442,1.033769190736404,-2.3556537861046056,-9.481884595368202,-0.5111111111111111,0.095555555555556,0.666666666666667,0.3125,-0.011778721051262035,0.09963936052563102
1588959983.1874442,1.0209278064992615,-2.336391709748892,-9.55195854874446,-0.5111111111111111,0.095555555555556,0.666666666666667,0.07345423282865585,0.028350604689807976,-0.005798790620384048
1588959983.1974442,1.0475577670412772,-2.338294821972482,-9.596589643944963,-0.5111111111111111,0.095555555555556,0.666666666666667,-0.23473604400798237,-0.07315736267198823,-0.025921318664005884
1588959983.2074442,1.0361870936014426,-2.339525162559423,-9.570474837440578,-0.5111111111111111,0.095555555555556,0.666666666666667,-0.22320160100540953,-0.125,0.05953226599639364
1588959983.2174442,1.028174677002584,-2.336368992248062,-9.528194315245479,-0.5055577375825437,0.095555555555556,0.666666666666667,0.07378552971576227,-0.125,0.039806201550387596
1588959983.2274442,1.0442155059715053,-2.3373534820854847,-9.51313797611398,-0.49888888888888894,0.095555555555556,0.666666666666667,0.3125,-0.05269382464381467,-0.09865308767809267
1588959983.2374442,1.0458438942295434,-2.3558438942295434,-9.576751153836346,-0.49888888888888894,0.095555555555556,0.666666666666667,0.23945132213070863,0.07304867786929138,-0.015426983196062921
1588959983.2474442,1.0384748657333542,-2.3427122986000315,-9.581187164333386,-0.49888888888888894,0.095555555555556,0.666666666666667,0.04343582166692883,0.08898395541673221,0.0625
1588959983.2574441,1.0365957173264004,-2.3267021413367996,-9.5501064240104,-0.49888888888888894,0.095555555555556,0.666666666666667,-0.08311161664500093,0.04188838335499907,0.04188838335499907
1588959983.2674441,1.0485789180463694,-2.320710540976815,-9.532131622930445,-0.49888888888888894,0.095555555555556,0.666666666666667,-0.1205591188949045,0.0044408811050954955,0.0044408811050954955
1588959983.2774441,1.0373078976878305,-2.3426921023121694,-9.500768409248678,-0.5111111111111111,0.10222222222222198,0.666666666666667,0.1754769183531799,-0.06730255780423987,0.10817436054894003
1588959983.287444,1.03,-2.35,-9.550680063578564,-0.5111111111111111,0.10222222222222198,0.666666666666667,0.2090996821071753,-0.12074960263396911,0.010799841053587653
1588959983.297444,1.0355761370781806,-2.3444238629218193,-9.574423862921819,-0.5111111111111111,0.10222222222222198,0.666666666666667,-0.04205257021588765,-0.07690342695451688,0.00720171347725844
1588959983.307444,1.0536086169442433,-2.3309275887038376,-9.551855177407676,-0.5111111111111111,0.10222222222222198,0.666666666666667,-0.125,-0.15914871469949313,0.03414871469949313
1588959983.317444,1.0624009821024747,-2.3250660119316833,-9.532533005965842,-0.51251833664769,0.10053355157832763,0.670044007954456,-0.0775061381404665,-0.0775061381404665,-0.015831287286511165
1588959983.327444,1.034922330435997,-2.3425388347820015,-9.52476699130799,-0.516666666666667,0.095555555555556,0.68,0.09423543477502007,-0.0009708695500401376,-0.01489684783746989
1588959983.337444,1.0309873223888038,-2.360987322388804,-9.520286848758948,-0.516666666666667,0.095555555555556,0.68,0.16460974502332537,-0.14171949004665074,0.07921949004665076
1588959983.347444,1.0450523978339632,-2.362683392418871,-9.585052397833962,-0.516666666666667,0.095555555555556,0.68,0.09407748646226965,-0.016116229693404496,0.0
1588959983.357444,1.0376674631013505,-2.3176674631013507,-9.554665073797299,-0.516666666666667,0.095555555555556,0.68,-0.09584328876688186,0.029156711233118138,0.023960822191720466
1588959983.367444,1.047846869548362,-2.334306260903276,-9.523540608645085,-0.5140350627813316,0.095555555555556,0.6819138937347894,-0.22308586935452607,-0.09808586935452607,0.049042934677263034
1588959983.377444,1.0440390843104412,-2.345960915689559,-9.516156337241764,-0.5044444444444439,0.095555555555556,0.6888888888888891,-0.07451144611948632,0.02524427694025684,-0.02524427694025684
1588959983.387444,1.05,-2.34,-9.55667115041867,-0.5044444444444439,0.095555555555556,0.6888888888888891,0.08335575209335172,0.08333893802333793,-0.0625
1588959983.397444,1.044607264748903,-2.34,-9.584607264748904,-0.5044444444444439,0.095555555555556,0.6888888888888891,0.2162954046806436,0.023886214041930767,0.03861378595806923
1588959983.407444,1.0440103024607568,-2.3359896975392433,-9.56796909261773,-0.5044444444444439,0.095555555555556,0.6888888888888891,0.11230682886081236,-0.0625,0.09993560962027079
1588959983.417444,1.0451641925326136,-2.33,-9.545164192532614,-0.5035489245430762,0.095555555555556,0.6874560570467005,0.0,-0.0625,0.07257459889038836
1588959983.427444,1.0227129706297793,-2.33,-9.51864351468511,-0.49888888888888894,0.095555555555556,0.68,0.004239016609030247,-0.054021966781939504,0.1165219667819395
1588959983.437444,1.0585624656889656,-2.337187671555172,-9.514375343110345,-0.49888888888888894,0.095555555555556,0.68,0.08046917888793036,0.05351541055603482,0.008984589443965178
1588959983.447444,1.0466144702059235,-2.3698434106177704,-9.57968682123554,-0.49888888888888894,0.095555555555556,0.68,0.2086595612129784,0.0,0.0625
1588959983.457444,1.0392461869932528,-2.3484923739865056,-9.539246186993251,-0.49888888888888894,0.095555555555556,0.68,0.2358660061234904,0.00471133129216987,0.0625
1588959983.467444,1.0316976976976977,-2.3316976976976975,-9.528302302302302,-0.49888888888888894,0.095555555555556,0.6752841730619509,0.02005755755755756,0.05188938938938939,0.05188938938938939
1588959983.477444,1.0393313313313313,-2.3393313313313313,-9.520668668668668,-0.49888888888888894,0.095555555555556,0.6540796351907461,-0.17078328328328327,0.0041791791791791835,0.0041791791791791835
1588959983.487444,1.0376418954984876,-2.334716209003025,-9.574148627009075,-0.49888888888888894,0.095555555555556,0.652222222222222,-0.003547387462190861,0.0,-0.08078554059664314
1588959983.497444,1.0311056560629497,-2.3488943439370504,-9.6155773757482,-0.49888888888888894,0.095555555555556,0.652222222222222,0.1875,0.013820700786872017,0.0625
1588959983.507444,1.0428612321784738,-2.34,-9.565693839107631,-0.49888888888888894,0.095555555555556,0.652222222222222,0.13385189665361602,0.08923459776907734,0.026734597769077342
1588959983.517444,1.046601550387597,-2.3411328165374674,-9.53,-0.49888888888888894,0.095555555555556,0.6532291702555266,-0.021240310077519378,0.0,-0.04833979328165375
1588959983.527444,1.0262775023241402,-2.34686124883793,-9.523722497675859,-0.49888888888888894,0.095555555555556,0.661111111111111,-0.14826561047412457,0.019617194762937714,0.08211719476293772
1588959983.5374439,1.04,-2.3420391113892363,-9.532430225281601,-0.49888888888888894,0.095555555555556,0.661111111111111,-0.024266661451814768,0.04975555381727159,0.09951110763454318
1588959983.5474439,1.0360934725477662,-2.3539065274522337,-9.584841252929895,-0.49888888888888894,0.095555555555556,0.661111111111111,0.1982473897293842,0.024415796576461396,-0.024415796576461396
1588959983.5574439,1.03,-2.356680526822474,-9.52004158046742,-0.49888888888888894,0.095555555555556,0.661111111111111,0.2295131705618484,0.0832467073595379,-0.0417532926404621
1588959983.5674438,1.0318304193402799,-2.35183041934028,-9.50183041934028,-0.49888888888888894,0.095555555555556,0.6637550501581819,0.005299395616255566,0.09067963736975335,0.0
1588959983.5774438,1.04,-2.3598924171438487,-9.51010758285615,-0.49888888888888894,0.095555555555556,0.675555555555556,-0.24731042859621724,-0.06182760714905431,0.0
1588959983.5874438,1.0329275545380385,-2.35,-9.558898450040788,-0.49888888888888894,0.095555555555556,0.675555555555556,-0.044202784137259546,0.06630417620588933,0.022101392068629773
1588959983.5974438,1.0283712641186813,-2.3541856320593406,-9.596514943525277,-0.49888888888888894,0.095555555555556,0.675555555555556,-0.0988397996291212,0.10901939888736363,0.0625
1588959983.6074438,1.0301381399128315,-2.356712713304277,-9.540138139912832,-0.49888888888888894,0.095555555555556,0.675555555555556,-0.02140891630346458,-0.02054554184826771,0.04195445815173229
1588959983.6174438,1.0130783479441001,-2.3489738840186334,-9.518973884018633,-0.49945895332298146,0.09487147823464484,0.67601160710283,0.0560867751164582,-0.0560867751164582,0.012826449767083593
1588959983.6274438,1.0361552286982358,-2.3412815904339213,-9.51128159043392,-0.503732449758932,0.08974328251150335,0.6794304042515906,0.008009940212008952,-0.008009940212008952,0.1089801195759821
1588959983.6374438,1.04,-2.344229411171268,-9.555388236876617,-0.5044444444444439,0.08888888888888902,0.68,-0.1754779399401419,-0.10095587988028382,0.08654412011971618
1588959983.6474438,1.043871288197819,-2.335485152791275,-9.604514847208725,-0.5044444444444439,0.08888888888888902,0.68,-0.004022243818162186,-0.024195551236367564,0.09071779505452975
1588959983.6574438,1.047704829266642,-2.3577048292666416,-9.56622897559985,-0.5044444444444439,0.08888888888888902,0.68,0.1588103658330231,-0.04815518291651155,-0.0625
1588959983.6674438,1.0406076347761346,-2.3506076347761344,-9.523645808656807,-0.5044444444444439,0.08888888888888902,0.68,0.07009543470168195,-0.0037977173508409734,-0.0625
1588959983.6774437,1.05,-2.34205506002785,-9.5058898799443,-0.49888888888888894,0.095555555555556,0.666666666666667,0.0,-0.012844125174061947,0.09931174965187611
1588959983.6874437,1.05,-2.3499476873282905,-9.49010462534342,-0.49888888888888894,0.095555555555556,0.666666666666667,0.0,-0.06217304580181401,0.0006539083963719855
1588959983.6974437,1.03662780515874,-2.3301165845237795,-9.609766830952442,-0.49888888888888894,0.095555555555556,0.666666666666667,0.02107621775787446,0.02107621775787446,0.04215243551574892
1588959983.7074437,1.03,-2.3472007536641484,-9.561602260992446,-0.49888888888888894,0.095555555555556,0.666666666666667,0.09749057919814483,0.027509420801855172,0.10750471040092759
1588959983.7174437,1.0309149401353461,-2.3413724102030193,-9.539085059864654,-0.4991430389264851,0.09586053560067137,0.6670733067268209,0.18464081207704322,-0.05678162415408641,0.059640812077043207
1588959983.7274437,1.0483820926600729,-2.3675731389901093,-9.521617907339927,-0.5039950257389086,0.10168291977557967,0.6748364856266995,0.13005596043727224,0.05238807912545548,0.005055960437272258
1588959983.7374437,1.0315141361836457,-2.338485863816354,-9.543627225652811,-0.5044444444444439,0.10222222222222198,0.675555555555556,-0.07196335114778611,0.01892670229557223,-0.01892670229557223
1588959983.7474437,1.04,-2.3328778847623415,-9.608488460950634,-0.5044444444444439,0.10222222222222198,0.675555555555556,-0.05305288094146417,0.16097355952926792,-0.07103966070609813
1588959983.7574437,1.04,-2.3372917957855592,-9.561042570498916,-0.5044444444444439,0.10222222222222198,0.675555555555556,0.125,0.1992211709792377,0.04557372365974589
1588959983.7674437,1.035866384289565,-2.3313778719034786,-9.505866384289565,-0.5027603787846371,0.10222222222222198,0.6743307805302419,0.10777660120652034,0.0625,0.008611699396739827
1588959983.7774436,1.013637306949807,-2.34,-9.49091192084942,-0.492222222222222,0.10222222222222198,0.666666666666667,-0.045466336872586874,0.03976683156370656,0.017033663127413126
1588959983.7874436,1.0348099550738072,-2.3325950224630962,-9.554429865221422,-0.492222222222222,0.10222222222222198,0.666666666666667,-0.055578335591528194,-0.023140554802823933,-0.03935944519717607
1588959983.7974436,1.0544061261065552,-2.3255938738934447,-9.607624504426221,-0.492222222222222,0.10222222222222198,0.666666666666667,0.07998085591701515,-0.027538288165969697,0.01748085591701515
