time,acc_x,acc_y,acc_z,mag_x,mag_y,mag_z,gyr_x,gyr_y,gyr_z
1589380661.2254062,-0.21,-4.11,8.86,0.5133333333333333,0.21666666666666667,-0.7355555555555555,0.0,0.0,0.125
1589380661.2326336,-0.21,-4.13,8.84,0.5277777777777778,0.22333333333333333,-0.7355555555555555,-0.0625,0.25,0.0
1589380661.2427473,-0.23,-4.11,8.85,0.5277777777777778,0.22333333333333333,-0.7355555555555555,0.0,0.125,0.125
1589380661.2530653,-0.24,-4.12,8.73,0.5277777777777778,0.22333333333333333,-0.7355555555555555,0.0,0.25,0.0
1589380661.263301,-0.24,-4.12,8.78,0.5277777777777778,0.22333333333333333,-0.7355555555555555,0.0,0.125,0.125
1589380661.275728,-0.24,-4.13,8.82,0.5277777777777778,0.22333333333333333,-0.7355555555555555,0.0625,-0.125,-0.1875
1589380661.2830975,-0.22,-4.11,8.85,0.52,0.2088888888888889,-0.7355555555555555,0.125,-0.125,-0.0625
1589380661.2936625,-0.24,-4.11,8.82,0.52,0.2088888888888889,-0.7355555555555555,0.0625,-0.25,-0.0625
1589380661.304809,-0.22,-4.13,8.77,0.52,0.2088888888888889,-0.7355555555555555,-0.0625,-0.25,-0.0625
1589380661.3138163,-0.22,-4.13,8.81,0.52,0.2088888888888889,-0.7355555555555555,-0.125,0.0,0.0625
1589380661.3256464,-0.24,-4.13,8.85,0.52,0.2088888888888889,-0.7355555555555555,-0.0625,0.0625,0.0
1589380661.3368788,-0.2,-4.1,8.85,0.52,0.22333333333333333,-0.7355555555555555,-0.125,0.1875,0.0
1589380661.3437474,-0.24,-4.1,8.82,0.52,0.22333333333333333,-0.7355555555555555,-0.125,0.25,-0.125
1589380661.3586571,-0.23,-4.11,8.74,0.52,0.22333333333333333,-0.7355555555555555,0.0,0.25,0.0625
1589380661.3650641,-0.21,-4.11,8.79,0.52,0.22333333333333333,-0.7355555555555555,0.0,0.25,0.0
1589380661.3782222,-0.24,-4.09,8.83,0.52,0.22333333333333333,-0.7355555555555555,-0.125,0.1875,0.0
1589380661.3846455,-0.23,-4.13,8.85,0.52,0.22333333333333333,-0.75,-0.1875,0.0625,-0.125
1589380661.3972585,-0.24,-4.11,8.89,0.52,0.22333333333333333,-0.75,-0.0625,-0.125,-0.0625
1589380661.4040775,-0.22,-4.13,8.76,0.52,0.22333333333333333,-0.75,-0.0625,-0.125,0.0
1589380661.4173148,-0.21,-4.11,8.78,0.52,0.22333333333333333,-0.75,0.0625,-0.0625,-0.125
1589380661.4268599,-0.19,-4.13,8.81,0.52,0.22333333333333333,-0.75,0.0,0.0,0.0
1589380661.4370394,-0.24,-4.1,8.83,0.54,0.2088888888888889,-0.7422222222222222,0.0,0.125,-0.125
1589380661.4434295,-0.23,-4.11,8.81,0.54,0.2088888888888889,-0.7422222222222222,-0.0625,0.1875,0.0
1589380661.4558456,-0.23,-4.1,8.73,0.54,0.2088888888888889,-0.7422222222222222,-0.125,0.25,0.1875
1589380661.4635625,-0.24,-4.12,8.78,0.54,0.2088888888888889,-0.7422222222222222,-0.125,0.1875,0.0625
1589380661.4767766,-0.23,-4.11,8.85,0.54,0.2088888888888889,-0.7422222222222222,-0.1875,0.1875,0.0
1589380661.4883199,-0.22,-4.14,8.87,0.52,0.22333333333333333,-0.7355555555555555,-0.3125,0.0,0.0
1589380661.495075,-0.21,-4.12,8.88,0.52,0.22333333333333333,-0.7355555555555555,-0.25,-0.1875,-0.0625
1589380661.50475,-0.21,-4.13,8.74,0.52,0.22333333333333333,-0.7355555555555555,-0.125,-0.375,0.0
1589380661.5151734,-0.23,-4.1,8.8,0.52,0.22333333333333333,-0.7355555555555555,-0.125,-0.125,-0.0625
1589380661.5300984,-0.22,-4.12,8.78,0.52,0.22333333333333333,-0.7355555555555555,0.0,0.0,0.0625
1589380661.5363507,-0.24,-4.13,8.8,0.5011111111111111,0.22333333333333333,-0.75,0.125,0.125,-0.0625
1589380661.5477927,-0.23,-4.12,8.78,0.5011111111111111,0.22333333333333333,-0.75,0.1875,0.0625,0.0625
1589380661.5539107,-0.22,-4.15,8.74,0.5011111111111111,0.22333333333333333,-0.75,0.125,0.125,0.0625
1589380661.568004,-0.21,-4.12,8.78,0.5011111111111111,0.22333333333333333,-0.75,0.0625,-0.125,-0.0625
1589380661.5769858,-0.21,-4.12,8.86,0.5011111111111111,0.22333333333333333,-0.75,0.125,-0.125,-0.0625
1589380661.5887735,-0.22,-4.13,8.89,0.52,0.22333333333333333,-0.7422222222222222,0.0625,-0.375,0.125
1589380661.5949125,-0.24,-4.11,8.87,0.52,0.22333333333333333,-0.7422222222222222,-0.125,-0.4375,0.0625
1589380661.6040056,-0.24,-4.11,8.75,0.52,0.22333333333333333,-0.7422222222222222,-0.125,-0.3125,-0.0625
1589380661.6148608,-0.22,-4.13,8.78,0.52,0.22333333333333333,-0.7422222222222222,0.1875,-0.125,0.0
1589380661.6270528,-0.22,-4.09,8.78,0.52,0.22333333333333333,-0.7422222222222222,0.25,-0.1875,0.0
1589380661.6353061,-0.21,-4.11,8.82,0.5066666666666667,0.21666666666666667,-0.75,0.125,0.0625,0.0
1589380661.64714,-0.23,-4.11,8.84,0.5066666666666667,0.21666666666666667,-0.75,0.125,0.125,0.125
1589380661.6544704,-0.24,-4.11,8.74,0.5066666666666667,0.21666666666666667,-0.75,0.25,0.25,0.0625
1589380661.6683373,-0.24,-4.11,8.78,0.5066666666666667,0.21666666666666667,-0.75,0.125,0.1875,0.0
1589380661.6820307,-0.22,-4.14,8.85,0.5066666666666667,0.21666666666666667,-0.75,0.0625,0.0,-0.125
1589380661.6879098,-0.23,-4.11,8.88,0.5277777777777778,0.22333333333333333,-0.7288888888888889,-0.0625,-0.25,0.0
1589380661.6993196,-0.22,-4.13,8.82,0.5277777777777778,0.22333333333333333,-0.7288888888888889,-0.0625,0.0,-0.125
1589380661.705304,-0.21,-4.12,8.71,0.5277777777777778,0.22333333333333333,-0.7288888888888889,-0.125,-0.3125,0.125
1589380661.7187002,-0.2,-4.12,8.75,0.5277777777777778,0.22333333333333333,-0.7288888888888889,0.0,-0.1875,0.1875
1589380661.7277744,-0.22,-4.1,8.86,0.5277777777777778,0.22333333333333333,-0.7288888888888889,-0.0625,0.0,0.0
1589380661.7386525,-0.23,-4.11,8.87,0.5133333333333333,0.22333333333333333,-0.7422222222222222,0.1875,0.0625,0.1875
1589380661.7455337,-0.24,-4.11,8.88,0.5133333333333333,0.22333333333333333,-0.7422222222222222,0.125,0.1875,0.0625
1589380661.7572994,-0.23,-4.13,8.78,0.5133333333333333,0.22333333333333333,-0.7422222222222222,-0.0625,-0.0625,0.0
1589380661.7658155,-0.21,-4.12,8.79,0.5133333333333333,0.22333333333333333,-0.7422222222222222,-0.125,-0.25,0.125
1589380661.778307,-0.22,-4.1,8.84,0.5133333333333333,0.22333333333333333,-0.7422222222222222,-0.0625,-0.3125,0.0
1589380661.7849805,-0.2,-4.12,8.83,0.5333333333333333,0.2311111111111111,-0.7566666666666667,-0.0625,-0.375,-0.0625
1589380661.7964113,-0.23,-4.12,8.77,0.5333333333333333,0.2311111111111111,-0.7566666666666667,0.125,-0.1875,0.0
1589380661.8057606,-0.24,-4.11,8.72,0.5333333333333333,0.2311111111111111,-0.7566666666666667,0.0,-0.25,-0.0625
1589380661.8182828,-0.25,-4.13,8.77,0.5333333333333333,0.2311111111111111,-0.7566666666666667,0.0,0.0,0.0
1589380661.8333554,-0.22,-4.12,8.85,0.5333333333333333,0.2311111111111111,-0.7566666666666667,0.0625,-0.0625,0.1875
1589380661.839071,-0.21,-4.13,8.87,0.52,0.2088888888888889,-0.7355555555555555,0.0,0.125,0.0625
1589380661.8510456,-0.23,-4.18,8.85,0.52,0.2088888888888889,-0.7355555555555555,-0.125,0.0625,0.0
1589380661.8577032,-0.24,-4.2,8.74,0.52,0.2088888888888889,-0.7355555555555555,0.0,-0.0625,-0.125
1589380661.8699095,-0.22,-4.13,8.78,0.52,0.2088888888888889,-0.7355555555555555,0.0625,-0.125,-0.125
1589380661.8784015,-0.21,-4.11,8.81,0.52,0.2088888888888889,-0.7355555555555555,0.0625,-0.1875,-0.1875
1589380661.891374,-0.2,-4.09,8.84,0.5277777777777778,0.21666666666666667,-0.7422222222222222,0.0625,-0.1875,-0.0625
1589380661.8973398,-0.22,-4.11,8.82,0.5277777777777778,0.21666666666666667,-0.7422222222222222,0.0625,-0.125,0.125
1589380661.9093661,-0.22,-4.1,8.72,0.5277777777777778,0.21666666666666667,-0.7422222222222222,0.0625,0.25,-0.0625
1589380661.915391,-0.22,-4.08,8.81,0.5277777777777778,0.21666666666666667,-0.7422222222222222,0.0,0.3125,-0.0625
1589380661.9301288,-0.23,-4.16,8.85,0.5277777777777778,0.21666666666666667,-0.7422222222222222,-0.1875,0.0625,-0.125
1589380661.9366016,-0.24,-4.2,8.88,0.52,0.21666666666666667,-0.7422222222222222,-0.1875,-0.0625,-0.0625
1589380661.9494116,0.0,-3.94,8.88,0.52,0.21666666666666667,-0.7422222222222222,-0.375,-0.1875,-0.3125
1589380661.9556825,-0.26,-3.97,8.72,0.52,0.21666666666666667,-0.7422222222222222,-0.0625,-0.125,-0.6875
1589380661.9661136,-0.23,-4.13,8.71,0.52,0.21666666666666667,-0.7422222222222222,0.0,0.25,-0.8125
1589380661.984736,-0.19,-4.13,8.78,0.52,0.21666666666666667,-0.7422222222222222,0.0625,-0.0625,-0.8125
1589380661.99053,-0.28,-4.06,8.8,0.5133333333333333,0.22333333333333333,-0.7566666666666667,0.0625,0.25,-0.8125
1589380661.997338,-0.28,-4.07,8.83,0.5133333333333333,0.22333333333333333,-0.7566666666666667,0.3125,0.25,-0.8125
1589380662.0092955,-0.22,-4.11,8.78,0.5133333333333333,0.22333333333333333,-0.7566666666666667,0.125,0.0625,0.0
1589380662.0204575,-0.24,-4.11,8.86,0.5133333333333333,0.22333333333333333,-0.7566666666666667,0.1875,0.1875,-0.125
1589380662.0288208,-0.22,-4.12,8.89,0.5133333333333333,0.22333333333333333,-0.7566666666666667,0.0625,0.0,-0.1875
1589380662.0421321,-0.24,-4.11,8.91,0.5133333333333333,0.2311111111111111,-0.7355555555555555,0.0625,-0.25,-0.0625
1589380662.0481968,-0.21,-4.13,8.83,0.5133333333333333,0.2311111111111111,-0.7355555555555555,-0.1875,-0.375,-0.0625
1589380662.0572033,-0.23,-4.11,8.71,0.5133333333333333,0.2311111111111111,-0.7355555555555555,0.0,-0.25,-0.1875
1589380662.0670009,-0.22,-4.12,8.75,0.5133333333333333,0.2311111111111111,-0.7355555555555555,-0.0625,-0.25,-0.125
1589380662.0806575,-0.23,-4.1,8.75,0.5133333333333333,0.2311111111111111,-0.7355555555555555,-0.1875,0.0625,-0.125
1589380662.0866644,-0.23,-4.11,8.82,0.5277777777777778,0.2311111111111111,-0.7644444444444445,0.0625,0.0625,0.1875
1589380662.1015804,-0.23,-4.1,8.85,0.5277777777777778,0.2311111111111111,-0.7644444444444445,0.0625,0.0625,0.1875
1589380662.1080947,-0.2,-4.13,8.78,0.5277777777777778,0.2311111111111111,-0.7644444444444445,0.0625,0.0625,0.125
1589380662.1185648,-0.19,-4.11,8.86,0.5277777777777778,0.2311111111111111,-0.7644444444444445,0.0625,0.125,0.125
1589380662.1301522,-0.21,-4.11,8.84,0.5277777777777778,0.2311111111111111,-0.7644444444444445,0.0,-0.375,-0.0625
1589380662.1416605,-0.21,-4.13,8.85,0.5277777777777778,0.21666666666666667,-0.7566666666666667,-0.125,-0.25,0.0625
1589380662.1476035,-0.2,-4.12,8.86,0.5277777777777778,0.21666666666666667,-0.7566666666666667,0.0625,-0.125,0.1875
1589380662.1578484,-0.21,-4.11,8.74,0.5277777777777778,0.21666666666666667,-0.7566666666666667,0.0625,0.0625,0.125
1589380662.1714535,-0.2,-4.1,8.74,0.5277777777777778,0.21666666666666667,-0.7566666666666667,0.0,0.25,0.125
1589380662.179708,-0.21,-4.12,8.78,0.5277777777777778,0.21666666666666667,-0.7566666666666667,0.125,0.5,0.1875
1589380662.18781,-0.23,-4.12,8.85,0.5066666666666667,0.21666666666666667,-0.7355555555555555,0.125,0.375,0.1875
1589380662.1993759,-0.22,-4.12,8.85,0.5066666666666667,0.21666666666666667,-0.7355555555555555,0.125,0.1875,0.0625
1589380662.2077682,-0.23,-4.12,8.76,0.5066666666666667,0.21666666666666667,-0.7355555555555555,0.25,-0.125,0.0625
1589380662.2202795,-0.24,-4.11,8.76,0.5066666666666667,0.21666666666666667,-0.7355555555555555,0.0625,-0.3125,0.0625
1589380662.2305505,-0.23,-4.12,8.85,0.5066666666666667,0.21666666666666667,-0.7355555555555555,0.0,-0.3125,0.0625
1589380662.2374618,-0.22,-4.13,8.85,0.5066666666666667,0.2088888888888889,-0.7422222222222222,-0.0625,-0.4375,0.0625
1589380662.251456,-0.21,-4.11,8.84,0.5066666666666667,0.2088888888888889,-0.7422222222222222,-0.125,-0.3125,0.25
1589380662.257343,-0.2,-4.1,8.75,0.5066666666666667,0.2088888888888889,-0.7422222222222222,-0.25,-0.125,0.0
1589380662.267524,-0.21,-4.09,8.82,0.5066666666666667,0.2088888888888889,-0.7422222222222222,-0.375,-0.125,-0.1875
1589380662.2805133,-0.23,-4.11,8.86,0.5066666666666667,0.2088888888888889,-0.7422222222222222,-0.3125,-0.1875,-0.25
1589380662.2909455,-0.2,-4.11,8.86,0.54,0.21666666666666667,-0.7288888888888889,-0.4375,0.0,-0.0625
1589380662.2981243,-0.22,-4.1,8.8,0.54,0.21666666666666667,-0.7288888888888889,-0.4375,-0.125,-0.0625
1589380662.3080428,-0.25,-4.09,8.72,0.54,0.21666666666666667,-0.7288888888888889,-0.4375,-0.375,0.0
1589380662.3174338,-0.25,-3.96,8.79,0.54,0.21666666666666667,-0.7288888888888889,-0.5625,-0.8125,-0.5625
1589380662.328953,-0.13,-3.71,8.83,0.54,0.21666666666666667,-0.7288888888888889,-0.875,-1.5625,-3.8125
1589380662.33711,-0.17,-3.71,8.91,0.5277777777777778,0.2088888888888889,-0.7211111111111111,-1.25,-0.875,-11.0625
1589380662.3471565,-0.29,-3.77,8.88,0.5277777777777778,0.2088888888888889,-0.7211111111111111,-1.375,-0.0625,-17.0
1589380662.3529155,-0.29,-3.77,8.88,0.5277777777777778,0.2088888888888889,-0.7211111111111111,-1.375,-0.0625,-17.0
1589380662.3596644,-0.5,-3.74,8.8,0.5277777777777778,0.2088888888888889,-0.7211111111111111,-1.5,0.25,-17.5
1589380662.3718646,-0.65,-3.92,8.85,0.5277777777777778,0.2088888888888889,-0.7211111111111111,-1.75,-0.75,-11.8125
1589380662.3803494,-1.31,-2.6,9.19,0.5277777777777778,0.2088888888888889,-0.7211111111111111,-0.875,0.3125,0.125
1589380662.38819,-1.02,-2.13,8.77,0.5277777777777778,0.2311111111111111,-0.7355555555555555,2.0,2.9375,25.375
1589380662.403222,-0.63,-2.45,8.98,0.5277777777777778,0.2311111111111111,-0.7355555555555555,-1.0,-3.8125,41.8125
1589380662.409968,-0.29,-2.69,8.79,0.5277777777777778,0.2311111111111111,-0.7355555555555555,-1.0625,-4.375,49.1875
1589380662.4234755,-0.24,-2.98,8.85,0.5277777777777778,0.2311111111111111,-0.7355555555555555,-1.25,-4.9375,50.75
1589380662.4297357,-0.22,-3.18,8.89,0.5277777777777778,0.2311111111111111,-0.7355555555555555,-1.4375,-4.9375,49.25
1589380662.4415796,-0.25,-3.13,9.0,0.5133333333333333,0.21666666666666667,-0.7422222222222222,-1.4375,-4.625,46.9375
1589380662.4482315,-0.21,-3.0,8.95,0.5133333333333333,0.21666666666666667,-0.7422222222222222,-1.0,-4.125,45.5
1589380662.461953,-0.33,-3.03,8.91,0.5133333333333333,0.21666666666666667,-0.7422222222222222,-1.1875,-4.25,44.5625
1589380662.469517,-0.35,-2.95,8.87,0.5133333333333333,0.21666666666666667,-0.7422222222222222,-1.25,-3.9375,45.0625
1589380662.4810562,-0.41,-2.85,8.92,0.5133333333333333,0.21666666666666667,-0.7422222222222222,-1.25,-4.0,46.4375
1589380662.4881086,-0.42,-2.77,8.92,0.5277777777777778,0.20444444444444448,-0.7422222222222222,-1.1875,-4.0625,48.1875
1589380662.4976854,-0.42,-2.71,9.0,0.5277777777777778,0.20444444444444448,-0.7422222222222222,-1.0625,-4.875,50.875
1589380662.5033355,-0.42,-2.71,9.0,0.5277777777777778,0.20444444444444448,-0.7422222222222222,-1.0625,-4.875,50.875
1589380662.5100846,-0.43,-2.62,8.85,0.5277777777777778,0.20444444444444448,-0.7422222222222222,-0.875,-4.875,54.0625
1589380662.5209036,-0.39,-2.7,8.91,0.5277777777777778,0.20444444444444448,-0.7422222222222222,-1.375,-5.4375,57.1875
1589380662.531095,-0.36,-2.72,8.9,0.5277777777777778,0.20444444444444448,-0.7422222222222222,-1.4375,-5.625,59.6875
1589380662.5420392,-0.33,-2.75,8.96,0.5277777777777778,0.17,-0.7422222222222222,-1.5,-6.0,61.0625
1589380662.5543265,-0.26,-2.8,8.91,0.5277777777777778,0.17,-0.7422222222222222,-1.375,-5.875,61.375
1589380662.5604663,-0.29,-2.81,8.89,0.5277777777777778,0.17,-0.7422222222222222,-1.5625,-5.8125,60.25
1589380662.5744874,-0.24,-2.81,8.92,0.5277777777777778,0.17,-0.7422222222222222,-1.5625,-5.3125,58.125
1589380662.5820715,-0.28,-2.82,8.93,0.5277777777777778,0.17,-0.7422222222222222,-1.4375,-5.0,55.1875
1589380662.5902355,-0.32,-2.81,8.95,0.5011111111111111,0.1511111111111111,-0.7777777777777778,-1.25,-4.5625,52.375
1589380662.5992804,-0.37,-2.82,8.95,0.5011111111111111,0.1511111111111111,-0.7777777777777778,-1.25,-4.3125,49.8125
1589380662.6134331,-0.4,-2.82,8.87,0.5011111111111111,0.1511111111111111,-0.7777777777777778,-0.9375,-4.375,47.6875
1589380662.619856,-0.51,-2.81,8.91,0.5011111111111111,0.1511111111111111,-0.7777777777777778,-1.3125,-4.25,46.6875
1589380662.6316586,-0.47,-2.8,8.9,0.5011111111111111,0.1511111111111111,-0.7777777777777778,-1.3125,-4.125,46.5
1589380662.6397135,-0.46,-2.75,8.99,0.4933333333333334,0.12222222222222222,-0.7777777777777778,-1.5,-4.5625,45.8125
1589380662.6514626,-0.44,-2.74,8.96,0.4933333333333334,0.12222222222222222,-0.7777777777777778,-1.0625,-4.125,44.6875
1589380662.6596367,-0.51,-2.85,8.87,0.4933333333333334,0.12222222222222222,-0.7777777777777778,-1.25,-4.0625,43.125
1589380662.6698828,-0.51,-2.84,8.92,0.4933333333333334,0.12222222222222222,-0.7777777777777778,-1.0625,-3.625,41.375
1589380662.681857,-0.52,-2.83,8.98,0.4933333333333334,0.12222222222222222,-0.7777777777777778,-1.25,-3.4375,40.125
1589380662.693426,-0.55,-2.8,9.0,0.5011111111111111,0.08333333333333333,-0.7855555555555556,-1.0625,-3.0625,38.8125
1589380662.7003384,-0.58,-2.82,8.92,0.5011111111111111,0.08333333333333333,-0.7855555555555556,-0.8125,-3.125,37.75
1589380662.7118804,-0.59,-2.79,8.84,0.5011111111111111,0.08333333333333333,-0.7855555555555556,-0.9375,-3.0,36.875
1589380662.7207606,-0.58,-2.78,8.9,0.5011111111111111,0.08333333333333333,-0.7855555555555556,-0.875,-2.8125,35.9375
1589380662.731757,-0.61,-2.84,8.92,0.5011111111111111,0.08333333333333333,-0.7855555555555556,-0.9375,-2.8125,35.0625
1589380662.7421708,-0.67,-2.9,8.97,0.4566666666666666,0.03666666666666667,-0.7566666666666667,-1.0,-3.0625,34.0625
1589380662.749725,-0.6,-2.87,8.9,0.4566666666666666,0.03666666666666667,-0.7566666666666667,-0.875,-3.0,33.5625
1589380662.7640562,-0.65,-2.88,8.89,0.4566666666666666,0.03666666666666667,-0.7566666666666667,-0.9375,-3.0,32.625
1589380662.7704706,-0.66,-2.85,8.91,0.4566666666666666,0.03666666666666667,-0.7566666666666667,-1.0,-2.5625,31.9375
1589380662.7827985,-0.64,-2.86,8.96,0.4566666666666666,0.03666666666666667,-0.7566666666666667,-1.0,-2.5625,31.125
1589380662.7906134,-0.65,-2.9,8.97,0.4488888888888889,-0.017777777777777778,-0.7288888888888889,-0.9375,-2.625,30.4375
1589380662.8025804,-0.6,-2.89,8.88,0.4488888888888889,-0.017777777777777778,-0.7288888888888889,-1.25,-2.0625,29.0
1589380662.810149,-0.7,-2.88,8.83,0.4488888888888889,-0.017777777777777778,-0.7288888888888889,-1.125,-2.125,25.875
1589380662.820476,-0.7,-2.86,8.83,0.4488888888888889,-0.017777777777777778,-0.7288888888888889,-0.8125,-1.4375,24.5625
1589380662.8322453,-0.72,-2.89,8.88,0.4488888888888889,-0.017777777777777778,-0.7288888888888889,-0.9375,-1.375,24.125
1589380662.8428895,-0.84,-3.18,9.44,0.4511111111111111,-0.06555555555555556,-0.6933333333333334,-1.375,-1.75,23.1875
1589380662.8498163,-0.94,-3.39,9.14,0.4511111111111111,-0.06555555555555556,-0.6933333333333334,1.0625,0.0,22.8125
1589380662.8597367,-0.97,-3.57,7.76,0.4511111111111111,-0.06555555555555556,-0.6933333333333334,1.5,4.6875,23.0625
1589380662.8705726,-0.7,-2.99,9.22,0.4511111111111111,-0.06555555555555556,-0.6933333333333334,-4.5,0.1875,20.125
1589380662.8817651,-0.6,-2.79,9.18,0.4511111111111111,-0.06555555555555556,-0.6933333333333334,-4.0,-6.3125,16.625
1589380662.889353,-0.64,-2.83,8.92,0.4933333333333334,-0.07111111111111111,-0.6577777777777778,-1.75,-3.3125,14.75
1589380662.9002204,-0.71,-2.94,9.01,0.4933333333333334,-0.07111111111111111,-0.6577777777777778,-1.8125,-1.5,12.9375
1589380662.9146984,-0.78,-2.98,8.8,0.4933333333333334,-0.07111111111111111,-0.6577777777777778,-1.625,-0.625,11.5
1589380662.9213405,-0.77,-3.0,8.85,0.4933333333333334,-0.07111111111111111,-0.6577777777777778,-1.6875,-0.125,10.0
1589380662.9343915,-0.82,-3.07,8.86,0.4933333333333334,-0.07111111111111111,-0.6577777777777778,-1.5,0.1875,8.5
1589380662.9400394,-0.8,-3.13,8.88,0.4811111111111111,-0.06555555555555556,-0.6344444444444445,-1.4375,0.3125,6.8125
1589380662.9505208,-1.0,-3.37,8.89,0.4811111111111111,-0.06555555555555556,-0.6344444444444445,-1.375,0.4375,4.6875
1589380662.9603686,-1.26,-3.88,8.85,0.4811111111111111,-0.06555555555555556,-0.6344444444444445,-1.4375,1.6875,3.4375
1589380662.973982,-1.24,-3.9,8.71,0.4811111111111111,-0.06555555555555556,-0.6344444444444445,-0.75,4.1875,2.6875
1589380662.9816566,-0.76,-2.96,8.98,0.4811111111111111,-0.06555555555555556,-0.6344444444444445,-0.6875,2.25,1.25
1589380662.9937878,-0.81,-2.98,8.84,0.5288888888888889,-0.03888888888888889,-0.6288888888888889,-0.6875,-2.0,-1.0
1589380663.0001016,-1.04,-3.49,9.1,0.5288888888888889,-0.03888888888888889,-0.6288888888888889,-1.1875,0.375,-2.4375
1589380663.011736,-1.03,-3.42,8.7,0.5288888888888889,-0.03888888888888889,-0.6288888888888889,-1.25,4.0,-3.0625
1589380663.0204196,-0.94,-3.21,8.95,0.5288888888888889,-0.03888888888888889,-0.6288888888888889,-1.0,0.25,-4.8125
1589380663.033272,-0.83,-2.99,8.72,0.5288888888888889,-0.03888888888888889,-0.6288888888888889,-0.25,0.0,-5.625
1589380663.0409846,-0.87,-3.1,9.08,0.5877777777777777,0.021111111111111112,-0.6222222222222222,-0.0625,-0.5,-6.625
1589380663.0506074,-0.76,-2.99,9.0,0.5877777777777777,0.021111111111111112,-0.6222222222222222,0.375,-1.625,-7.5
1589380663.0651314,-0.8,-3.1,8.85,0.5877777777777777,0.021111111111111112,-0.6222222222222222,0.3125,-1.125,-8.9375
1589380663.0715153,-0.8,-3.06,8.81,0.5877777777777777,0.021111111111111112,-0.6222222222222222,0.0625,0.1875,-10.25
1589380663.0885909,-0.79,-3.07,8.96,0.5877777777777777,0.021111111111111112,-0.6222222222222222,0.0,0.75,-11.5625
1589380663.0951018,-0.77,-3.03,8.94,0.6522222222222223,0.0811111111111111,-0.6855555555555556,0.25,0.8125,-12.75
1589380663.1072,-0.78,-3.11,8.96,0.6522222222222223,0.0811111111111111,-0.6855555555555556,0.1875,1.1875,-14.5
1589380663.1139846,-0.8,-3.12,8.89,0.6522222222222223,0.0811111111111111,-0.6855555555555556,0.4375,1.4375,-15.875
1589380663.1255324,-0.73,-3.07,8.9,0.6522222222222223,0.0811111111111111,-0.6855555555555556,0.6875,1.6875,-17.4375
1589380663.1337547,-0.75,-3.08,8.91,0.6522222222222223,0.0811111111111111,-0.6855555555555556,0.6875,1.6875,-19.1875
1589380663.145499,-0.71,-3.05,8.93,0.73,-0.04,-0.9377777777777778,0.75,1.8125,-21.125
1589380663.1514509,-0.8,-3.06,8.93,0.73,-0.04,-0.9377777777777778,1.0,1.9375,-22.875
1589380663.165133,-1.12,-3.49,9.44,0.73,-0.04,-0.9377777777777778,0.9375,2.0,-23.625
1589380663.1712945,-1.1,-3.46,7.83,0.73,-0.04,-0.9377777777777778,3.4375,7.625,-22.625
1589380663.1847975,-0.81,-3.33,9.12,0.73,-0.04,-0.9377777777777778,0.125,3.5625,-21.8125
1589380663.1915205,-0.73,-3.03,9.03,0.57,-0.11888888888888888,-0.6644444444444444,-0.125,-1.75,-22.9375
1589380663.2015836,-0.79,-2.97,8.94,0.57,-0.11888888888888888,-0.6644444444444444,0.25,-0.3125,-22.6875
1589380663.2157338,-0.82,-3.02,8.83,0.57,-0.11888888888888888,-0.6644444444444444,0.875,1.6875,-21.625
1589380663.222437,-0.86,-3.08,8.86,0.57,-0.11888888888888888,-0.6644444444444444,0.75,1.75,-20.125
1589380663.237266,-0.91,-3.2,8.9,0.57,-0.11888888888888888,-0.6644444444444444,0.8125,1.8125,-17.9375
1589380663.2432013,-0.89,-3.17,8.94,0.5544444444444444,-0.0011111111111111113,-0.62,0.6875,1.6875,-15.875
1589380663.2580974,-0.85,-3.09,8.93,0.5544444444444444,-0.0011111111111111113,-0.62,0.8125,1.375,-13.5625
1589380663.2642903,-0.83,-3.06,8.79,0.5544444444444444,-0.0011111111111111113,-0.62,0.6875,1.25,-11.0625
1589380663.2733796,-0.82,-3.1,8.87,0.5544444444444444,-0.0011111111111111113,-0.62,0.6875,1.0,-8.5625
1589380663.2846055,-0.81,-3.12,8.94,0.5544444444444444,-0.0011111111111111113,-0.62,0.625,0.625,-5.625
1589380663.2962508,-0.83,-3.15,8.93,0.5544444444444444,0.045555555555555564,-0.6222222222222222,0.5625,0.3125,-2.4375
1589380663.3026118,-0.82,-3.25,8.91,0.5544444444444444,0.045555555555555564,-0.6222222222222222,0.5,-0.125,0.5
1589380663.3160632,-0.87,-3.28,8.83,0.5544444444444444,0.045555555555555564,-0.6222222222222222,0.3125,-0.3125,3.8125
1589380663.3221762,-1.06,-3.67,8.99,0.5544444444444444,0.045555555555555564,-0.6222222222222222,0.3125,0.25,7.375
1589380663.3341565,-1.04,-3.81,8.93,0.5544444444444444,0.045555555555555564,-0.6222222222222222,0.5625,3.25,11.9375
1589380663.3408494,-0.89,-3.62,9.36,0.5611111111111111,0.07111111111111111,-0.6144444444444445,0.5,-2.0,14.125
1589380663.3466387,-0.89,-3.62,9.36,0.5611111111111111,0.07111111111111111,-0.6144444444444445,0.5,-2.0,14.125
1589380663.3616474,-0.83,-3.57,8.8,0.5611111111111111,0.07111111111111111,-0.6144444444444445,0.3125,-1.4375,18.4375
1589380663.373214,-0.83,-3.57,8.8,0.5611111111111111,0.07111111111111111,-0.6144444444444445,0.3125,-1.4375,18.4375
1589380663.3902385,-0.62,-3.42,8.94,0.5611111111111111,0.07111111111111111,-0.6144444444444445,0.5,-2.5625,20.875
1589380663.3959274,-0.66,-3.44,8.96,0.5666666666666667,0.07777777777777778,-0.6166666666666667,0.6875,-3.0,20.75
1589380663.4031086,-0.64,-3.4,8.91,0.5666666666666667,0.07777777777777778,-0.6166666666666667,0.5625,-2.3125,19.8125
1589380663.4149086,-0.72,-3.5,8.84,0.5666666666666667,0.07777777777777778,-0.6166666666666667,0.75,-1.8125,18.375
1589380663.4275928,-0.65,-3.46,8.88,0.5666666666666667,0.07777777777777778,-0.6166666666666667,0.5,-1.625,17.9375
1589380663.435026,-0.66,-3.51,8.89,0.5666666666666667,0.07777777777777778,-0.6166666666666667,0.5,-1.75,16.6875
1589380663.447628,-0.65,-3.53,8.92,0.5666666666666667,0.1111111111111111,-0.6233333333333333,0.4375,-1.375,14.3125
1589380663.4536972,-0.58,-3.32,8.9,0.5666666666666667,0.1111111111111111,-0.6233333333333333,0.5625,-1.125,10.9375
1589380663.4632132,-0.62,-3.32,8.8,0.5666666666666667,0.1111111111111111,-0.6233333333333333,0.5,-0.5,6.4375
1589380663.4746926,-0.58,-3.22,8.86,0.5666666666666667,0.1111111111111111,-0.6233333333333333,0.75,-0.1875,1.5
1589380663.4852867,-0.78,-3.4,8.85,0.5666666666666667,0.1111111111111111,-0.6233333333333333,0.875,0.3125,-3.125
1589380663.4926207,-0.68,-3.29,8.91,0.5722222222222222,0.08888888888888889,-0.6355555555555555,0.6875,1.3125,-7.125
1589380663.505343,-0.77,-3.41,8.97,0.5722222222222222,0.08888888888888889,-0.6355555555555555,1.0625,1.1875,-10.25
1589380663.5139925,-0.61,-3.36,8.81,0.5722222222222222,0.08888888888888889,-0.6355555555555555,1.0625,1.1875,-12.8125
1589380663.5270345,-0.62,-3.28,8.81,0.5722222222222222,0.08888888888888889,-0.6355555555555555,1.0625,1.3125,-16.75
1589380663.535793,-0.61,-3.3,8.89,0.5722222222222222,0.08888888888888889,-0.6355555555555555,1.375,2.5,-22.4375
1589380663.5460494,-0.5,-3.25,8.98,0.6522222222222223,0.08333333333333333,-0.6588888888888889,0.875,2.4375,-27.0
1589380663.5538144,-0.57,-3.16,8.82,0.6522222222222223,0.08333333333333333,-0.6588888888888889,1.25,3.0625,-32.125
1589380663.5634608,-0.7,-3.26,8.86,0.6522222222222223,0.08333333333333333,-0.6588888888888889,1.3125,3.75,-36.5625
1589380663.574395,-0.29,-3.01,8.94,0.6522222222222223,0.08333333333333333,-0.6588888888888889,1.375,3.75,-40.375
1589380663.585728,-0.43,-2.95,8.97,0.6522222222222223,0.08333333333333333,-0.6588888888888889,0.625,3.25,-46.875
1589380663.5974565,-0.77,-3.17,8.91,0.9466666666666668,0.10222222222222224,-0.7022222222222222,2.375,6.25,-53.5
1589380663.6037445,-0.73,-3.26,8.99,0.9466666666666668,0.10222222222222224,-0.7022222222222222,1.625,5.875,-55.875
1589380663.6138225,-0.9,-3.27,8.81,0.9466666666666668,0.10222222222222224,-0.7022222222222222,1.125,4.6875,-57.125
1589380663.6252804,-0.98,-3.31,8.78,0.9466666666666668,0.10222222222222224,-0.7022222222222222,1.875,5.5,-55.25
1589380663.6359458,-0.67,-3.29,8.92,0.9466666666666668,0.10222222222222224,-0.7022222222222222,1.125,4.625,-50.5
1589380663.643208,-0.79,-3.34,8.9,1.8044444444444443,-0.08888888888888889,-1.4311111111111108,1.5625,4.625,-47.3125
1589380663.6546366,-0.76,-3.3,8.91,1.8044444444444443,-0.08888888888888889,-1.4311111111111108,1.5625,4.6875,-44.9375
1589380663.6641474,-0.72,-3.16,8.8,1.8044444444444443,-0.08888888888888889,-1.4311111111111108,1.0,3.625,-41.375
1589380663.6750345,-0.69,-3.08,8.9,1.8044444444444443,-0.08888888888888889,-1.4311111111111108,1.1875,4.0625,-38.75
1589380663.6861928,-0.69,-3.03,8.98,1.8044444444444443,-0.08888888888888889,-1.4311111111111108,0.8125,3.5,-36.25
1589380663.6970787,-0.69,-3.03,8.94,0.8222222222222222,-0.12,-0.7377777777777778,1.0625,3.375,-33.8125
1589380663.7048068,-0.69,-3.02,8.92,0.8222222222222222,-0.12,-0.7377777777777778,1.1875,3.1875,-30.875
1589380663.7143989,-0.68,-3.03,8.85,0.8222222222222222,-0.12,-0.7377777777777778,1.4375,3.125,-27.8125
1589380663.7245214,-0.69,-3.01,8.88,0.8222222222222222,-0.12,-0.7377777777777778,1.0625,2.5625,-24.5
1589380663.7363133,-0.65,-2.93,9.0,0.8222222222222222,-0.12,-0.7377777777777778,0.8125,2.1875,-20.625
1589380663.7448573,-0.69,-2.92,8.95,0.5966666666666667,0.10222222222222224,-0.6733333333333333,0.875,1.625,-16.5
1589380663.7569857,-0.6,-2.92,8.92,0.5966666666666667,0.10222222222222224,-0.6733333333333333,0.8125,1.25,-12.75
1589380663.7652755,-0.74,-2.98,8.91,0.5966666666666667,0.10222222222222224,-0.6733333333333333,0.5,1.125,-8.875
1589380663.774621,-0.75,-2.88,8.94,0.5966666666666667,0.10222222222222224,-0.6733333333333333,0.5625,0.9375,-4.4375
1589380663.790374,-0.76,-2.86,8.96,0.5966666666666667,0.10222222222222224,-0.6733333333333333,0.1875,0.0625,1.5625
1589380663.7962012,-0.74,-2.89,8.99,0.5666666666666667,0.14222222222222222,-0.6733333333333333,0.0,-0.5,7.4375
1589380663.8083856,-0.79,-2.99,8.89,0.5666666666666667,0.14222222222222222,-0.6733333333333333,0.1875,-0.875,13.125
1589380663.8153176,-0.76,-2.92,8.88,0.5666666666666667,0.14222222222222222,-0.6733333333333333,0.0625,-1.5,19.9375
1589380663.8289535,-0.76,-2.95,8.88,0.5666666666666667,0.14222222222222222,-0.6733333333333333,-0.3125,-2.25,26.6875
1589380663.8365958,-0.76,-3.05,9.02,0.5666666666666667,0.14222222222222222,-0.6733333333333333,-0.375,-2.6875,32.5
1589380663.8468268,-0.63,-3.29,8.97,0.5822222222222222,0.16333333333333333,-0.6666666666666666,-0.375,-2.6875,38.125
1589380663.85446,-0.58,-3.26,8.93,0.5822222222222222,0.16333333333333333,-0.6666666666666666,-0.4375,-3.6875,43.0625
1589380663.8646538,-0.58,-3.37,8.8,0.5822222222222222,0.16333333333333333,-0.6666666666666666,-0.75,-3.8125,46.4375
1589380663.8746352,-0.5,-3.47,8.82,0.5822222222222222,0.16333333333333333,-0.6666666666666666,-0.4375,-4.125,49.3125
1589380663.8861775,-0.25,-3.57,8.91,0.5822222222222222,0.16333333333333333,-0.6666666666666666,-0.625,-4.625,50.625
1589380663.8936255,-0.22,-3.95,9.17,0.5366666666666666,0.14333333333333334,-0.6222222222222222,-0.5,-4.4375,49.5625
1589380663.9043968,-0.22,-3.95,9.17,0.5366666666666666,0.14333333333333334,-0.6222222222222222,-0.5,-4.4375,49.5625
1589380663.914334,4.54,5.05,3.24,0.5366666666666666,0.14333333333333334,-0.6222222222222222,-34.625,17.4375,-80.3125
1589380663.9242132,-1.11,-2.4,-1.32,0.5366666666666666,0.14333333333333334,-0.6222222222222222,-91.625,51.8125,-340.125
1589380663.9360766,-0.3,-4.41,19.5,0.5366666666666666,0.14333333333333334,-0.6222222222222222,-66.375,16.875,-393.6875
1589380663.9459054,-1.83,-2.02,4.62,0.5577777777777778,0.17777777777777778,-0.6077777777777778,-4.75,62.6875,-375.1875
1589380663.9574795,-1.15,2.03,0.07,0.5577777777777778,0.17777777777777778,-0.6077777777777778,131.625,86.375,-349.875
1589380663.9649935,0.05,-1.68,13.98,0.5577777777777778,0.17777777777777778,-0.6077777777777778,116.4375,5.1875,-327.5
1589380663.9744885,-0.24,-1.54,9.46,0.5577777777777778,0.17777777777777778,-0.6077777777777778,-18.25,4.0,-304.125
1589380663.986502,-1.93,0.1,8.89,0.5577777777777778,0.17777777777777778,-0.6077777777777778,7.1875,29.75,-299.5625
1589380664.000351,-1.18,-0.04,8.89,0.4833333333333333,0.3022222222222222,-0.6222222222222222,4.0,19.125,-227.9375
1589380664.0060382,-1.45,0.09,10.08,0.4833333333333333,0.3022222222222222,-0.6222222222222222,4.0,19.125,-227.9375
1589380664.0181904,-1.52,0.33,8.74,0.4833333333333333,0.3022222222222222,-0.6222222222222222,5.8125,19.0,-191.6875
1589380664.0252335,-0.11,-0.01,9.38,0.4833333333333333,0.3022222222222222,-0.6222222222222222,3.1875,14.375,-148.4375
1589380664.0365198,0.3,-0.36,8.49,0.4833333333333333,0.3022222222222222,-0.6222222222222222,1.0,6.25,-78.5625
1589380664.0448177,0.45,-1.0,9.4,0.4155555555555556,0.3855555555555555,-0.6288888888888889,1.125,4.8125,-52.5
1589380664.058627,0.14,-1.53,8.96,0.4155555555555556,0.3855555555555555,-0.6288888888888889,0.375,2.625,-21.25
1589380664.065541,-0.03,-2.28,9.02,0.4155555555555556,0.3855555555555555,-0.6288888888888889,-0.4375,-1.1875,14.8125
1589380664.075279,0.4,-2.43,8.58,0.4155555555555556,0.3855555555555555,-0.6288888888888889,-1.4375,-4.1875,39.6875
1589380664.0869362,0.83,-2.59,9.26,0.4155555555555556,0.3855555555555555,-0.6288888888888889,-1.0,-5.0625,48.4375
1589380664.0986063,0.94,-2.72,8.94,0.4011111111111111,0.3955555555555556,-0.6077777777777778,-1.0,-4.75,47.1875
1589380664.1079354,0.79,-2.84,9.12,0.4011111111111111,0.3955555555555556,-0.6077777777777778,-0.8125,-4.125,43.9375
1589380664.1171238,0.64,-2.81,8.65,0.4011111111111111,0.3955555555555556,-0.6077777777777778,-1.0,-3.9375,43.0
1589380664.125491,0.85,-2.87,8.9,0.4011111111111111,0.3955555555555556,-0.6077777777777778,-1.1875,-4.4375,41.6875
1589380664.137078,0.53,-2.84,8.9,0.4011111111111111,0.3955555555555556,-0.6077777777777778,-1.0,-3.375,40.375
1589380664.1505072,0.44,-2.88,9.03,0.4155555555555556,0.4122222222222222,-0.6077777777777778,-0.5625,-3.1875,41.375
1589380664.1561966,0.33,-2.85,8.8,0.4155555555555556,0.4122222222222222,-0.6077777777777778,-0.625,-3.5,44.625
1589380664.1674175,0.28,-2.99,8.92,0.4155555555555556,0.4122222222222222,-0.6077777777777778,-0.5,-4.0,48.875
1589380664.1754274,0.21,-2.98,8.87,0.4155555555555556,0.4122222222222222,-0.6077777777777778,-1.25,-4.6875,54.0
1589380664.1873918,0.18,-3.03,8.93,0.4155555555555556,0.4122222222222222,-0.6077777777777778,-1.4375,-5.5625,60.4375
1589380664.1946278,0.16,-2.96,8.83,0.4155555555555556,0.4066666666666667,-0.5844444444444444,-1.5625,-6.4375,67.8125
1589380664.2008011,0.16,-2.96,8.83,0.4155555555555556,0.4066666666666667,-0.5844444444444444,-1.5625,-6.4375,67.8125
1589380664.211257,0.12,-3.07,8.89,0.4155555555555556,0.4066666666666667,-0.5844444444444444,-1.5,-7.25,75.4375
1589380664.2178164,0.21,-3.05,8.74,0.4155555555555556,0.4066666666666667,-0.5844444444444444,-1.5625,-7.9375,82.4375
1589380664.2276173,-2.33,-17.14,10.97,0.4155555555555556,0.4066666666666667,-0.5844444444444444,7.5,-3.1875,105.0625
1589380664.2374866,2.28,-1.82,10.0,0.4155555555555556,0.4066666666666667,-0.5844444444444444,6.1875,-15.5,199.125
1589380664.2481663,0.86,-3.55,9.43,0.44222222222222224,0.3744444444444445,-0.5933333333333334,-8.25,-28.125,197.125
1589380664.2561154,-0.3,-5.2,8.08,0.44222222222222224,0.3744444444444445,-0.5933333333333334,-1.8125,-12.375,192.1875
1589380664.2664099,0.22,-4.71,9.12,0.44222222222222224,0.3744444444444445,-0.5933333333333334,-5.625,-20.0625,191.8125
1589380664.275608,4.02,-10.25,9.59,0.44222222222222224,0.3744444444444445,-0.5933333333333334,-4.1875,-17.0,189.25
1589380664.287641,7.49,-18.3,4.4,0.44222222222222224,0.3744444444444445,-0.5933333333333334,2.0625,-21.0625,138.75
1589380664.2949393,-1.86,-0.25,11.05,0.4688888888888889,0.35,-0.5933333333333334,1.125,5.9375,61.3125
1589380664.3053393,-1.86,-0.25,11.05,0.4688888888888889,0.35,-0.5933333333333334,1.125,5.9375,61.3125
1589380664.3112974,-0.26,-3.79,8.3,0.4688888888888889,0.35,-0.5933333333333334,0.25,-3.25,40.0
1589380664.3225687,-0.65,-3.58,8.74,0.4688888888888889,0.35,-0.5933333333333334,0.4375,-0.75,19.6875
1589380664.3289304,-0.27,-3.92,8.73,0.4688888888888889,0.35,-0.5933333333333334,-0.5,-2.1875,2.9375
1589380664.33935,-0.02,-4.37,8.96,0.4688888888888889,0.35,-0.5933333333333334,-0.6875,-1.375,-0.375
1589380664.3489752,-0.23,-4.2,8.79,0.5011111111111111,0.3033333333333333,-0.6077777777777778,0.125,0.625,0.0
1589380664.3599331,-0.13,-4.11,8.85,0.5011111111111111,0.3033333333333333,-0.6077777777777778,-0.4375,-1.0625,-0.25
1589380664.3668313,-0.21,-4.16,8.82,0.5011111111111111,0.3033333333333333,-0.6077777777777778,0.375,0.375,0.0
1589380664.3768005,-0.24,-4.08,8.73,0.5011111111111111,0.3033333333333333,-0.6077777777777778,-0.125,0.0,0.0625
1589380664.3902855,-0.21,-4.11,8.82,0.5011111111111111,0.3033333333333333,-0.6077777777777778,-0.0625,0.125,0.0625
1589380664.4015331,-0.22,-4.19,8.83,0.4933333333333334,0.2888888888888889,-0.5988888888888889,0.125,0.375,0.125
1589380664.407939,-0.19,-4.09,8.89,0.4933333333333334,0.2888888888888889,-0.5988888888888889,0.3125,0.375,0.1875
1589380664.4178402,-0.2,-4.1,8.8,0.4933333333333334,0.2888888888888889,-0.5988888888888889,0.375,0.1875,0.0625
1589380664.4277592,-0.24,-4.11,8.83,0.4933333333333334,0.2888888888888889,-0.5988888888888889,0.5,0.3125,0.125
1589380664.4400485,-0.21,-4.15,8.83,0.4933333333333334,0.2888888888888889,-0.5988888888888889,-0.1875,-0.25,0.125
1589380664.4474454,-0.22,-4.12,8.9,0.5077777777777778,0.2822222222222222,-0.5844444444444444,0.0,0.0625,0.125
1589380664.4593337,-0.21,-4.15,8.82,0.5077777777777778,0.2822222222222222,-0.5844444444444444,-0.25,-0.125,0.1875
1589380664.4675198,-0.23,-4.11,8.72,0.5077777777777778,0.2822222222222222,-0.5844444444444444,0.1875,0.0625,0.1875
1589380664.47943,-0.19,-4.17,8.82,0.5077777777777778,0.2822222222222222,-0.5844444444444444,0.0,-0.0625,0.125
1589380664.490842,-0.22,-4.08,8.87,0.5077777777777778,0.2822222222222222,-0.5844444444444444,0.0,-0.0625,0.125
1589380664.4973214,-0.19,-4.14,8.87,0.5011111111111111,0.3033333333333333,-0.6144444444444445,-0.3125,-0.375,0.125
1589380664.5129864,-0.24,-4.14,8.82,0.5011111111111111,0.3033333333333333,-0.6144444444444445,0.1875,-0.125,0.125
1589380664.5202107,-0.21,-4.15,8.75,0.5011111111111111,0.3033333333333333,-0.6144444444444445,0.0625,-0.375,0.125
1589380664.5313447,-0.22,-4.11,8.8,0.5011111111111111,0.3033333333333333,-0.6144444444444445,0.3125,-0.25,0.1875
1589380664.5405898,-0.19,-4.12,8.9,0.5011111111111111,0.3033333333333333,-0.6144444444444445,0.0625,-0.1875,0.125
1589380664.5484312,-0.21,-4.13,8.89,0.5133333333333333,0.3033333333333333,-0.6077777777777778,-0.1875,0.0625,0.0625
1589380664.5583973,-0.23,-4.16,8.83,0.5133333333333333,0.3033333333333333,-0.6077777777777778,-0.375,0.0,0.125
1589380664.5688267,-0.2,-4.17,8.72,0.5133333333333333,0.3033333333333333,-0.6077777777777778,-0.0625,0.125,0.125
1589380664.5776234,-0.23,-4.15,8.81,0.5133333333333333,0.3033333333333333,-0.6077777777777778,0.125,0.1875,0.25
1589380664.5901005,-0.21,-4.14,8.82,0.5133333333333333,0.3033333333333333,-0.6077777777777778,0.3125,0.1875,0.1875
1589380664.59838,-0.21,-4.13,8.88,0.4933333333333334,0.2966666666666667,-0.5933333333333334,0.0625,-0.125,0.1875
1589380664.610284,-0.23,-4.13,8.8,0.4933333333333334,0.2966666666666667,-0.5933333333333334,0.0,0.1875,0.125
1589380664.617858,-0.22,-4.14,8.72,0.4933333333333334,0.2966666666666667,-0.5933333333333334,0.1875,0.0625,0.1875
1589380664.6292286,-0.2,-4.11,8.81,0.4933333333333334,0.2966666666666667,-0.5933333333333334,0.25,0.0625,0.125
1589380664.6415234,-0.22,-4.11,8.85,0.4933333333333334,0.2966666666666667,-0.5933333333333334,0.0,-0.125,0.1875
1589380664.6485894,-0.24,-4.12,8.87,0.4866666666666667,0.2888888888888889,-0.5988888888888889,0.0,0.0,0.0625
1589380664.6638176,-0.23,-4.17,8.85,0.4866666666666667,0.2888888888888889,-0.5988888888888889,-0.375,-0.125,0.25
1589380664.6700175,-0.21,-4.18,8.72,0.4866666666666667,0.2888888888888889,-0.5988888888888889,0.0,0.0625,-0.0625
1589380664.6834488,-0.21,-4.14,8.8,0.4866666666666667,0.2888888888888889,-0.5988888888888889,0.0,0.125,0.125
1589380664.690861,-0.21,-4.13,8.84,0.4866666666666667,0.2888888888888889,-0.5988888888888889,0.1875,0.0,0.125
1589380664.7019696,-0.21,-4.13,8.88,0.4866666666666667,0.2966666666666667,-0.5933333333333334,0.0,-0.0625,0.1875
1589380664.7089436,-0.22,-4.15,8.78,0.4866666666666667,0.2966666666666667,-0.5933333333333334,-0.125,0.125,0.0625
1589380664.7222867,-0.21,-4.15,8.75,0.4866666666666667,0.2966666666666667,-0.5933333333333334,-0.0625,0.0,0.125
1589380664.7284484,-0.23,-4.14,8.77,0.4866666666666667,0.2966666666666667,-0.5933333333333334,0.0625,-0.0625,0.125
1589380664.7415128,-0.21,-4.14,8.8,0.4866666666666667,0.2966666666666667,-0.5933333333333334,0.0,-0.0625,0.125
1589380664.7482498,-0.2,-4.16,8.84,0.4866666666666667,0.2888888888888889,-0.5988888888888889,0.0,-0.0625,0.125
1589380664.7581801,-0.23,-4.13,8.83,0.4866666666666667,0.2888888888888889,-0.5988888888888889,-0.0625,0.0,0.125
1589380664.768844,-0.23,-4.14,8.72,0.4866666666666667,0.2888888888888889,-0.5988888888888889,-0.0625,0.1875,0.1875
1589380664.7788513,-0.22,-4.14,8.81,0.4866666666666667,0.2888888888888889,-0.5988888888888889,0.0625,0.125,0.125
1589380664.7963893,-0.23,-4.14,8.86,0.4866666666666667,0.2888888888888889,-0.5988888888888889,0.1875,0.125,0.1875
1589380664.8025765,-0.22,-4.13,8.87,0.4933333333333334,0.2966666666666667,-0.5988888888888889,0.1875,0.1875,0.1875
1589380664.8143058,-0.22,-4.16,8.87,0.4933333333333334,0.2966666666666667,-0.5988888888888889,0.1875,0.3125,0.0625
1589380664.8211248,-0.21,-4.15,8.74,0.4933333333333334,0.2966666666666667,-0.5988888888888889,-0.25,0.0,0.125
1589380664.829031,-0.22,-4.12,8.79,0.4933333333333334,0.2966666666666667,-0.5988888888888889,-0.1875,-0.1875,0.125
1589380664.8418179,-0.21,-4.13,8.8,0.4933333333333334,0.2966666666666667,-0.5988888888888889,-0.0625,0.0625,0.0625
1589380664.8500922,-0.22,-4.13,8.86,0.5011111111111111,0.2966666666666667,-0.62,0.125,0.0,0.125
1589380664.858951,-0.23,-4.12,8.81,0.5011111111111111,0.2966666666666667,-0.62,-0.0625,-0.125,0.1875
1589380664.8730145,-0.23,-4.14,8.73,0.5011111111111111,0.2966666666666667,-0.62,0.0,-0.0625,0.0
1589380664.878975,-0.22,-4.15,8.76,0.5011111111111111,0.2966666666666667,-0.62,0.0625,0.0,0.125
1589380664.894357,-0.22,-4.14,8.81,0.5011111111111111,0.2966666666666667,-0.62,0.125,0.0625,0.1875
1589380664.900548,-0.2,-4.12,8.88,0.5077777777777778,0.2888888888888889,-0.6144444444444445,0.125,0.125,0.25
1589380664.9114132,-0.24,-4.12,8.89,0.5077777777777778,0.2888888888888889,-0.6144444444444445,-0.125,0.125,0.1875
1589380664.9196794,-0.21,-4.15,8.77,0.5077777777777778,0.2888888888888889,-0.6144444444444445,0.0,0.125,0.25
1589380664.9301105,-0.22,-4.14,8.79,0.5077777777777778,0.2888888888888889,-0.6144444444444445,0.0,-0.125,0.1875
1589380664.9417346,-0.23,-4.13,8.81,0.5077777777777778,0.2888888888888889,-0.6144444444444445,0.125,-0.0625,0.0625
1589380664.9525955,-0.24,-4.13,8.85,0.4744444444444445,0.2888888888888889,-0.5933333333333334,0.1875,0.0625,0.1875
1589380664.9591827,-0.21,-4.13,8.82,0.4744444444444445,0.2888888888888889,-0.5933333333333334,0.1875,0.0625,0.1875
1589380664.970707,-0.22,-4.12,8.74,0.4744444444444445,0.2888888888888889,-0.5933333333333334,0.1875,0.125,0.1875
1589380664.9801679,-0.22,-4.15,8.77,0.4744444444444445,0.2888888888888889,-0.5933333333333334,0.0,0.0,0.0625
1589380664.9923494,-0.21,-4.14,8.82,0.4744444444444445,0.2888888888888889,-0.5933333333333334,0.125,0.125,0.1875
1589380665.0011356,-0.22,-4.11,8.86,0.5011111111111111,0.2888888888888889,-0.5988888888888889,-0.125,0.0625,0.0625
