time,acc_x,acc_y,acc_z,mag_x,mag_y,mag_z,gyr_x,gyr_y,gyr_z
1589380716.2304704,0.04,-4.05,8.81,0.4511111111111111,0.31777777777777777,-0.7777777777777778,-0.0625,0.25,0.0625
1589380716.2369454,0.05,-4.07,8.84,0.4722222222222222,0.31777777777777777,-0.7777777777777778,0.0625,0.1875,0.125
1589380716.252945,0.02,-4.06,8.83,0.4722222222222222,0.31777777777777777,-0.7777777777777778,0.125,0.25,0.0625
1589380716.258766,0.03,-4.05,8.76,0.4722222222222222,0.31777777777777777,-0.7777777777777778,0.0625,-0.0625,-0.0625
1589380716.269408,0.01,-4.04,8.81,0.4722222222222222,0.31777777777777777,-0.7777777777777778,-0.125,0.0,0.0625
1589380716.276133,0.01,-4.06,8.87,0.4722222222222222,0.31777777777777777,-0.7777777777777778,0.0,-0.125,0.0625
1589380716.2882824,0.02,-4.05,8.92,0.4722222222222222,0.31777777777777777,-0.7855555555555556,0.125,-0.1875,0.0
1589380716.2948716,0.05,-4.05,8.87,0.4722222222222222,0.31777777777777777,-0.7855555555555556,0.0625,0.0625,-0.125
1589380716.3072336,0.03,-4.06,8.79,0.4722222222222222,0.31777777777777777,-0.7855555555555556,-0.0625,0.0,0.0625
1589380716.3145144,0.05,-4.06,8.79,0.4722222222222222,0.31777777777777777,-0.7855555555555556,0.0,0.1875,0.0625
1589380716.3267539,0.03,-4.07,8.83,0.4722222222222222,0.31777777777777777,-0.7855555555555556,-0.0625,0.1875,0.125
1589380716.334625,-0.01,-4.07,8.83,0.4777777777777778,0.31777777777777777,-0.7777777777777778,0.0625,0.125,-0.0625
1589380716.3447592,0.0,-4.06,8.84,0.4777777777777778,0.31777777777777777,-0.7777777777777778,-0.0625,0.0625,0.0
1589380716.3550785,0.02,-4.05,8.79,0.4777777777777778,0.31777777777777777,-0.7777777777777778,-0.0625,-0.0625,-0.0625
1589380716.3641007,0.02,-4.05,8.87,0.4777777777777778,0.31777777777777777,-0.7777777777777778,-0.1875,-0.25,0.0625
1589380716.380462,0.01,-4.05,8.87,0.4777777777777778,0.31777777777777777,-0.7777777777777778,-0.0625,-0.375,-0.0625
1589380716.3867078,0.05,-4.05,8.91,0.4577777777777778,0.33,-0.7777777777777778,0.0,-0.4375,-0.0625
1589380716.394249,0.05,-4.07,8.91,0.4577777777777778,0.33,-0.7777777777777778,0.0625,-0.25,-0.0625
1589380716.404758,0.02,-4.05,8.79,0.4577777777777778,0.33,-0.7777777777777778,-0.0625,-0.125,0.0
1589380716.4167194,0.03,-4.06,8.83,0.4577777777777778,0.33,-0.7777777777777778,-0.25,0.125,0.0625
1589380716.4270165,0.02,-4.03,8.84,0.4577777777777778,0.33,-0.7777777777777778,-0.3125,0.375,0.0
1589380716.4384995,0.01,-4.05,8.85,0.4722222222222222,0.31777777777777777,-0.7566666666666667,-0.3125,0.25,0.0
1589380716.4448655,0.02,-4.05,8.84,0.4722222222222222,0.31777777777777777,-0.7566666666666667,-0.1875,0.0625,0.0625
1589380716.458143,0.02,-4.05,8.74,0.4722222222222222,0.31777777777777777,-0.7566666666666667,-0.3125,-0.0625,-0.0625
1589380716.4649544,0.03,-4.05,8.79,0.4722222222222222,0.31777777777777777,-0.7566666666666667,-0.25,-0.1875,-0.0625
1589380716.4791842,0.01,-4.04,8.84,0.4722222222222222,0.31777777777777777,-0.7566666666666667,-0.3125,-0.5,0.0625
1589380716.4855096,0.05,-4.06,8.84,0.4577777777777778,0.31777777777777777,-0.7855555555555556,-0.375,-0.5,0.0
1589380716.4952946,0.02,-4.07,8.86,0.4577777777777778,0.31777777777777777,-0.7855555555555556,-0.1875,-0.4375,0.0
1589380716.5054667,0.04,-4.07,8.78,0.4577777777777778,0.31777777777777777,-0.7855555555555556,-0.1875,-0.125,0.0
1589380716.5161278,0.02,-4.06,8.87,0.4577777777777778,0.31777777777777777,-0.7855555555555556,-0.25,-0.0625,0.0
1589380716.532276,0.02,-4.07,8.91,0.4577777777777778,0.31777777777777777,-0.7855555555555556,-0.5,0.0625,-0.0625
1589380716.538264,0.03,-4.07,8.88,0.4722222222222222,0.31777777777777777,-0.7855555555555556,-0.3125,0.125,-0.125
1589380716.545484,0.02,-4.06,8.8,0.4722222222222222,0.31777777777777777,-0.7855555555555556,-0.125,0.5,-0.125
1589380716.5547502,0.03,-4.07,8.74,0.4722222222222222,0.31777777777777777,-0.7855555555555556,-0.0625,0.25,-0.125
1589380716.5609393,0.03,-4.07,8.74,0.4722222222222222,0.31777777777777777,-0.7855555555555556,-0.0625,0.25,-0.125
1589380716.5677354,0.02,-4.05,8.78,0.4722222222222222,0.31777777777777777,-0.7855555555555556,0.0,0.125,0.0
1589380716.5786095,0.01,-4.07,8.79,0.4722222222222222,0.31777777777777777,-0.7855555555555556,0.0625,0.1875,-0.125
1589380716.5905998,0.02,-4.07,8.85,0.4511111111111111,0.31777777777777777,-0.7777777777777778,-0.0625,-0.0625,-0.0625
1589380716.596776,0.03,-4.06,8.83,0.4511111111111111,0.31777777777777777,-0.7777777777777778,0.0,0.0625,0.0
1589380716.605762,0.02,-4.07,8.76,0.4511111111111111,0.31777777777777777,-0.7777777777777778,0.25,0.0625,0.0625
1589380716.6171546,0.04,-4.04,8.89,0.4511111111111111,0.31777777777777777,-0.7777777777777778,0.125,0.125,-0.0625
1589380716.6279066,0.04,-4.06,8.92,0.4511111111111111,0.31777777777777777,-0.7777777777777778,0.125,0.0,0.0
1589380716.6352606,0.03,-4.05,8.9,0.4722222222222222,0.3055555555555556,-0.7566666666666667,0.0,-0.125,0.3125
1589380716.6460733,0.02,-4.05,8.86,0.4722222222222222,0.3055555555555556,-0.7566666666666667,0.0625,0.0625,0.0
1589380716.6561718,0.03,-4.05,8.75,0.4722222222222222,0.3055555555555556,-0.7566666666666667,-0.125,0.125,0.0
1589380716.669406,0.03,-4.05,8.77,0.4722222222222222,0.3055555555555556,-0.7566666666666667,-0.1875,0.0625,0.0625
1589380716.678402,0.01,-4.05,8.84,0.4722222222222222,0.3055555555555556,-0.7566666666666667,-0.1875,0.0625,0.0
1589380716.6883526,0.01,-4.07,8.88,0.4655555555555556,0.3055555555555556,-0.7711111111111111,-0.0625,-0.0625,0.0
1589380716.6961653,0.02,-4.05,8.85,0.4655555555555556,0.3055555555555556,-0.7711111111111111,-0.0625,0.0625,0.1875
1589380716.7064116,0.03,-4.06,8.76,0.4655555555555556,0.3055555555555556,-0.7711111111111111,-0.0625,-0.0625,0.1875
1589380716.7159436,0.04,-4.06,8.8,0.4655555555555556,0.3055555555555556,-0.7711111111111111,0.0,-0.0625,-0.125
1589380716.7283738,0.06,-4.05,8.89,0.4655555555555556,0.3055555555555556,-0.7711111111111111,0.0,-0.125,-0.0625
1589380716.736805,0.01,-4.06,8.91,0.4722222222222222,0.3233333333333333,-0.7855555555555556,-0.25,-0.125,0.0
1589380716.7487352,0.02,-4.05,8.86,0.4722222222222222,0.3233333333333333,-0.7855555555555556,0.0625,0.0,0.0625
1589380716.7560804,0.01,-4.05,8.71,0.4722222222222222,0.3233333333333333,-0.7855555555555556,0.0,0.0,0.0
1589380716.7679243,0.03,-4.05,8.79,0.4722222222222222,0.3233333333333333,-0.7855555555555556,-0.0625,0.1875,0.0625
1589380716.7812846,0.03,-4.05,8.84,0.4722222222222222,0.3233333333333333,-0.7855555555555556,-0.125,0.0,0.0625
1589380716.7873476,0.03,-4.05,8.89,0.4655555555555556,0.31777777777777777,-0.7644444444444445,0.0625,-0.1875,0.0
1589380716.8001149,0.02,-4.09,8.82,0.4655555555555556,0.31777777777777777,-0.7644444444444445,-0.125,0.0,0.0
1589380716.806881,0.01,-4.04,8.75,0.4655555555555556,0.31777777777777777,-0.7644444444444445,-0.1875,-0.1875,-0.125
1589380716.8206446,0.03,-4.05,8.8,0.4655555555555556,0.31777777777777777,-0.7644444444444445,-0.1875,-0.1875,-0.0625
1589380716.8301086,0.03,-4.07,8.85,0.4655555555555556,0.31777777777777777,-0.7644444444444445,-0.25,-0.0625,-0.0625
1589380716.8391106,0.04,-4.06,8.88,0.4722222222222222,0.31222222222222223,-0.7777777777777778,0.125,-0.125,0.0
1589380716.8468704,0.03,-4.04,8.83,0.4722222222222222,0.31222222222222223,-0.7777777777777778,0.125,0.1875,0.0625
1589380716.8566074,0.03,-4.07,8.74,0.4722222222222222,0.31222222222222223,-0.7777777777777778,0.125,0.375,0.0
1589380716.86685,0.03,-4.06,8.83,0.4722222222222222,0.31222222222222223,-0.7777777777777778,0.0625,0.5,0.0
1589380716.878997,0.01,-4.05,8.87,0.4722222222222222,0.31222222222222223,-0.7777777777777778,0.125,0.25,0.0625
1589380716.886533,0.0,-4.04,8.88,0.4722222222222222,0.31777777777777777,-0.7711111111111111,-0.0625,0.125,0.0
1589380716.8977356,0.02,-4.01,8.81,0.4722222222222222,0.31777777777777777,-0.7711111111111111,-0.125,-0.125,-0.125
1589380716.9067626,0.02,-4.07,8.74,0.4722222222222222,0.31777777777777777,-0.7711111111111111,-0.3125,-0.3125,-0.1875
1589380716.9188776,0.05,-4.04,8.78,0.4722222222222222,0.31777777777777777,-0.7711111111111111,0.0625,-0.25,0.0
1589380716.9332206,0.05,-4.08,8.83,0.4722222222222222,0.31777777777777777,-0.7711111111111111,0.0625,-0.375,-0.0625
1589380716.9399395,0.03,-4.06,8.88,0.4777777777777778,0.3233333333333333,-0.7644444444444445,0.0,-0.0625,0.0
1589380716.951566,0.02,-4.07,8.8,0.4777777777777778,0.3233333333333333,-0.7644444444444445,0.0,0.0625,0.0
1589380716.9576511,0.02,-4.07,8.76,0.4777777777777778,0.3233333333333333,-0.7644444444444445,-0.0625,0.3125,0.0625
1589380716.9705355,-0.01,-4.07,8.77,0.4777777777777778,0.3233333333333333,-0.7644444444444445,-0.0625,0.0625,0.0625
1589380716.9801733,0.03,-4.04,8.83,0.4777777777777778,0.3233333333333333,-0.7644444444444445,0.125,-0.25,0.0625
1589380716.9912155,0.03,-4.04,8.87,0.4655555555555556,0.31222222222222223,-0.75,0.0,-0.125,0.0
1589380716.9971914,0.08,-4.02,8.86,0.4655555555555556,0.31222222222222223,-0.75,0.0625,-0.375,-0.0625
1589380717.0071359,0.17,-3.96,8.8,0.4655555555555556,0.31222222222222223,-0.75,-0.3125,-0.875,-0.5625
1589380717.017609,0.1,-3.98,8.85,0.4655555555555556,0.31222222222222223,-0.75,-0.5,-0.875,-2.625
1589380717.0291874,-0.01,-4.09,8.87,0.4655555555555556,0.31222222222222223,-0.75,-0.625,-0.4375,-5.0
1589380717.0371122,-0.14,-4.16,8.84,0.4655555555555556,0.31222222222222223,-0.7777777777777778,-0.875,-0.5625,-4.75
1589380717.0478086,0.06,-3.98,8.82,0.4655555555555556,0.31222222222222223,-0.7777777777777778,-1.375,-0.875,-2.1875
1589380717.0580044,0.02,-3.77,8.8,0.4655555555555556,0.31222222222222223,-0.7777777777777778,-1.5,-1.25,-0.3125
1589380717.0706668,0.06,-3.63,8.79,0.4655555555555556,0.31222222222222223,-0.7777777777777778,-1.75,-1.5,0.5
1589380717.079498,0.08,-3.62,8.84,0.4655555555555556,0.31222222222222223,-0.7777777777777778,-1.6875,-2.5,1.5
1589380717.0907981,-1.28,-1.53,9.34,0.4655555555555556,0.3233333333333333,-0.7711111111111111,-1.6875,-2.625,3.6875
1589380717.1003602,-0.97,-1.95,8.93,0.4655555555555556,0.3233333333333333,-0.7711111111111111,-0.5,-1.1875,16.125
1589380717.1076324,-0.67,-2.26,8.9,0.4655555555555556,0.3233333333333333,-0.7711111111111111,-0.1875,-2.8125,35.6875
1589380717.1224856,-0.18,-2.65,9.04,0.4655555555555556,0.3233333333333333,-0.7711111111111111,-0.9375,-4.875,49.5
1589380717.1304483,-0.12,-2.77,8.98,0.4655555555555556,0.3233333333333333,-0.7711111111111111,-1.5625,-5.8125,53.75
1589380717.1373188,-0.04,-2.82,8.98,0.4777777777777778,0.3233333333333333,-0.7777777777777778,-1.5,-5.5625,53.5
1589380717.147485,-0.15,-2.84,9.02,0.4777777777777778,0.3233333333333333,-0.7777777777777778,-1.3125,-5.25,51.3125
1589380717.1617606,-0.29,-2.82,8.89,0.4777777777777778,0.3233333333333333,-0.7777777777777778,-1.375,-4.6875,49.8125
1589380717.1681767,-0.31,-2.85,8.91,0.4777777777777778,0.3233333333333333,-0.7777777777777778,-1.25,-4.5625,50.3125
1589380717.1823106,-0.35,-2.85,8.97,0.4777777777777778,0.3233333333333333,-0.7777777777777778,-1.3125,-4.8125,52.375
1589380717.1889315,-0.35,-2.88,8.94,0.4844444444444445,0.2977777777777777,-0.7777777777777778,-1.5625,-4.875,54.75
1589380717.2010796,-0.36,-2.86,8.9,0.4844444444444445,0.2977777777777777,-0.7777777777777778,-1.4375,-5.1875,56.9375
1589380717.208882,-0.41,-2.95,8.85,0.4844444444444445,0.2977777777777777,-0.7777777777777778,-1.4375,-5.5,59.0625
1589380717.2186072,-0.38,-2.94,8.88,0.4844444444444445,0.2977777777777777,-0.7777777777777778,-1.5625,-5.875,61.4375
1589380717.2307892,-0.4,-3.0,8.96,0.4844444444444445,0.2977777777777777,-0.7777777777777778,-1.625,-6.125,64.0625
1589380717.2418866,-0.34,-3.03,8.97,0.4722222222222222,0.2788888888888889,-0.7855555555555556,-1.6875,-6.4375,66.4375
1589380717.2502587,-0.33,-2.95,8.97,0.4722222222222222,0.2788888888888889,-0.7855555555555556,-1.875,-6.625,68.25
1589380717.2588468,-0.31,-2.99,8.88,0.4722222222222222,0.2788888888888889,-0.7855555555555556,-1.8125,-6.6875,68.5625
1589380717.2747948,-0.38,-3.11,8.94,0.4722222222222222,0.2788888888888889,-0.7855555555555556,-1.9375,-6.4375,68.3125
1589380717.2814338,-0.4,-2.97,8.92,0.4722222222222222,0.2788888888888889,-0.7855555555555556,-1.75,-6.1875,67.6875
1589380717.2892025,-0.47,-3.05,8.95,0.4577777777777778,0.24444444444444444,-0.7777777777777778,-1.8125,-6.125,67.5
1589380717.3010302,-0.56,-3.1,8.89,0.4577777777777778,0.24444444444444444,-0.7777777777777778,-1.8125,-6.1875,68.375
1589380717.3110974,-0.61,-3.18,8.81,0.4577777777777778,0.24444444444444444,-0.7777777777777778,-1.75,-6.4375,69.75
1589380717.3194206,-0.55,-3.1,8.87,0.4577777777777778,0.24444444444444444,-0.7777777777777778,-1.75,-6.875,71.5
1589380717.3317018,-0.54,-3.11,8.97,0.4577777777777778,0.24444444444444444,-0.7777777777777778,-1.6875,-7.1875,72.75
1589380717.339259,-0.46,-3.06,9.0,0.4388888888888889,0.21333333333333332,-0.8211111111111111,-1.9375,-7.25,73.4375
1589380717.3508306,-0.46,-3.11,8.95,0.4388888888888889,0.21333333333333332,-0.8211111111111111,-1.8125,-7.25,72.8125
1589380717.359503,-0.47,-3.17,8.87,0.4388888888888889,0.21333333333333332,-0.8211111111111111,-1.6875,-6.75,71.25
1589380717.3696425,-0.5,-3.08,8.92,0.4388888888888889,0.21333333333333332,-0.8211111111111111,-1.75,-6.625,68.75
1589380717.3816686,-0.53,-3.04,9.0,0.4388888888888889,0.21333333333333332,-0.8211111111111111,-1.875,-6.0625,65.9375
1589380717.3940134,-0.56,-3.04,8.99,0.4511111111111111,0.17222222222222222,-0.8422222222222222,-1.9375,-6.0625,63.125
1589380717.4017828,-0.52,-3.01,8.95,0.4511111111111111,0.17222222222222222,-0.8422222222222222,-1.5625,-5.5,60.75
1589380717.410482,-0.58,-3.02,8.82,0.4511111111111111,0.17222222222222222,-0.8422222222222222,-1.5625,-5.0625,58.1875
1589380717.420792,-0.62,-3.05,8.88,0.4511111111111111,0.17222222222222222,-0.8422222222222222,-1.5,-5.0625,55.3125
1589380717.4316444,-0.72,-3.06,8.95,0.4511111111111111,0.17222222222222222,-0.8422222222222222,-1.5625,-4.9375,52.8125
1589380717.4390655,-0.71,-3.04,9.0,0.4211111111111111,0.13111111111111112,-0.8133333333333334,-1.3125,-4.6875,51.8125
1589380717.4503696,-0.67,-3.07,8.93,0.4211111111111111,0.13111111111111112,-0.8133333333333334,-1.5,-4.9375,51.375
1589380717.4607565,-0.71,-3.07,8.85,0.4211111111111111,0.13111111111111112,-0.8133333333333334,-1.5625,-4.9375,50.5
1589380717.4709635,-0.78,-3.14,8.87,0.4211111111111111,0.13111111111111112,-0.8133333333333334,-1.4375,-4.4375,49.0625
1589380717.48228,-0.8,-3.11,8.97,0.4211111111111111,0.13111111111111112,-0.8133333333333334,-1.5,-4.375,47.75
1589380717.4894161,-0.84,-3.14,8.98,0.36777777777777776,0.048888888888888885,-0.8,-1.25,-4.125,45.5625
1589380717.5044086,-0.84,-3.11,8.95,0.36777777777777776,0.048888888888888885,-0.8,-1.25,-4.125,45.5625
1589380717.5109642,-0.84,-3.11,8.86,0.36777777777777776,0.048888888888888885,-0.8,-1.3125,-3.875,44.75
1589380717.5219734,-0.85,-3.08,8.87,0.36777777777777776,0.048888888888888885,-0.8,-1.4375,-3.9375,44.375
1589380717.5320225,-0.86,-3.07,8.91,0.36777777777777776,0.048888888888888885,-0.8,-1.375,-4.0,42.75
1589380717.5405798,-0.89,-3.08,8.92,0.3511111111111111,-0.0033333333333333327,-0.7644444444444445,-1.5,-3.9375,42.1875
1589380717.550267,-0.93,-3.13,8.88,0.3511111111111111,-0.0033333333333333327,-0.7644444444444445,-1.4375,-3.875,41.25
1589380717.563426,-0.92,-3.12,8.83,0.3511111111111111,-0.0033333333333333327,-0.7644444444444445,-1.6875,-3.5625,40.875
1589380717.5710425,-0.93,-3.13,8.86,0.3511111111111111,-0.0033333333333333327,-0.7644444444444445,-1.75,-3.5625,40.0625
1589380717.5826294,-0.93,-3.1,8.91,0.3511111111111111,-0.0033333333333333327,-0.7644444444444445,-1.8125,-3.1875,39.25
1589380717.5901394,-0.97,-3.14,8.92,0.37333333333333335,-0.03888888888888889,-0.7355555555555555,-1.9375,-3.125,38.3125
1589380717.6007526,-0.99,-3.19,8.92,0.37333333333333335,-0.03888888888888889,-0.7355555555555555,-2.0625,-2.8125,37.6875
1589380717.6108296,-1.03,-3.24,8.85,0.37333333333333335,-0.03888888888888889,-0.7355555555555555,-2.0,-3.0,36.1875
1589380717.6207206,-1.17,-3.41,8.99,0.37333333333333335,-0.03888888888888889,-0.7355555555555555,-2.5,-2.5625,35.0
1589380717.6336482,-1.06,-3.21,8.85,0.37333333333333335,-0.03888888888888889,-0.7355555555555555,-1.6875,-2.5,34.5625
1589380717.6413882,-1.09,-3.24,8.92,0.4088888888888889,-0.05333333333333334,-0.7144444444444444,-2.0625,-2.4375,33.125
1589380717.6552525,-1.08,-3.2,8.93,0.4088888888888889,-0.05333333333333334,-0.7144444444444444,-1.875,-2.25,31.5625
1589380717.6612895,-1.16,-3.32,8.81,0.4088888888888889,-0.05333333333333334,-0.7144444444444444,-1.8125,-1.9375,30.25
1589380717.6741028,-1.16,-3.34,8.88,0.4088888888888889,-0.05333333333333334,-0.7144444444444444,-1.875,-1.9375,28.8125
1589380717.6828938,-1.18,-3.35,8.94,0.4088888888888889,-0.05333333333333334,-0.7144444444444444,-1.6875,-1.5,26.8125
1589380717.690204,-1.18,-3.25,9.0,0.43,-0.05333333333333334,-0.6855555555555556,-1.8125,-1.4375,25.125
1589380717.7012641,-1.14,-3.2,8.89,0.43,-0.05333333333333334,-0.6855555555555556,-1.4375,-1.125,22.875
1589380717.7110722,-1.13,-3.19,8.79,0.43,-0.05333333333333334,-0.6855555555555556,-1.25,-0.8125,20.0
1589380717.7211366,-1.26,-3.33,8.79,0.43,-0.05333333333333334,-0.6855555555555556,-1.1875,-0.9375,17.1875
1589380717.7337596,-1.2,-3.13,8.94,0.43,-0.05333333333333334,-0.6855555555555556,-1.0,-0.8125,15.125
1589380717.7405615,-1.24,-3.21,8.91,0.49,-0.03333333333333333,-0.6644444444444444,-1.125,-0.6875,13.375
1589380717.7519898,-1.28,-3.29,8.93,0.49,-0.03333333333333333,-0.6644444444444444,-0.9375,-0.25,11.4375
1589380717.761817,-1.1,-3.0,8.83,0.49,-0.03333333333333333,-0.6644444444444444,-0.625,-0.875,8.5625
1589380717.7715592,-1.15,-3.02,8.89,0.49,-0.03333333333333333,-0.6644444444444444,-0.6875,-0.375,5.75
1589380717.7866876,-1.13,-3.05,8.94,0.49,-0.03333333333333333,-0.6644444444444444,-0.5,-0.125,3.0
1589380717.7941804,-1.19,-3.09,8.94,0.5166666666666667,0.0011111111111111113,-0.6666666666666666,-0.5,0.1875,0.5
1589380717.8048606,-1.22,-3.05,8.92,0.5166666666666667,0.0011111111111111113,-0.6666666666666666,-0.125,0.4375,-1.8125
1589380717.8115168,-1.25,-3.1,8.81,0.5166666666666667,0.0011111111111111113,-0.6666666666666666,-0.1875,0.625,-3.75
1589380717.82548,-1.29,-3.15,8.89,0.5166666666666667,0.0011111111111111113,-0.6666666666666666,-0.0625,0.75,-5.1875
1589380717.8336275,-1.29,-3.16,8.87,0.5166666666666667,0.0011111111111111113,-0.6666666666666666,0.0,0.75,-6.5625
1589380717.8457813,-1.37,-3.18,8.89,0.6022222222222222,0.02666666666666667,-0.7022222222222222,0.1875,0.75,-7.0
1589380717.8515413,-1.08,-3.11,8.96,0.6022222222222222,0.02666666666666667,-0.7022222222222222,0.25,1.125,-7.5
1589380717.8655035,-1.24,-3.06,8.89,0.6022222222222222,0.02666666666666667,-0.7022222222222222,0.5625,1.4375,-11.0625
1589380717.8717527,-1.21,-2.99,8.91,0.6022222222222222,0.02666666666666667,-0.7022222222222222,-0.0625,0.3125,-10.25
1589380717.8853898,-1.12,-3.01,9.04,0.6022222222222222,0.02666666666666667,-0.7022222222222222,0.0625,-0.25,-9.1875
1589380717.8912,-1.33,-3.01,8.99,0.6877777777777778,-0.01,-0.8722222222222222,0.625,1.125,-10.625
1589380717.9020865,-1.4,-3.02,8.96,0.6877777777777778,-0.01,-0.8722222222222222,0.4375,0.875,-9.125
1589380717.911972,-1.22,-3.06,8.9,0.6877777777777778,-0.01,-0.8722222222222222,0.3125,0.1875,-7.75
1589380717.9219012,-1.31,-3.25,8.86,0.6877777777777778,-0.01,-0.8722222222222222,0.8125,1.0625,-7.3125
1589380717.9349716,-1.32,-3.16,8.83,0.6877777777777778,-0.01,-0.8722222222222222,0.5625,0.75,-7.125
1589380717.9449198,-1.18,-2.89,9.0,0.54,-0.14555555555555555,-0.7566666666666667,0.0625,-0.375,-6.0625
1589380717.9522536,-1.18,-3.0,8.91,0.54,-0.14555555555555555,-0.7566666666666667,0.625,0.6875,-4.875
1589380717.964288,-1.2,-3.11,8.81,0.54,-0.14555555555555555,-0.7566666666666667,0.75,0.5625,-4.4375
1589380717.9731278,-1.2,-3.11,8.87,0.54,-0.14555555555555555,-0.7566666666666667,0.5,0.4375,-4.375
1589380717.9843802,-1.2,-3.19,8.95,0.54,-0.14555555555555555,-0.7566666666666667,0.4375,0.1875,-4.625
1589380717.9965534,-1.21,-3.23,8.96,0.51,-0.05333333333333334,-0.6855555555555556,0.5625,0.4375,-5.0
1589380718.0028055,-1.24,-3.3,8.97,0.51,-0.05333333333333334,-0.6855555555555556,0.5625,0.625,-5.0625
1589380718.0163255,-1.24,-3.3,8.84,0.51,-0.05333333333333334,-0.6855555555555556,0.5625,0.5625,-4.9375
1589380718.022265,-1.2,-3.37,8.88,0.51,-0.05333333333333334,-0.6855555555555556,0.4375,0.4375,-4.4375
1589380718.0344946,-1.21,-3.42,8.89,0.51,-0.05333333333333334,-0.6855555555555556,0.5,0.6875,-4.8125
1589380718.042058,-1.17,-3.34,8.9,0.5022222222222222,-0.006666666666666667,-0.65,0.5625,0.6875,-5.625
1589380718.0562265,-1.11,-3.29,8.87,0.5022222222222222,-0.006666666666666667,-0.65,0.5625,0.6875,-6.625
1589380718.0632384,-1.08,-3.3,8.82,0.5022222222222222,-0.006666666666666667,-0.65,0.5,0.625,-7.4375
1589380718.0731544,-1.12,-3.34,8.83,0.5022222222222222,-0.006666666666666667,-0.65,0.5625,0.9375,-8.625
1589380718.0861547,-1.08,-3.33,8.88,0.5022222222222222,-0.006666666666666667,-0.65,0.5625,0.875,-9.9375
1589380718.0927804,-1.0,-3.32,8.95,0.51,0.03888888888888889,-0.6577777777777778,0.6875,1.1875,-11.6875
1589380718.102647,-1.13,-3.45,8.91,0.51,0.03888888888888889,-0.6577777777777778,0.5625,1.3125,-13.5
1589380718.1130269,-1.03,-3.41,8.79,0.51,0.03888888888888889,-0.6577777777777778,0.75,1.5625,-15.375
1589380718.1235292,-1.07,-3.41,8.89,0.51,0.03888888888888889,-0.6577777777777778,0.875,1.6875,-17.3125
1589380718.134991,-1.02,-3.42,8.9,0.51,0.03888888888888889,-0.6577777777777778,1.0,1.8125,-19.625
1589380718.1438134,-1.08,-3.48,8.94,0.5022222222222222,0.07222222222222223,-0.65,1.25,2.0625,-21.8125
1589380718.1551828,-1.1,-3.48,8.92,0.5022222222222222,0.07222222222222223,-0.65,1.375,2.125,-23.8125
1589380718.167358,-1.05,-3.52,8.82,0.5022222222222222,0.07222222222222223,-0.65,1.4375,2.4375,-25.5
1589380718.1734352,-1.05,-3.54,8.84,0.5022222222222222,0.07222222222222223,-0.65,1.5625,2.3125,-27.3125
1589380718.18866,-1.03,-3.52,8.9,0.5022222222222222,0.07222222222222223,-0.65,1.375,2.5625,-29.4375
1589380718.194759,-1.08,-3.57,8.89,0.5222222222222223,0.08444444444444445,-0.6588888888888889,1.625,2.75,-31.4375
1589380718.2056243,-0.88,-3.47,8.94,0.5222222222222223,0.08444444444444445,-0.6588888888888889,1.75,3.0,-33.875
1589380718.2141314,-0.92,-3.51,8.81,0.5222222222222223,0.08444444444444445,-0.6588888888888889,2.0625,3.5625,-37.625
1589380718.224262,-0.89,-3.44,8.87,0.5222222222222223,0.08444444444444445,-0.6588888888888889,1.75,3.6875,-41.5
1589380718.235223,-1.0,-3.57,8.91,0.5222222222222223,0.08444444444444445,-0.6588888888888889,2.0,4.125,-45.4375
1589380718.2431011,-1.01,-3.52,8.91,0.51,0.10444444444444444,-0.6444444444444445,1.9375,4.75,-49.0
1589380718.2528732,-0.99,-3.5,8.91,0.51,0.10444444444444444,-0.6444444444444445,1.875,4.6875,-51.4375
1589380718.2672415,-0.97,-3.45,8.84,0.51,0.10444444444444444,-0.6444444444444445,1.9375,4.6875,-53.8125
1589380718.2745225,-1.03,-3.36,8.85,0.51,0.10444444444444444,-0.6444444444444445,2.125,5.25,-56.0625
1589380718.2859738,-0.95,-3.27,8.93,0.51,0.10444444444444444,-0.6444444444444445,1.8125,5.25,-58.125
1589380718.294385,-0.99,-3.19,8.93,0.5277777777777778,0.10444444444444444,-0.6666666666666666,2.0625,5.375,-59.75
1589380718.303987,-1.11,-3.24,8.92,0.5277777777777778,0.10444444444444444,-0.6666666666666666,2.25,5.875,-60.25
1589380718.317326,-1.22,-3.41,8.99,0.5277777777777778,0.10444444444444444,-0.6666666666666666,2.3125,5.75,-59.4375
1589380718.3241892,-1.22,-3.35,8.6,0.5277777777777778,0.10444444444444444,-0.6666666666666666,2.3125,5.1875,-57.3125
1589380718.3392427,-1.22,-3.4,8.94,0.5277777777777778,0.10444444444444444,-0.6666666666666666,1.75,5.5,-54.0
1589380718.3467536,-1.22,-3.41,8.97,0.5811111111111111,0.14333333333333334,-0.6377777777777778,1.8125,4.6875,-50.625
1589380718.3531108,-1.16,-3.37,8.88,0.5811111111111111,0.14333333333333334,-0.6377777777777778,1.5625,4.375,-46.1875
1589380718.3637438,-1.07,-3.35,8.81,0.5811111111111111,0.14333333333333334,-0.6377777777777778,1.375,3.9375,-41.8125
1589380718.377685,-1.09,-3.4,8.91,0.5811111111111111,0.14333333333333334,-0.6377777777777778,1.4375,3.6875,-37.3125
1589380718.3848953,-1.46,-4.04,9.32,0.5811111111111111,0.14333333333333334,-0.6377777777777778,2.375,4.0625,-31.1875
1589380718.3979814,-0.9,-3.46,7.46,0.7244444444444444,0.19,-0.68,5.0,11.125,-23.75
1589380718.4040005,-0.58,-3.1,9.55,0.7244444444444444,0.19,-0.68,-2.625,-1.1875,-27.3125
1589380718.4165645,-0.65,-2.89,8.86,0.7244444444444444,0.19,-0.68,0.4375,-0.625,-32.125
1589380718.4239295,-0.82,-2.9,9.01,0.7244444444444444,0.19,-0.68,0.4375,1.75,-36.4375
1589380718.4353971,-0.94,-3.1,8.91,0.7244444444444444,0.19,-0.68,1.0625,3.25,-38.25
1589380718.443063,-1.15,-3.36,8.95,1.26,0.3244444444444444,-0.9377777777777778,1.0625,3.875,-37.375
1589380718.4544592,-1.4,-3.93,8.81,1.26,0.3244444444444444,-0.9377777777777778,1.0625,6.1875,-32.25
1589380718.4634616,-1.06,-3.31,8.39,1.26,0.3244444444444444,-0.9377777777777778,2.25,6.0,-25.0
1589380718.4742994,-1.35,-3.75,9.18,1.26,0.3244444444444444,-0.9377777777777778,-1.25,4.5,-19.0625
1589380718.4903915,-0.76,-2.77,8.98,1.26,0.3244444444444444,-0.9377777777777778,-0.375,1.3125,-11.0625
1589380718.4972727,-0.9,-2.96,9.05,1.3455555555555556,-0.4222222222222222,-1.1955555555555557,1.8125,-5.5,-3.8125
1589380718.503943,-1.15,-3.11,9.01,1.3455555555555556,-0.4222222222222222,-1.1955555555555557,0.0,-2.5625,4.125
1589380718.5171962,-1.13,-3.07,8.9,1.3455555555555556,-0.4222222222222222,-1.1955555555555557,-0.5,-1.875,14.8125
1589380718.5268836,-1.07,-3.06,8.92,1.3455555555555556,-0.4222222222222222,-1.1955555555555557,-0.5,-2.25,25.4375
1589380718.5366664,-1.12,-3.17,8.99,1.3455555555555556,-0.4222222222222222,-1.1955555555555557,-0.5625,-2.9375,35.1875
1589380718.5484715,-1.14,-3.13,8.9,0.6822222222222222,-0.012222222222222223,-0.7588888888888888,-0.5,-3.6875,45.1875
1589380718.5542836,-0.96,-3.0,8.95,0.6822222222222222,-0.012222222222222223,-0.7588888888888888,-1.0625,-4.9375,54.5
1589380718.5678859,-0.92,-3.02,8.85,0.6822222222222222,-0.012222222222222223,-0.7588888888888888,-1.0625,-5.75,60.8125
1589380718.5747821,-0.87,-2.99,8.9,0.6822222222222222,-0.012222222222222223,-0.7588888888888888,-1.3125,-5.9375,65.5625
1589380718.5869932,-0.89,-3.05,8.94,0.6822222222222222,-0.012222222222222223,-0.7588888888888888,-1.375,-6.375,68.375
1589380718.5941842,-1.03,-3.26,8.92,0.5366666666666666,0.13333333333333333,-0.7155555555555555,-1.5,-6.5,71.25
1589380718.6051552,-0.9,-3.11,8.91,0.5366666666666666,0.13333333333333333,-0.7155555555555555,-1.625,-6.875,75.75
1589380718.6170394,-0.77,-3.01,8.88,0.5366666666666666,0.13333333333333333,-0.7155555555555555,-1.75,-7.75,79.6875
1589380718.6263607,-0.75,-3.07,8.9,0.5366666666666666,0.13333333333333333,-0.7155555555555555,-1.5,-7.6875,81.0
1589380718.6406727,-0.8,-3.25,8.97,0.5366666666666666,0.13333333333333333,-0.7155555555555555,-1.8125,-8.0,80.9375
1589380718.6467679,-0.82,-3.36,8.91,0.5333333333333333,0.13333333333333333,-0.6944444444444444,-1.5625,-7.5625,81.5
1589380718.654662,-0.77,-3.31,8.96,0.5333333333333333,0.13333333333333333,-0.6944444444444444,-1.75,-7.625,82.5
1589380718.6657836,-0.69,-3.37,8.86,0.5333333333333333,0.13333333333333333,-0.6944444444444444,-1.6875,-7.75,82.9375
1589380718.6776915,-0.67,-3.44,8.91,0.5333333333333333,0.13333333333333333,-0.6944444444444444,-1.625,-7.875,82.0625
1589380718.6875243,-0.59,-3.41,8.88,0.5333333333333333,0.13333333333333333,-0.6944444444444444,-1.625,-7.625,79.625
1589380718.6939034,-0.43,-3.38,8.92,0.5255555555555556,0.10111111111111112,-0.7022222222222222,-1.4375,-7.1875,75.3125
1589380718.7047994,-0.29,-3.35,8.89,0.5255555555555556,0.10111111111111112,-0.7022222222222222,-1.1875,-6.375,67.9375
1589380718.718348,-0.23,-3.39,8.83,0.5255555555555556,0.10111111111111112,-0.7022222222222222,-1.0625,-5.25,57.625
1589380718.7250333,-0.12,-3.37,8.91,0.5255555555555556,0.10111111111111112,-0.7022222222222222,-0.75,-4.1875,44.5625
1589380718.7370605,-0.09,-3.34,8.95,0.5255555555555556,0.10111111111111112,-0.7022222222222222,-0.1875,-2.5625,29.0
1589380718.7440765,-0.11,-3.32,8.93,0.4933333333333334,0.057777777777777775,-0.6966666666666667,0.0625,-1.0625,11.625
1589380718.7551644,-0.22,-3.21,9.0,0.4933333333333334,0.057777777777777775,-0.6966666666666667,0.5625,0.8125,-5.6875
1589380718.7662985,-0.35,-3.33,8.85,0.4933333333333334,0.057777777777777775,-0.6966666666666667,1.125,2.25,-22.4375
1589380718.777778,-20.46,-17.3,4.56,0.4933333333333334,0.057777777777777775,-0.6966666666666667,-0.25,2.5625,-33.0625
1589380718.7871618,12.06,17.75,2.92,0.4933333333333334,0.057777777777777775,-0.6966666666666667,-31.4375,54.0625,-42.0
1589380718.7986562,-1.79,-1.67,-0.61,0.4844444444444445,0.09,-0.6666666666666666,-42.0625,63.0625,-115.625
1589380718.8050232,-2.7,0.09,11.74,0.4844444444444445,0.09,-0.6666666666666666,-11.125,0.5,-142.6875
1589380718.8148875,-0.01,0.67,7.21,0.4844444444444445,0.09,-0.6666666666666666,50.3125,-87.9375,-126.9375
1589380718.8206675,-0.01,0.67,7.21,0.4844444444444445,0.09,-0.6666666666666666,50.3125,-87.9375,-126.9375
1589380718.8278089,-1.22,0.4,7.08,0.4844444444444445,0.09,-0.6666666666666666,32.0,21.3125,-101.3125
1589380718.8389928,-0.96,-0.13,10.6,0.4844444444444445,0.09,-0.6666666666666666,-3.125,6.75,-88.125
1589380718.846001,-0.8,1.27,9.08,0.5044444444444445,0.1688888888888889,-0.6611111111111111,1.3125,4.25,-70.25
1589380718.857517,-0.8,1.35,9.39,0.5044444444444445,0.1688888888888889,-0.6611111111111111,3.1875,7.5625,-52.625
1589380718.8657825,-1.07,1.53,9.21,0.5044444444444445,0.1688888888888889,-0.6611111111111111,1.25,2.9375,-40.4375
1589380718.8775473,-1.64,1.2,9.55,0.5044444444444445,0.1688888888888889,-0.6611111111111111,1.0625,3.8125,-27.625
1589380718.8877494,-1.98,-2.53,9.35,0.5044444444444445,0.1688888888888889,-0.6611111111111111,0.0625,2.25,-12.375
1589380718.8952744,-0.88,-2.88,8.91,0.4722222222222222,0.17333333333333334,-0.6533333333333333,-1.75,-0.1875,-1.3125
1589380718.9091878,-0.93,-2.71,8.76,0.4722222222222222,0.17333333333333334,-0.6533333333333333,-1.1875,-2.125,4.8125
1589380718.915983,-0.7,-2.62,8.9,0.4722222222222222,0.17333333333333334,-0.6533333333333333,-0.625,-1.0,5.5625
1589380718.9294775,-0.93,-2.6,9.04,0.4722222222222222,0.17333333333333334,-0.6533333333333333,0.3125,-1.25,6.0
1589380718.9379313,-0.95,-2.64,9.02,0.4722222222222222,0.17333333333333334,-0.6533333333333333,0.6875,0.5,5.375
1589380718.9487884,-0.91,-2.75,8.83,0.4655555555555556,0.17333333333333334,-0.6677777777777778,-0.0625,-0.8125,7.8125
1589380718.9553115,-0.8,-2.85,9.0,0.4655555555555556,0.17333333333333334,-0.6677777777777778,-0.375,-0.75,10.25
1589380718.9685655,-0.85,-2.91,8.84,0.4655555555555556,0.17333333333333334,-0.6677777777777778,0.0625,-1.125,11.0625
1589380718.9761715,-0.83,-2.9,8.83,0.4655555555555556,0.17333333333333334,-0.6677777777777778,-0.1875,-1.5,11.9375
1589380718.987702,-0.67,-2.92,9.01,0.4655555555555556,0.17333333333333334,-0.6677777777777778,-0.125,-2.25,13.4375
1589380718.9959161,-0.53,-2.88,8.83,0.4777777777777778,0.1688888888888889,-0.6466666666666666,-0.375,-1.625,13.875
1589380719.0070262,-0.53,-2.89,8.93,0.4777777777777778,0.1688888888888889,-0.6466666666666666,-0.625,-1.75,12.125
1589380719.0160596,-0.54,-2.9,8.76,0.4777777777777778,0.1688888888888889,-0.6466666666666666,-0.125,-0.375,9.125
1589380719.0268455,-0.7,-2.98,8.92,0.4777777777777778,0.1688888888888889,-0.6466666666666666,0.25,-0.875,5.0
1589380719.0434878,-0.74,-3.06,9.01,0.4777777777777778,0.1688888888888889,-0.6466666666666666,-0.0625,-0.3125,2.125
1589380719.0496476,-0.82,-3.08,9.01,0.4722222222222222,0.1811111111111111,-0.6533333333333333,0.4375,0.75,0.5625
1589380719.061334,-0.87,-3.1,8.93,0.4722222222222222,0.1811111111111111,-0.6533333333333333,-0.3125,0.6875,-0.75
1589380719.0677984,-0.89,-3.16,8.85,0.4722222222222222,0.1811111111111111,-0.6533333333333333,0.125,0.125,-1.625
1589380719.0805433,-6.28,-11.94,10.72,0.4722222222222222,0.1811111111111111,-0.6533333333333333,0.5625,0.5625,-2.125
1589380719.0879426,-8.81,-24.91,3.22,0.4722222222222222,0.1811111111111111,-0.6533333333333333,12.0625,-4.0625,-12.6875
1589380719.1006198,-0.75,-1.17,8.62,0.4577777777777778,0.1811111111111111,-0.6611111111111111,18.9375,1.375,-38.0625
1589380719.1064098,-0.96,-3.06,9.13,0.4577777777777778,0.1811111111111111,-0.6611111111111111,4.75,9.5625,-32.0625
1589380719.119733,-1.73,-5.12,8.78,0.4577777777777778,0.1811111111111111,-0.6611111111111111,-1.625,-0.25,-17.8125
1589380719.126205,-2.09,-6.28,8.5,0.4577777777777778,0.1811111111111111,-0.6611111111111111,0.9375,1.9375,-7.125
1589380719.1388412,-1.16,-3.89,8.98,0.4577777777777778,0.1811111111111111,-0.6611111111111111,0.625,-1.5,-4.625
1589380719.1463716,-1.21,-3.99,8.8,0.4922222222222222,0.17333333333333334,-0.6533333333333333,0.375,0.25,-0.5
1589380719.1581595,-1.15,-3.88,8.9,0.4922222222222222,0.17333333333333334,-0.6533333333333333,-0.375,0.0,0.0
1589380719.1664145,-1.22,-3.94,8.65,0.4922222222222222,0.17333333333333334,-0.6533333333333333,0.125,0.125,0.0625
1589380719.176196,-1.18,-3.91,8.92,0.4922222222222222,0.17333333333333334,-0.6533333333333333,-0.125,-0.1875,0.0625
1589380719.1820116,-1.18,-3.91,8.92,0.4922222222222222,0.17333333333333334,-0.6533333333333333,-0.125,-0.1875,0.0625
1589380719.189184,-1.21,-3.9,8.86,0.4922222222222222,0.17333333333333334,-0.6533333333333333,0.5,-0.1875,0.1875
1589380719.2005222,-1.17,-3.91,8.85,0.4922222222222222,0.17333333333333334,-0.6611111111111111,0.25,-0.3125,0.0625
1589380719.2122734,-1.22,-3.91,8.76,0.4922222222222222,0.17333333333333334,-0.6611111111111111,0.1875,-0.0625,0.0625
1589380719.2186756,-1.15,-3.89,8.86,0.4922222222222222,0.17333333333333334,-0.6611111111111111,-0.1875,0.0625,0.0
1589380719.2318985,-1.19,-3.93,8.82,0.4922222222222222,0.17333333333333334,-0.6611111111111111,0.1875,0.0,0.0625
1589380719.2401738,-1.2,-3.9,8.99,0.4922222222222222,0.17333333333333334,-0.6611111111111111,-0.0625,-0.1875,0.0
1589380719.2515528,-1.22,-3.91,8.86,0.4844444444444445,0.18777777777777774,-0.6466666666666666,0.25,0.0,0.0625
1589380719.257534,-1.15,-3.93,8.93,0.4844444444444445,0.18777777777777774,-0.6466666666666666,-0.1875,0.0,0.0625
1589380719.268357,-1.19,-3.92,8.77,0.4844444444444445,0.18777777777777774,-0.6466666666666666,-0.125,0.0,0.0
1589380719.2777953,-1.17,-3.89,8.86,0.4844444444444445,0.18777777777777774,-0.6466666666666666,0.0,-0.1875,-0.0625
1589380719.2905605,-1.19,-3.92,8.83,0.4844444444444445,0.18777777777777774,-0.6466666666666666,0.3125,-0.0625,-0.125
1589380719.2981474,-1.17,-3.89,8.95,0.4844444444444445,0.17333333333333334,-0.6533333333333333,0.1875,-0.0625,-0.0625
1589380719.3105738,-1.21,-3.91,8.91,0.4844444444444445,0.17333333333333334,-0.6533333333333333,0.375,0.1875,0.125
1589380719.3177118,-1.18,-3.94,8.83,0.4844444444444445,0.17333333333333334,-0.6533333333333333,-0.3125,0.0,-0.0625
1589380719.328191,-1.18,-3.93,8.78,0.4844444444444445,0.17333333333333334,-0.6533333333333333,-0.0625,0.0625,-0.0625
1589380719.3436193,-1.17,-3.91,8.89,0.4844444444444445,0.17333333333333334,-0.6533333333333333,0.0625,-0.0625,-0.0625
1589380719.3511922,-1.18,-3.93,8.89,0.4722222222222222,0.17333333333333334,-0.6611111111111111,0.1875,0.0,0.0
1589380719.3616905,-1.18,-3.89,8.92,0.4722222222222222,0.17333333333333334,-0.6611111111111111,0.125,0.0,0.0
1589380719.3677926,-1.19,-3.94,8.75,0.4722222222222222,0.17333333333333334,-0.6611111111111111,-0.0625,-0.0625,0.125
1589380719.3836968,-1.17,-3.94,8.81,0.4722222222222222,0.17333333333333334,-0.6611111111111111,0.0,-0.125,-0.0625
1589380719.391156,-1.18,-3.91,8.87,0.4722222222222222,0.17333333333333334,-0.6611111111111111,0.3125,-0.0625,0.0625
1589380719.403063,-1.17,-3.88,8.95,0.4922222222222222,0.17333333333333334,-0.6611111111111111,0.3125,-0.125,0.0
1589380719.40906,-1.18,-3.9,8.88,0.4922222222222222,0.17333333333333334,-0.6611111111111111,0.3125,-0.125,0.0
1589380719.4224825,-1.19,-3.92,8.79,0.4922222222222222,0.17333333333333334,-0.6611111111111111,-0.1875,0.0,0.0625
1589380719.4287975,-1.16,-3.95,8.8,0.4922222222222222,0.17333333333333334,-0.6611111111111111,-0.25,-0.0625,0.0625
1589380719.4406435,-1.18,-3.92,8.93,0.4922222222222222,0.17333333333333334,-0.6611111111111111,0.125,-0.0625,-0.0625
1589380719.448541,-1.18,-3.92,8.88,0.4844444444444445,0.1688888888888889,-0.6611111111111111,0.125,0.0,0.0625
1589380719.4615881,-1.19,-3.92,8.86,0.4844444444444445,0.1688888888888889,-0.6611111111111111,0.125,0.125,0.0
1589380719.4683962,-1.19,-3.91,8.79,0.4844444444444445,0.1688888888888889,-0.6611111111111111,0.0625,-0.125,-0.0625
1589380719.4786696,-1.18,-3.91,8.82,0.4844444444444445,0.1688888888888889,-0.6611111111111111,0.1875,0.0625,0.0
1589380719.4914846,-1.19,-3.91,8.85,0.4844444444444445,0.1688888888888889,-0.6611111111111111,0.0,-0.125,-0.0625
1589380719.5028653,-1.18,-3.91,8.91,0.4844444444444445,0.1811111111111111,-0.6677777777777778,0.125,-0.0625,0.125
1589380719.510641,-1.18,-3.92,8.87,0.4844444444444445,0.1811111111111111,-0.6677777777777778,-0.0625,-0.1875,-0.125
1589380719.5189388,-1.17,-3.9,8.8,0.4844444444444445,0.1811111111111111,-0.6677777777777778,-0.0625,0.0,0.125
1589380719.529898,-1.18,-3.96,8.86,0.4844444444444445,0.1811111111111111,-0.6677777777777778,-0.25,0.0,0.0
1589380719.5412152,-1.18,-3.92,8.88,0.4844444444444445,0.1811111111111111,-0.6677777777777778,0.125,0.0,0.0
1589380719.5486312,-1.17,-3.92,8.89,0.4922222222222222,0.17333333333333334,-0.6677777777777778,0.125,-0.1875,0.0
1589380719.5602345,-1.16,-3.92,8.93,0.4922222222222222,0.17333333333333334,-0.6677777777777778,0.3125,-0.0625,0.125
1589380719.5738847,-1.16,-3.92,8.8,0.4922222222222222,0.17333333333333334,-0.6677777777777778,0.125,-0.125,0.0
1589380719.5798867,-1.19,-3.92,8.83,0.4922222222222222,0.17333333333333334,-0.6677777777777778,0.0625,0.0,0.0625
1589380719.5946784,-1.18,-3.93,8.85,0.4922222222222222,0.17333333333333334,-0.6677777777777778,0.0,-0.0625,0.0
1589380719.601116,-1.2,-3.9,8.93,0.4844444444444445,0.18777777777777774,-0.6677777777777778,0.125,0.0625,0.0625
1589380719.6132152,-1.17,-3.94,8.9,0.4844444444444445,0.18777777777777774,-0.6677777777777778,0.0625,-0.0625,0.0625
1589380719.6194222,-1.18,-3.9,8.79,0.4844444444444445,0.18777777777777774,-0.6677777777777778,0.0,-0.0625,0.0625
1589380719.6305034,-1.17,-3.92,8.79,0.4844444444444445,0.18777777777777774,-0.6677777777777778,0.0,0.0625,0.0
1589380719.6419086,-1.19,-3.93,8.88,0.4844444444444445,0.18777777777777774,-0.6677777777777778,0.0625,0.0,0.0
1589380719.6533058,-1.21,-3.92,8.91,0.4722222222222222,0.18777777777777774,-0.6533333333333333,0.1875,0.0,-0.125
1589380719.6598046,-1.16,-3.91,8.91,0.4722222222222222,0.18777777777777774,-0.6533333333333333,0.125,-0.125,-0.0625
1589380719.671917,-1.19,-3.91,8.79,0.4722222222222222,0.18777777777777774,-0.6533333333333333,0.0,0.0,0.0
1589380719.6793091,-1.18,-3.91,8.83,0.4722222222222222,0.18777777777777774,-0.6533333333333333,-0.125,-0.0625,0.0
1589380719.6923053,-1.19,-3.92,8.83,0.4722222222222222,0.18777777777777774,-0.6533333333333333,-0.1875,-0.0625,0.0
1589380719.6998966,-1.18,-3.91,8.9,0.4777777777777778,0.17333333333333334,-0.6677777777777778,-0.0625,0.0625,0.1875
1589380719.7094975,-1.17,-3.92,8.85,0.4777777777777778,0.17333333333333334,-0.6677777777777778,0.125,-0.3125,0.0
1589380719.720024,-1.18,-3.9,8.79,0.4777777777777778,0.17333333333333334,-0.6677777777777778,0.0625,-0.125,0.125
1589380719.73039,-1.18,-3.94,8.83,0.4777777777777778,0.17333333333333334,-0.6677777777777778,-0.1875,0.0625,0.0625
1589380719.7459116,-1.18,-3.92,8.88,0.4777777777777778,0.17333333333333334,-0.6677777777777778,0.0625,0.0625,0.125
1589380719.752123,-1.18,-3.91,8.9,0.4777777777777778,0.19333333333333333,-0.6677777777777778,0.0625,0.125,0.0
1589380719.7647705,-1.17,-3.92,8.91,0.4777777777777778,0.19333333333333333,-0.6677777777777778,0.0625,0.0,0.0
1589380719.7716825,-1.18,-3.91,8.78,0.4777777777777778,0.19333333333333333,-0.6677777777777778,0.0625,0.0625,0.125
1589380719.7809446,-1.18,-3.91,8.86,0.4777777777777778,0.19333333333333333,-0.6677777777777778,-0.125,-0.125,0.0
1589380719.7925527,-1.18,-3.93,8.86,0.4777777777777778,0.19333333333333333,-0.6677777777777778,-0.125,0.0,-0.0625
1589380719.8032708,-1.19,-3.93,8.88,0.4844444444444445,0.1811111111111111,-0.6677777777777778,-0.0625,-0.1875,0.0625
1589380719.809983,-1.21,-3.94,8.9,0.4844444444444445,0.1811111111111111,-0.6677777777777778,0.0625,-0.0625,-0.0625
1589380719.8208814,-1.17,-3.92,8.79,0.4844444444444445,0.1811111111111111,-0.6677777777777778,0.125,0.0,0.0625
1589380719.8299222,-1.18,-3.91,8.87,0.4844444444444445,0.1811111111111111,-0.6677777777777778,0.125,-0.1875,-0.0625
1589380719.8429995,-1.17,-3.89,8.86,0.4844444444444445,0.1811111111111111,-0.6677777777777778,0.125,-0.125,0.0625
1589380719.850551,-1.18,-3.92,8.89,0.4844444444444445,0.17333333333333334,-0.6822222222222222,0.0625,-0.0625,0.0
1589380719.860237,-1.19,-3.93,8.88,0.4844444444444445,0.17333333333333334,-0.6822222222222222,0.0,-0.0625,0.0625
1589380719.870427,-1.19,-3.92,8.79,0.4844444444444445,0.17333333333333334,-0.6822222222222222,-0.0625,-0.0625,0.125
1589380719.880981,-1.18,-3.91,8.83,0.4844444444444445,0.17333333333333334,-0.6822222222222222,-0.0625,-0.0625,0.1875
1589380719.8965902,-1.19,-3.91,8.87,0.4844444444444445,0.17333333333333334,-0.6822222222222222,0.0625,0.0625,0.0625
1589380719.9026144,-1.2,-3.9,8.87,0.4655555555555556,0.19333333333333333,-0.6677777777777778,0.0,0.0625,0.0
1589380719.9157705,-1.19,-3.93,8.91,0.4655555555555556,0.19333333333333333,-0.6677777777777778,0.125,0.0,-0.0625
1589380719.9217298,-1.18,-3.91,8.8,0.4655555555555556,0.19333333333333333,-0.6677777777777778,0.1875,-0.0625,0.0
1589380719.930904,-1.18,-3.91,8.84,0.4655555555555556,0.19333333333333333,-0.6677777777777778,0.0,-0.0625,-0.125
1589380719.9433956,-1.17,-3.93,8.87,0.4655555555555556,0.19333333333333333,-0.6677777777777778,-0.0625,0.0,0.0
1589380719.954596,-1.17,-3.92,8.9,0.4655555555555556,0.1811111111111111,-0.6611111111111111,-0.125,-0.0625,-0.0625
1589380719.9612405,-1.19,-3.91,8.83,0.4655555555555556,0.1811111111111111,-0.6611111111111111,-0.125,0.0,-0.1875
1589380719.9749894,-1.19,-3.91,8.77,0.4655555555555556,0.1811111111111111,-0.6611111111111111,0.0,0.0,-0.1875
1589380719.9816625,-1.17,-3.89,8.82,0.4655555555555556,0.1811111111111111,-0.6611111111111111,0.1875,0.0625,-0.125
1589380719.9947696,-1.2,-3.93,8.85,0.4655555555555556,0.1811111111111111,-0.6611111111111111,0.0,0.0,0.0
1589380720.0010474,-1.17,-3.92,8.87,0.4988888888888889,0.17333333333333334,-0.6611111111111111,0.0625,0.0625,0.0
1589380720.013398,-1.21,-3.93,8.89,0.4988888888888889,0.17333333333333334,-0.6611111111111111,0.0625,0.0,-0.0625
1589380720.020664,-1.18,-3.91,8.79,0.4988888888888889,0.17333333333333334,-0.6611111111111111,0.1875,-0.1875,-0.125
1589380720.0307245,-1.17,-3.9,8.86,0.4988888888888889,0.17333333333333334,-0.6611111111111111,0.0625,-0.0625,0.0
1589380720.0464494,-1.19,-3.92,8.88,0.4988888888888889,0.17333333333333334,-0.6611111111111111,0.125,0.0,-0.1875
1589380720.0522726,-1.18,-3.92,8.89,0.4844444444444445,0.18777777777777774,-0.6611111111111111,0.0,-0.0625,-0.125
1589380720.0619915,-1.21,-3.92,8.91,0.4844444444444445,0.18777777777777774,-0.6611111111111111,0.0,0.125,-0.0625
1589380720.073565,-1.17,-3.91,8.78,0.4844444444444445,0.18777777777777774,-0.6611111111111111,0.0625,0.0625,-0.125
1589380720.081028,-1.2,-3.91,8.83,0.4844444444444445,0.18777777777777774,-0.6611111111111111,0.125,-0.0625,0.0
1589380720.094175,-1.19,-3.91,8.86,0.4844444444444445,0.18777777777777774,-0.6611111111111111,0.125,0.125,-0.125
1589380720.1062176,-1.17,-3.92,8.91,0.4922222222222222,0.1811111111111111,-0.6611111111111111,0.125,0.0625,0.0
1589380720.1122124,-1.17,-3.91,8.86,0.4922222222222222,0.1811111111111111,-0.6611111111111111,0.0625,0.1875,-0.125
1589380720.1258767,-1.19,-3.91,8.8,0.4922222222222222,0.1811111111111111,-0.6611111111111111,0.0625,-0.0625,0.125
1589380720.1321301,-1.17,-3.91,8.83,0.4922222222222222,0.1811111111111111,-0.6611111111111111,0.0,0.0,-0.1875
1589380720.146388,-1.19,-3.91,8.89,0.4922222222222222,0.1811111111111111,-0.6611111111111111,-0.0625,-0.125,-0.0625
1589380720.1522882,-1.18,-3.9,8.9,0.4922222222222222,0.1811111111111111,-0.6677777777777778,-0.0625,0.0,0.0
1589380720.1651082,-1.19,-3.9,8.9,0.4922222222222222,0.1811111111111111,-0.6677777777777778,0.0625,0.0625,-0.125
1589380720.1721337,-1.19,-3.92,8.82,0.4922222222222222,0.1811111111111111,-0.6677777777777778,0.0625,-0.0625,0.0
1589380720.181425,-1.18,-3.93,8.84,0.4922222222222222,0.1811111111111111,-0.6677777777777778,0.0625,0.0,-0.125
1589380720.1947858,-1.17,-3.92,8.87,0.4922222222222222,0.1811111111111111,-0.6677777777777778,0.1875,0.125,-0.125
1589380720.2043116,-1.19,-3.91,8.9,0.4777777777777778,0.1811111111111111,-0.6533333333333333,0.0625,0.0625,0.0625
1589380720.21182,-1.2,-3.92,8.85,0.4777777777777778,0.1811111111111111,-0.6533333333333333,0.0,0.1875,-0.125
1589380720.2217262,-1.2,-3.92,8.78,0.4777777777777778,0.1811111111111111,-0.6533333333333333,-0.0625,0.0625,0.0625
1589380720.2318134,-1.15,-3.92,8.82,0.4777777777777778,0.1811111111111111,-0.6533333333333333,0.0,0.0,-0.125
1589380720.2443314,-1.18,-3.92,8.87,0.4777777777777778,0.1811111111111111,-0.6533333333333333,0.0,0.0,0.0
1589380720.2548974,-1.18,-3.9,8.91,0.4844444444444445,0.1811111111111111,-0.6611111111111111,0.0,0.0625,0.0
1589380720.2622278,-1.19,-3.9,8.87,0.4844444444444445,0.1811111111111111,-0.6611111111111111,-0.0625,-0.0625,0.0625
1589380720.276779,-1.18,-3.91,8.79,0.4844444444444445,0.1811111111111111,-0.6611111111111111,0.0625,0.1875,-0.0625
1589380720.282678,-1.18,-3.92,8.86,0.4844444444444445,0.1811111111111111,-0.6611111111111111,0.25,0.1875,-0.25
1589380720.2956133,-1.2,-3.89,8.91,0.4844444444444445,0.1811111111111111,-0.6611111111111111,0.0625,0.1875,-0.0625
1589380720.3030753,-1.16,-3.89,8.88,0.4777777777777778,0.1811111111111111,-0.6533333333333333,0.0625,-0.0625,-0.0625
1589380720.3125484,-1.17,-3.93,8.92,0.4777777777777778,0.1811111111111111,-0.6533333333333333,-0.0625,0.0,0.0
1589380720.3224144,-1.18,-3.91,8.76,0.4777777777777778,0.1811111111111111,-0.6533333333333333,0.0625,-0.1875,0.0
1589380720.336259,-1.18,-3.91,8.85,0.4777777777777778,0.1811111111111111,-0.6533333333333333,0.125,0.0,-0.125
1589380720.3450718,-1.16,-3.92,8.87,0.4777777777777778,0.1811111111111111,-0.6533333333333333,0.0,-0.0625,-0.0625
1589380720.353138,-1.17,-3.94,8.91,0.4777777777777778,0.19333333333333333,-0.6466666666666666,0.0,0.0625,-0.0625
1589380720.3622606,-1.19,-3.91,8.87,0.4777777777777778,0.19333333333333333,-0.6466666666666666,0.0,-0.125,-0.0625
1589380720.3724682,-1.2,-3.91,8.79,0.4777777777777778,0.19333333333333333,-0.6466666666666666,0.125,-0.125,0.0625
1589380720.382543,-1.2,-3.92,8.8,0.4777777777777778,0.19333333333333333,-0.6466666666666666,0.0,0.125,0.0
1589380720.3953426,-1.18,-3.94,8.88,0.4777777777777778,0.19333333333333333,-0.6466666666666666,0.0,0.25,-0.125
1589380720.403354,-1.18,-3.92,8.91,0.4722222222222222,0.1811111111111111,-0.6677777777777778,0.0,0.0,-0.125
1589380720.412607,-1.18,-3.92,8.91,0.4722222222222222,0.1811111111111111,-0.6677777777777778,-0.0625,-0.0625,0.0
1589380720.4276302,-1.2,-3.9,8.81,0.4722222222222222,0.1811111111111111,-0.6677777777777778,-0.1875,-0.0625,0.0625
1589380720.4337342,-1.19,-3.88,8.83,0.4722222222222222,0.1811111111111111,-0.6677777777777778,-0.0625,-0.0625,0.0
1589380720.4492936,-1.19,-3.92,8.9,0.4722222222222222,0.1811111111111111,-0.6677777777777778,0.0,-0.125,0.0
1589380720.4552336,-1.18,-3.9,8.9,0.5044444444444445,0.1811111111111111,-0.6733333333333333,-0.125,-0.0625,-0.0625
1589380720.4665935,-1.18,-3.91,8.84,0.5044444444444445,0.1811111111111111,-0.6733333333333333,-0.0625,0.1875,-0.0625
1589380720.4729054,-1.19,-3.9,8.79,0.5044444444444445,0.1811111111111111,-0.6733333333333333,0.0,-0.125,0.125
1589380720.4832158,-1.18,-3.91,8.81,0.5044444444444445,0.1811111111111111,-0.6733333333333333,-0.1875,-0.0625,0.0625
1589380720.4959102,-1.18,-3.91,8.87,0.5044444444444445,0.1811111111111111,-0.6733333333333333,-0.0625,-0.1875,0.0625
1589380720.5073054,-1.19,-3.92,8.91,0.4777777777777778,0.18777777777777774,-0.6677777777777778,-0.0625,0.0625,0.0
1589380720.5131226,-1.19,-3.91,8.89,0.4777777777777778,0.18777777777777774,-0.6677777777777778,0.0,0.0,0.0
1589380720.5245006,-1.19,-3.91,8.79,0.4777777777777778,0.18777777777777774,-0.6677777777777778,0.0625,0.0,0.0
1589380720.5332847,-1.19,-3.93,8.84,0.4777777777777778,0.18777777777777774,-0.6677777777777778,0.0,-0.125,0.125
