time,acc_x,acc_y,acc_z,mag_x,mag_y,mag_z,gyr_x,gyr_y,gyr_z
1589380728.7711818,-0.13,-4.04,8.84,0.4688888888888889,0.2577777777777778,-0.8,0.25,-0.25,0.0
1589380728.788236,-0.09,-4.08,8.95,0.4688888888888889,0.2577777777777778,-0.8,-0.0625,-0.3125,-0.25
1589380728.7941632,-0.07,-4.08,9.0,0.4955555555555556,0.25,-0.7711111111111111,-0.0625,-0.3125,0.0625
1589380728.8013349,-0.05,-4.07,8.96,0.4955555555555556,0.25,-0.7711111111111111,0.125,0.1875,0.125
1589380728.8128445,-0.05,-4.07,8.83,0.4955555555555556,0.25,-0.7711111111111111,0.3125,0.625,0.0
1589380728.8211036,-0.08,-4.05,8.86,0.4955555555555556,0.25,-0.7711111111111111,0.125,0.5625,0.0625
1589380728.8334734,-0.1,-4.05,8.89,0.4955555555555556,0.25,-0.7711111111111111,0.125,0.4375,0.125
1589380728.845818,-0.16,-4.05,8.79,0.4888888888888889,0.2577777777777778,-0.7922222222222223,-0.125,0.5625,0.0625
1589380728.8519533,-0.13,-4.05,8.72,0.4888888888888889,0.2577777777777778,-0.7922222222222223,-0.0625,0.3125,0.0625
1589380728.8654082,-0.09,-4.05,8.65,0.4888888888888889,0.2577777777777778,-0.7922222222222223,0.0,-0.125,0.0
1589380728.8716516,-0.08,-4.07,8.74,0.4888888888888889,0.2577777777777778,-0.7922222222222223,-0.0625,-0.25,-0.0625
1589380728.8834176,-0.07,-4.06,8.95,0.4888888888888889,0.2577777777777778,-0.7922222222222223,-0.0625,-0.3125,0.0
1589380728.8909295,-0.07,-4.07,8.97,0.4888888888888889,0.2577777777777778,-0.7566666666666667,-0.125,-0.4375,-0.0625
1589380728.9047134,-0.1,-4.08,8.95,0.4888888888888889,0.2577777777777778,-0.7566666666666667,-0.3125,-0.375,-0.0625
1589380728.9106731,-0.1,-4.08,8.82,0.4888888888888889,0.2577777777777778,-0.7566666666666667,-0.125,-0.1875,0.0625
1589380728.9215133,-0.07,-4.07,8.9,0.4888888888888889,0.2577777777777778,-0.7566666666666667,-0.375,0.125,-0.1875
1589380728.9369226,-0.11,-4.07,8.89,0.4888888888888889,0.2577777777777778,-0.7566666666666667,-0.3125,0.3125,0.0625
1589380728.9448054,-0.09,-4.07,8.88,0.4888888888888889,0.26222222222222225,-0.7711111111111111,-0.5,0.25,0.0625
1589380728.9516535,-0.1,-4.05,8.73,0.4888888888888889,0.26222222222222225,-0.7711111111111111,-0.4375,0.375,0.0
1589380728.9611785,-0.11,-4.05,8.71,0.4888888888888889,0.26222222222222225,-0.7711111111111111,-0.4375,0.25,0.0
1589380728.971398,-0.13,-4.04,8.79,0.4888888888888889,0.26222222222222225,-0.7711111111111111,-0.4375,0.0,0.125
1589380728.983644,-0.17,-4.01,8.84,0.4888888888888889,0.26222222222222225,-0.7711111111111111,-0.25,-0.125,0.25
1589380728.997101,-0.24,-3.88,8.95,0.4888888888888889,0.25,-0.7711111111111111,-0.375,-0.4375,0.8125
1589380729.0033813,-0.21,-3.86,8.95,0.4888888888888889,0.25,-0.7711111111111111,-0.4375,-0.8125,1.6875
1589380729.0171835,-0.13,-3.93,8.84,0.4888888888888889,0.25,-0.7711111111111111,-0.375,-0.9375,2.0
1589380729.0237074,-0.09,-4.06,8.85,0.4888888888888889,0.25,-0.7711111111111111,-0.25,-0.4375,2.0625
1589380729.0381136,-0.08,-4.12,8.87,0.4888888888888889,0.25,-0.7711111111111111,-0.3125,-0.1875,2.0
1589380729.0446315,-0.08,-4.11,8.87,0.4744444444444445,0.2577777777777778,-0.7777777777777778,-0.3125,-0.0625,1.8125
1589380729.0556116,-0.05,-4.12,8.87,0.4744444444444445,0.2577777777777778,-0.7777777777777778,-0.375,0.0625,1.6875
1589380729.0617044,0.0,-4.28,8.68,0.4744444444444445,0.2577777777777778,-0.7777777777777778,-0.375,-0.1875,1.25
1589380729.0757315,0.04,-4.27,8.75,0.4744444444444445,0.2577777777777778,-0.7777777777777778,-0.4375,-0.3125,1.0625
1589380729.083975,0.03,-4.19,8.83,0.4744444444444445,0.2577777777777778,-0.7777777777777778,0.0,-0.75,0.25
1589380729.094699,-0.08,-4.09,8.85,0.4811111111111111,0.2677777777777778,-0.7711111111111111,-0.0625,-0.75,0.0
1589380729.1021328,-0.09,-4.07,8.87,0.4811111111111111,0.2677777777777778,-0.7711111111111111,-0.1875,-0.8125,-0.125
1589380729.111948,-0.1,-4.07,8.76,0.4811111111111111,0.2677777777777778,-0.7711111111111111,-0.375,-0.5625,-0.0625
1589380729.1220481,-0.11,-4.06,8.79,0.4811111111111111,0.2677777777777778,-0.7711111111111111,-0.375,-0.125,0.0625
1589380729.1344256,-0.15,-3.93,8.91,0.4811111111111111,0.2677777777777778,-0.7711111111111111,-0.375,0.125,0.0
1589380729.1427064,-0.18,-3.88,8.93,0.4955555555555556,0.26222222222222225,-0.7711111111111111,-0.5,0.1875,0.625
1589380729.1543455,-0.2,-3.79,8.92,0.4955555555555556,0.26222222222222225,-0.7711111111111111,-0.5625,0.0,1.5625
1589380729.1623714,-0.2,-3.77,8.82,0.4955555555555556,0.26222222222222225,-0.7711111111111111,-0.6875,-0.3125,2.6875
1589380729.1744108,-0.2,-3.75,8.79,0.4955555555555556,0.26222222222222225,-0.7711111111111111,-0.625,-0.6875,3.75
1589380729.1888242,-0.19,-3.83,8.84,0.4955555555555556,0.26222222222222225,-0.7711111111111111,-0.9375,-1.1875,4.8125
1589380729.1952953,-0.14,-3.94,8.83,0.4811111111111111,0.2577777777777778,-0.7922222222222223,-0.8125,-1.4375,5.5
1589380729.2070765,-0.08,-4.05,8.83,0.4811111111111111,0.2577777777777778,-0.7922222222222223,-0.6875,-1.625,6.125
1589380729.2134786,-0.12,-3.96,8.75,0.4811111111111111,0.2577777777777778,-0.7922222222222223,-0.75,-1.4375,6.0625
1589380729.2274485,-0.33,-2.64,8.77,0.4811111111111111,0.2577777777777778,-0.7922222222222223,-1.1875,-1.25,7.0
1589380729.2335227,-0.38,-2.24,9.15,0.4811111111111111,0.2577777777777778,-0.7922222222222223,-0.1875,-1.0,11.5
1589380729.2470207,-0.35,-2.55,9.03,0.4811111111111111,0.25,-0.7711111111111111,0.125,-0.625,15.8125
1589380729.2531538,-0.21,-2.62,9.07,0.4811111111111111,0.25,-0.7711111111111111,-0.8125,-1.8125,19.4375
1589380729.2619712,-0.14,-2.67,8.95,0.4811111111111111,0.25,-0.7711111111111111,-0.5,-1.8125,21.25
1589380729.2725112,-0.22,-2.71,8.86,0.4811111111111111,0.25,-0.7711111111111111,-0.5,-1.875,21.375
1589380729.2862177,-0.25,-2.67,8.93,0.4811111111111111,0.25,-0.7711111111111111,-0.8125,-1.9375,21.9375
1589380729.2921355,-0.29,-2.71,8.96,0.4744444444444445,0.2577777777777778,-0.7855555555555556,-0.75,-2.25,23.5
1589380729.3037148,-0.31,-2.69,9.0,0.4744444444444445,0.2577777777777778,-0.7855555555555556,-0.5,-2.5625,26.0625
1589380729.3130028,-0.26,-2.75,8.87,0.4744444444444445,0.2577777777777778,-0.7855555555555556,-0.75,-2.75,28.5
1589380729.3263445,-0.29,-2.79,8.96,0.4744444444444445,0.2577777777777778,-0.7855555555555556,-0.75,-3.0,30.25
1589380729.3402786,-0.34,-2.75,8.99,0.4744444444444445,0.2577777777777778,-0.7855555555555556,-0.75,-2.9375,31.75
1589380729.3464553,-0.38,-2.73,9.01,0.4811111111111111,0.2577777777777778,-0.7777777777777778,-0.75,-3.125,33.625
1589380729.3555286,-0.37,-2.72,9.01,0.4811111111111111,0.2577777777777778,-0.7777777777777778,-0.9375,-3.25,36.3125
1589380729.3634365,-0.33,-2.73,8.89,0.4811111111111111,0.2577777777777778,-0.7777777777777778,-1.0,-3.375,38.75
1589380729.3773966,-0.31,-2.75,8.89,0.4811111111111111,0.2577777777777778,-0.7777777777777778,-1.1875,-3.75,40.5625
1589380729.3852491,-0.2,-2.61,8.94,0.4811111111111111,0.2577777777777778,-0.7777777777777778,-1.1875,-3.9375,41.6875
1589380729.3978796,-0.22,-2.64,8.94,0.4744444444444445,0.23555555555555555,-0.8133333333333334,-1.0625,-3.875,41.875
1589380729.4049332,-0.21,-2.69,8.99,0.4744444444444445,0.23555555555555555,-0.8133333333333334,-1.0,-3.75,41.1875
1589380729.4169853,-0.21,-2.73,8.93,0.4744444444444445,0.23555555555555555,-0.8133333333333334,-0.875,-3.6875,40.5625
1589380729.4233696,-0.19,-2.75,8.97,0.4744444444444445,0.23555555555555555,-0.8133333333333334,-1.0,-3.625,39.5
1589380729.4356244,-0.19,-2.76,9.0,0.4744444444444445,0.23555555555555555,-0.8133333333333334,-1.0,-3.4375,38.25
1589380729.4429734,-0.2,-2.77,9.02,0.4744444444444445,0.2433333333333333,-0.8277777777777777,-0.9375,-3.5625,36.6875
1589380729.4569228,-0.28,-2.8,8.93,0.4744444444444445,0.2433333333333333,-0.8277777777777777,-0.75,-3.375,35.875
1589380729.4643593,-0.25,-2.85,8.86,0.4744444444444445,0.2433333333333333,-0.8277777777777777,-0.875,-3.3125,35.0625
1589380729.4749894,-0.26,-2.76,8.91,0.4744444444444445,0.2433333333333333,-0.8277777777777777,-1.0,-3.25,34.25
1589380729.4904315,-0.28,-2.79,8.94,0.4744444444444445,0.2433333333333333,-0.8277777777777777,-0.9375,-2.875,33.6875
1589380729.4964824,-0.29,-2.8,8.94,0.4355555555555555,0.2088888888888889,-0.8711111111111111,-1.1875,-2.875,33.0
1589380729.5061796,-0.27,-2.83,8.95,0.4355555555555555,0.2088888888888889,-0.8711111111111111,-0.75,-2.8125,32.1875
1589380729.5137048,-0.29,-2.85,8.89,0.4355555555555555,0.2088888888888889,-0.8711111111111111,-0.8125,-3.125,31.8125
1589380729.528876,-0.29,-2.92,8.96,0.4355555555555555,0.2088888888888889,-0.8711111111111111,-0.8125,-3.0625,31.125
1589380729.5361722,-0.33,-2.9,8.95,0.4355555555555555,0.2088888888888889,-0.8711111111111111,-1.0,-3.0,30.125
1589380729.5488734,-0.31,-2.89,8.98,0.3888888888888889,0.16333333333333333,-0.8633333333333333,-0.9375,-2.9375,29.4375
1589380729.5560253,-0.32,-2.9,8.99,0.3888888888888889,0.16333333333333333,-0.8633333333333333,-0.8125,-2.75,28.375
1589380729.5679376,-0.35,-2.93,8.85,0.3888888888888889,0.16333333333333333,-0.8633333333333333,-0.75,-2.625,27.375
1589380729.5741644,-0.35,-2.93,8.92,0.3888888888888889,0.16333333333333333,-0.8633333333333333,-0.875,-2.125,26.1875
1589380729.586335,-0.36,-2.99,8.92,0.3888888888888889,0.16333333333333333,-0.8633333333333333,-0.875,-2.125,25.1875
1589380729.5944488,-0.35,-2.99,8.94,0.3511111111111111,0.08888888888888889,-0.8844444444444445,-0.8125,-2.125,24.25
1589380729.6085825,-0.38,-2.97,8.92,0.3511111111111111,0.08888888888888889,-0.8844444444444445,-0.9375,-2.0,23.0625
1589380729.6147244,-0.39,-2.94,8.86,0.3511111111111111,0.08888888888888889,-0.8844444444444445,-0.875,-1.875,22.0
1589380729.6252234,-0.41,-2.97,8.9,0.3511111111111111,0.08888888888888889,-0.8844444444444445,-0.8125,-2.125,21.25
1589380729.6365585,-0.42,-3.01,8.95,0.3511111111111111,0.08888888888888889,-0.8844444444444445,-1.0625,-2.25,20.75
1589380729.6440926,-0.43,-3.01,8.98,0.3388888888888889,0.008888888888888889,-0.8277777777777777,-1.125,-2.0,19.9375
1589380729.6541722,-0.45,-3.02,8.97,0.3388888888888889,0.008888888888888889,-0.8277777777777777,-1.125,-1.8125,19.0625
1589380729.664531,-0.46,-3.03,8.86,0.3388888888888889,0.008888888888888889,-0.8277777777777777,-1.0625,-1.8125,18.5
1589380729.675013,-0.47,-3.01,8.89,0.3388888888888889,0.008888888888888889,-0.8277777777777777,-1.25,-1.5625,17.9375
1589380729.6868494,-0.45,-3.08,8.99,0.3388888888888889,0.008888888888888889,-0.8277777777777777,-1.3125,-1.375,17.4375
1589380729.6939914,-0.5,-3.22,8.86,0.36,-0.03888888888888889,-0.7777777777777778,-1.4375,-1.625,16.6875
1589380729.7043247,-0.57,-3.15,8.86,0.36,-0.03888888888888889,-0.7777777777777778,-1.875,-1.3125,15.6875
1589380729.715587,-0.53,-3.12,8.81,0.36,-0.03888888888888889,-0.7777777777777778,-1.875,-1.0625,15.0
1589380729.727645,-0.52,-3.2,8.83,0.36,-0.03888888888888889,-0.7777777777777778,-1.75,-1.25,15.3125
1589380729.7372599,-0.53,-3.24,8.9,0.36,-0.03888888888888889,-0.7777777777777778,-1.8125,-1.25,15.0625
1589380729.7441485,-0.59,-3.26,8.93,0.4155555555555556,-0.03333333333333333,-0.7,-1.875,-0.9375,14.75
1589380729.7588513,-0.65,-3.29,8.9,0.4155555555555556,-0.03333333333333333,-0.7,-1.9375,-0.8125,14.875
1589380729.7649164,-0.66,-3.27,8.83,0.4155555555555556,-0.03333333333333333,-0.7,-1.6875,-0.75,15.3125
1589380729.7775526,-0.68,-3.27,8.84,0.4155555555555556,-0.03333333333333333,-0.7,-1.6875,-0.625,16.375
1589380729.7872488,-0.67,-3.05,8.98,0.4155555555555556,-0.03333333333333333,-0.7,-1.8125,-0.5625,17.5
1589380729.798764,-0.69,-3.02,8.92,0.4633333333333333,-0.01888888888888889,-0.6711111111111111,-1.9375,-0.875,19.125
1589380729.805347,-0.63,-3.37,8.87,0.4633333333333333,-0.01888888888888889,-0.6711111111111111,-1.375,-0.9375,21.9375
1589380729.8151286,-0.55,-3.1,8.81,0.4633333333333333,-0.01888888888888889,-0.6711111111111111,-1.8125,-1.75,22.3125
1589380729.8250124,-0.52,-3.17,8.89,0.4633333333333333,-0.01888888888888889,-0.6711111111111111,-1.25,-0.8125,21.5
1589380729.8373775,-0.61,-3.21,8.91,0.4633333333333333,-0.01888888888888889,-0.6711111111111111,-1.375,-1.25,19.0625
1589380729.845209,-0.69,-3.18,8.87,0.4977777777777778,0.015555555555555557,-0.6711111111111111,-1.25,-0.8125,17.4375
1589380729.8572078,-0.75,-3.23,8.89,0.4977777777777778,0.015555555555555557,-0.6711111111111111,-1.1875,-0.9375,17.375
1589380729.8660202,-0.67,-3.15,8.85,0.4977777777777778,0.015555555555555557,-0.6711111111111111,-1.0,-1.1875,18.125
1589380729.878256,-0.66,-3.1,8.88,0.4977777777777778,0.015555555555555557,-0.6711111111111111,-1.0625,-1.0625,18.3125
1589380729.8898792,-0.69,-3.12,8.95,0.4977777777777778,0.015555555555555557,-0.6711111111111111,-1.125,-1.0625,17.1875
1589380729.8969696,-0.72,-3.1,8.97,0.5422222222222223,0.042222222222222223,-0.6433333333333333,-0.6875,-1.0,16.0
1589380729.9110208,-0.76,-3.11,8.97,0.5422222222222223,0.042222222222222223,-0.6433333333333333,-0.75,-0.875,15.4375
1589380729.9169474,-0.75,-3.09,8.84,0.5422222222222223,0.042222222222222223,-0.6433333333333333,-0.6875,-1.0,15.5
1589380729.9303071,-0.77,-3.05,8.92,0.5422222222222223,0.042222222222222223,-0.6433333333333333,-0.4375,-1.1875,15.625
1589380729.9378822,-0.79,-3.06,8.88,0.5422222222222223,0.042222222222222223,-0.6433333333333333,-0.4375,-1.0,16.0
1589380729.9489682,-0.82,-3.06,8.97,0.6288888888888889,0.06333333333333334,-0.7,-0.4375,-1.0,16.0625
1589380729.9557605,-0.81,-2.99,8.93,0.6288888888888889,0.06333333333333334,-0.7,-0.1875,-1.0625,16.4375
1589380729.9691956,-0.86,-3.06,8.87,0.6288888888888889,0.06333333333333334,-0.7,-0.1875,-1.125,17.4375
1589380729.9757786,-0.94,-3.14,8.91,0.6288888888888889,0.06333333333333334,-0.7,-0.0625,-1.3125,19.25
1589380729.9879134,-0.93,-3.19,8.95,0.6288888888888889,0.06333333333333334,-0.7,0.125,-1.375,22.625
1589380729.9949028,-1.0,-3.32,8.89,0.6344444444444445,-0.03888888888888889,-0.7644444444444445,-0.0625,-1.9375,27.375
1589380730.006058,-1.03,-3.43,8.9,0.6344444444444445,-0.03888888888888889,-0.7644444444444445,-0.5625,-3.0,32.6875
1589380730.0153213,-1.0,-3.49,8.79,0.6344444444444445,-0.03888888888888889,-0.7644444444444445,-0.3125,-3.375,39.1875
1589380730.0256956,-1.03,-3.66,8.8,0.6344444444444445,-0.03888888888888889,-0.7644444444444445,-0.5,-4.0,46.0625
1589380730.0387075,-1.04,-3.83,8.86,0.6344444444444445,-0.03888888888888889,-0.7644444444444445,-0.625,-4.3125,53.0625
1589380730.0491867,-0.95,-3.82,8.87,0.5422222222222223,-0.057777777777777775,-0.6711111111111111,-0.875,-5.4375,61.0625
1589380730.0604498,-0.83,-3.73,8.89,0.5422222222222223,-0.057777777777777775,-0.6711111111111111,-1.125,-6.1875,67.3125
1589380730.066495,-0.82,-3.69,8.82,0.5422222222222223,-0.057777777777777775,-0.6711111111111111,-1.375,-6.4375,69.875
1589380730.0767431,-0.84,-3.51,8.91,0.5422222222222223,-0.057777777777777775,-0.6711111111111111,-1.625,-6.75,70.875
1589380730.0885706,-1.03,-3.54,8.94,0.5422222222222223,-0.057777777777777775,-0.6711111111111111,-1.5625,-6.625,70.125
1589380730.0969446,-1.22,-3.49,8.94,0.5044444444444445,-0.004444444444444445,-0.6711111111111111,-1.375,-6.4375,70.6875
1589380730.1052651,-1.13,-3.44,8.89,0.5044444444444445,-0.004444444444444445,-0.6711111111111111,-1.375,-6.4375,73.5
1589380730.1198895,-1.15,-3.33,8.77,0.5044444444444445,-0.004444444444444445,-0.6711111111111111,-1.5,-6.875,74.5625
1589380730.1263726,-1.25,-3.34,8.84,0.5044444444444445,-0.004444444444444445,-0.6711111111111111,-1.75,-7.125,73.5625
1589380730.1381161,-1.35,-3.17,8.98,0.5044444444444445,-0.004444444444444445,-0.6711111111111111,-1.75,-7.625,73.875
1589380730.1458812,-1.53,-3.16,8.95,0.49,0.0,-0.6711111111111111,-1.5,-7.125,74.5
1589380730.1557813,-1.39,-3.21,8.97,0.49,0.0,-0.6711111111111111,-1.6875,-7.3125,77.75
1589380730.1617732,-1.39,-3.21,8.97,0.49,0.0,-0.6711111111111111,-1.6875,-7.3125,77.75
1589380730.1683064,-1.62,-3.51,8.91,0.49,0.0,-0.6711111111111111,-1.75,-8.0625,81.5
1589380730.1792207,-1.1,-3.36,8.86,0.49,0.0,-0.6711111111111111,-1.5,-7.6875,85.5
1589380730.1908927,-0.88,-3.25,8.99,0.49,0.0,-0.6711111111111111,-1.25,-7.6875,84.6875
1589380730.198122,-1.1,-3.22,8.91,0.5155555555555555,-0.012222222222222223,-0.6855555555555556,-1.4375,-7.8125,76.8125
1589380730.2069182,-1.5,-2.93,8.89,0.5155555555555555,-0.012222222222222223,-0.6855555555555556,-1.1875,-6.6875,68.75
1589380730.2184405,-1.54,-2.86,8.9,0.5155555555555555,-0.012222222222222223,-0.6855555555555556,-1.0,-6.1875,65.6875
1589380730.2267425,-1.52,-2.78,8.97,0.5155555555555555,-0.012222222222222223,-0.6855555555555556,-1.0625,-6.75,65.875
1589380730.2384114,-1.53,-2.77,8.99,0.5155555555555555,-0.012222222222222223,-0.6855555555555556,-0.9375,-7.0625,65.3125
1589380730.2479825,-1.71,-2.91,8.97,0.5011111111111111,-0.02666666666666667,-0.6644444444444444,-0.5,-6.3125,65.0625
1589380730.256667,-1.81,-2.92,8.95,0.5011111111111111,-0.02666666666666667,-0.6644444444444444,-0.375,-6.1875,67.5625
1589380730.2698848,-1.88,-2.94,8.85,0.5011111111111111,-0.02666666666666667,-0.6644444444444444,-0.5625,-6.6875,71.3125
1589380730.2764866,-2.05,-2.84,8.91,0.5011111111111111,-0.02666666666666667,-0.6644444444444444,-1.0,-7.3125,76.5
1589380730.2930624,-1.31,-2.22,9.28,0.5011111111111111,-0.02666666666666667,-0.6644444444444444,-1.25,-8.5,84.375
1589380730.2982574,-2.62,-2.71,9.14,0.4844444444444445,-0.05111111111111112,-0.6788888888888889,-1.0625,-9.875,91.875
1589380730.3090765,0.52,-2.53,8.14,0.4844444444444445,-0.05111111111111112,-0.6788888888888889,-3.0625,-10.3125,90.25
1589380730.3167384,-2.61,-2.75,8.74,0.4844444444444445,-0.05111111111111112,-0.6788888888888889,-0.1875,-7.625,76.0
1589380730.3272727,-0.89,-2.79,9.08,0.4844444444444445,-0.05111111111111112,-0.6788888888888889,-0.875,-5.0,69.75
1589380730.338505,-1.58,-2.69,8.98,0.4844444444444445,-0.05111111111111112,-0.6788888888888889,-0.9375,-8.3125,76.25
1589380730.347168,-1.66,-2.69,9.11,0.49,-0.09,-0.7066666666666667,-1.0,-6.4375,68.3125
1589380730.3583865,-1.53,-2.64,8.91,0.49,-0.09,-0.7066666666666667,-0.375,-5.75,65.4375
1589380730.3703506,-1.68,-2.6,8.91,0.49,-0.09,-0.7066666666666667,-1.125,-6.25,60.9375
1589380730.3776474,-1.61,-2.58,8.89,0.49,-0.09,-0.7066666666666667,-0.375,-4.9375,55.0
1589380730.3899837,-1.72,-2.54,9.04,0.49,-0.09,-0.7066666666666667,-0.5625,-4.8125,49.625
1589380730.3971088,-1.7,-2.48,9.0,0.5077777777777778,-0.16333333333333333,-0.7211111111111111,-0.5,-4.25,43.25
1589380730.408918,-1.71,-2.48,9.05,0.5077777777777778,-0.16333333333333333,-0.7211111111111111,-0.5,-3.6875,38.9375
1589380730.4206018,-1.82,-2.49,8.87,0.5077777777777778,-0.16333333333333333,-0.7211111111111111,-0.3125,-3.25,34.375
1589380730.4270911,-2.09,-2.55,8.97,0.5077777777777778,-0.16333333333333333,-0.7211111111111111,-0.4375,-2.875,31.75
1589380730.4438155,-2.25,-2.59,9.02,0.5077777777777778,-0.16333333333333333,-0.7211111111111111,-0.3125,-2.8125,31.6875
1589380730.4500995,-2.31,-2.62,9.05,0.5544444444444444,-0.32666666666666666,-0.7,-0.625,-3.3125,35.6875
1589380730.4577498,-2.33,-2.6,8.99,0.5544444444444444,-0.32666666666666666,-0.7,-0.75,-4.0625,42.0625
1589380730.4672158,-2.29,-2.55,8.91,0.5544444444444444,-0.32666666666666666,-0.7,-1.0,-4.75,49.9375
1589380730.478633,-2.18,-2.49,8.91,0.5544444444444444,-0.32666666666666666,-0.7,-1.25,-5.8125,58.25
1589380730.4906802,-2.13,-2.53,9.06,0.5544444444444444,-0.32666666666666666,-0.7,-1.5,-6.5625,65.375
1589380730.5015984,-1.79,-2.68,9.03,0.8488888888888889,-0.9544444444444444,-0.3566666666666667,-1.25,-6.8125,70.125
1589380730.5083795,-1.38,-2.6,9.12,0.8488888888888889,-0.9544444444444444,-0.3566666666666667,-2.25,-8.125,71.5
1589380730.5201395,-1.14,-2.49,8.79,0.8488888888888889,-0.9544444444444444,-0.3566666666666667,-1.0625,-5.5,67.9375
1589380730.5281727,-1.06,-2.54,8.99,0.8488888888888889,-0.9544444444444444,-0.3566666666666667,-0.25,-4.3125,59.0625
1589380730.540224,-1.17,-2.66,9.05,0.8488888888888889,-0.9544444444444444,-0.3566666666666667,-0.75,-4.1875,45.875
1589380730.548124,-0.97,-2.4,8.98,1.0044444444444445,-0.5011111111111111,-0.6766666666666666,-0.3125,-1.0625,29.875
1589380730.5579085,-0.56,-2.26,9.04,1.0044444444444445,-0.5011111111111111,-0.6766666666666666,0.75,0.3125,11.6875
1589380730.5701773,-0.7,-2.41,8.9,1.0044444444444445,-0.5011111111111111,-0.6766666666666666,-0.25,-1.8125,-8.3125
1589380730.5783687,-0.76,-2.51,8.93,1.0044444444444445,-0.5011111111111111,-0.6766666666666666,1.125,2.4375,-28.75
1589380730.5946248,-0.78,-2.65,9.0,1.0044444444444445,-0.5011111111111111,-0.6766666666666666,1.6875,4.5,-49.625
1589380730.600345,-0.78,-2.75,8.93,0.5822222222222222,-0.21666666666666667,-0.7122222222222222,1.9375,6.4375,-70.0625
1589380730.608393,-0.81,-3.0,8.96,0.5822222222222222,-0.21666666666666667,-0.7122222222222222,2.1875,8.125,-89.375
1589380730.620386,-0.88,-3.15,8.83,0.5822222222222222,-0.21666666666666667,-0.7122222222222222,2.9375,9.6875,-106.5625
1589380730.6322882,-0.96,-3.19,8.9,0.5822222222222222,-0.21666666666666667,-0.7122222222222222,3.1875,11.25,-122.4375
1589380730.6400244,-0.93,-3.26,8.99,0.5822222222222222,-0.21666666666666667,-0.7122222222222222,3.5,13.125,-135.875
1589380730.6526465,-0.85,-3.38,8.94,0.4866666666666667,-0.13333333333333333,-0.7122222222222222,4.25,15.0625,-159.375
1589380730.6594028,-0.84,-3.63,8.92,0.4866666666666667,-0.13333333333333333,-0.7122222222222222,4.25,15.0625,-159.375
1589380730.6704981,-0.89,-3.8,8.82,0.4866666666666667,-0.13333333333333333,-0.7122222222222222,4.6875,17.9375,-185.125
1589380730.678612,-1.14,-4.06,8.86,0.4866666666666667,-0.13333333333333333,-0.7122222222222222,5.0,18.75,-196.875
1589380730.6903732,-1.22,-4.11,8.9,0.4866666666666667,-0.13333333333333333,-0.7122222222222222,5.25,19.6875,-205.75
1589380730.6976285,-1.27,-4.11,8.79,0.4833333333333333,-0.05666666666666665,-0.7266666666666667,5.5625,20.125,-210.0625
1589380730.7091615,-1.27,-4.11,8.79,0.4833333333333333,-0.05666666666666665,-0.7266666666666667,5.5625,20.125,-210.0625
1589380730.7184176,-1.22,-3.94,8.8,0.4833333333333333,-0.05666666666666665,-0.7266666666666667,5.25,19.9375,-212.0625
1589380730.7294755,-1.26,-3.91,8.82,0.4833333333333333,-0.05666666666666665,-0.7266666666666667,5.3125,20.0,-212.375
1589380730.745949,-1.4,-4.03,8.87,0.4833333333333333,-0.05666666666666665,-0.7266666666666667,5.5625,20.0625,-209.3125
1589380730.751631,-1.55,-4.36,8.87,0.5166666666666667,0.013333333333333334,-0.6844444444444444,5.4375,19.875,-202.5
1589380730.758891,-1.63,-4.49,8.85,0.5166666666666667,0.013333333333333334,-0.6844444444444444,5.0625,18.75,-193.25
1589380730.7712064,-1.64,-4.4,8.71,0.5166666666666667,0.013333333333333334,-0.6844444444444444,5.125,17.5625,-181.125
1589380730.7812927,-1.64,-4.32,8.78,0.5166666666666667,0.013333333333333334,-0.6844444444444444,4.875,15.8125,-165.9375
1589380730.7907135,-6.99,5.45,3.81,0.5166666666666667,0.013333333333333334,-0.6844444444444444,-26.3125,52.4375,-203.75
1589380730.7978506,3.49,3.02,0.57,0.5188888888888888,0.12222222222222222,-0.6622222222222223,-33.5,63.3125,-260.5625
1589380730.8087132,-0.85,-1.19,-0.95,0.5188888888888888,0.12222222222222222,-0.6622222222222223,-25.9375,35.0,-282.0625
1589380730.8140569,-0.85,-1.19,-0.95,0.5188888888888888,0.12222222222222222,-0.6622222222222223,-25.9375,35.0,-282.0625
1589380730.8247342,1.2,-1.41,10.79,0.5188888888888888,0.12222222222222222,-0.6622222222222223,39.25,-43.875,-272.0625
1589380730.8315039,-1.94,-0.36,11.13,0.5188888888888888,0.12222222222222222,-0.6622222222222223,63.3125,29.625,-249.25
1589380730.8410456,-2.07,-0.56,4.61,0.5188888888888888,0.12222222222222222,-0.6622222222222223,7.1875,35.8125,-217.0
1589380730.8486733,-0.7,-0.93,11.21,0.5044444444444445,0.2488888888888889,-0.6466666666666666,-0.125,9.625,-185.0
1589380730.8598256,-1.66,0.56,8.83,0.5044444444444445,0.2488888888888889,-0.6466666666666666,3.625,14.625,-154.5
1589380730.86903,-0.76,0.4,9.56,0.5044444444444445,0.2488888888888889,-0.6466666666666666,2.75,9.1875,-113.875
1589380730.879176,-0.97,0.4,8.89,0.5044444444444445,0.2488888888888889,-0.6466666666666666,2.875,8.4375,-79.5
1589380730.8916109,0.37,-0.08,9.14,0.5044444444444445,0.2488888888888889,-0.6466666666666666,1.375,4.0,-39.625
1589380730.9026532,0.99,-1.46,9.14,0.4688888888888889,0.31222222222222223,-0.6466666666666666,-1.625,-1.5,-7.375
1589380730.9091475,0.22,-2.76,9.46,0.4688888888888889,0.31222222222222223,-0.6466666666666666,-1.75,-1.3125,11.125
1589380730.9206204,-0.15,-2.61,8.52,0.4688888888888889,0.31222222222222223,-0.6466666666666666,0.0,-0.375,24.375
1589380730.9314704,0.14,-2.68,9.02,0.4688888888888889,0.31222222222222223,-0.6466666666666666,-0.5,-3.25,30.0
1589380730.9414318,0.09,-2.77,8.93,0.4688888888888889,0.31222222222222223,-0.6466666666666666,-0.25,-2.8125,28.5
1589380730.9543052,0.03,-2.88,9.09,0.4511111111111111,0.3388888888888889,-0.6611111111111111,-0.625,-2.6875,25.4375
1589380730.9608116,-0.14,-2.82,8.78,0.4511111111111111,0.3388888888888889,-0.6611111111111111,-0.4375,-1.6875,25.5625
1589380730.9747653,-0.29,-2.94,9.02,0.4511111111111111,0.3388888888888889,-0.6611111111111111,-0.625,-2.8125,26.9375
1589380730.9813983,-0.37,-2.95,8.85,0.4511111111111111,0.3388888888888889,-0.6611111111111111,-0.5,-2.75,30.6875
1589380730.9936974,-0.35,-2.98,9.01,0.4511111111111111,0.3388888888888889,-0.6611111111111111,-0.5,-3.3125,36.4375
1589380730.9997196,-0.28,-3.2,9.0,0.4622222222222222,0.3422222222222222,-0.6377777777777778,-1.1875,-3.625,42.3125
1589380731.0108278,-0.18,-3.16,8.85,0.4622222222222222,0.3422222222222222,-0.6377777777777778,-1.375,-4.3125,46.75
1589380731.02049,-0.2,-3.16,8.79,0.4622222222222222,0.3422222222222222,-0.6377777777777778,-1.125,-4.4375,49.375
1589380731.03429,-0.27,-3.08,8.87,0.4622222222222222,0.3422222222222222,-0.6377777777777778,-1.0,-4.75,51.4375
1589380731.0426662,-0.43,-3.07,8.98,0.4622222222222222,0.3422222222222222,-0.6377777777777778,-1.0,-5.0625,54.125
1589380731.0544114,-0.41,-3.17,9.06,0.4777777777777778,0.3233333333333333,-0.6522222222222223,-1.125,-5.5625,58.6875
1589380731.0611198,-0.34,-3.13,8.95,0.4777777777777778,0.3233333333333333,-0.6522222222222223,-1.75,-6.0,62.375
1589380731.0708716,-0.3,-3.12,8.78,0.4777777777777778,0.3233333333333333,-0.6522222222222223,-1.9375,-6.625,64.25
1589380731.081029,-0.36,-3.13,8.86,0.4777777777777778,0.3233333333333333,-0.6522222222222223,-1.5625,-6.4375,65.4375
1589380731.0916722,-0.34,-3.15,8.99,0.4777777777777778,0.3233333333333333,-0.6522222222222223,-1.25,-6.5625,66.4375
1589380731.1054895,0.42,-3.91,8.86,0.4833333333333333,0.32,-0.6444444444444445,-0.125,-7.8125,63.0
1589380731.1117804,-0.56,-1.47,7.25,0.4833333333333333,0.32,-0.6444444444444445,10.9375,-9.0625,-22.3125
1589380731.1260874,-0.4,1.17,9.26,0.4833333333333333,0.32,-0.6444444444444445,9.125,18.375,-48.125
1589380731.1321356,-1.05,-1.65,8.91,0.4833333333333333,0.32,-0.6444444444444445,1.1875,4.1875,-33.5625
1589380731.1431649,-0.54,-3.03,9.27,0.4833333333333333,0.32,-0.6444444444444445,-0.0625,0.375,-12.5625
1589380731.150219,-0.24,-3.62,8.72,0.48,0.30666666666666664,-0.6588888888888889,1.0,1.1875,2.25
1589380731.1564832,-0.24,-3.62,8.72,0.48,0.30666666666666664,-0.6588888888888889,1.0,1.1875,2.25
1589380731.1700902,-0.61,-1.2,8.94,0.48,0.30666666666666664,-0.6588888888888889,-0.0625,0.9375,-5.8125
1589380731.1757505,-0.61,-1.2,8.94,0.48,0.30666666666666664,-0.6588888888888889,-0.0625,0.9375,-5.8125
1589380731.1865337,-0.43,-4.06,8.77,0.48,0.30666666666666664,-0.6588888888888889,0.0625,0.5,0.0625
1589380731.1929755,-0.48,-4.04,8.87,0.48,0.30666666666666664,-0.6588888888888889,0.1875,-0.5625,0.125
1589380731.2028904,-0.49,-4.02,8.94,0.4988888888888889,0.3,-0.6444444444444445,0.375,0.125,0.125
1589380731.2109158,-0.5,-4.07,8.82,0.4988888888888889,0.3,-0.6444444444444445,-0.125,-0.0625,0.0
1589380731.221239,-0.5,-4.11,8.73,0.4988888888888889,0.3,-0.6444444444444445,-0.0625,0.25,0.125
1589380731.231919,-0.47,-4.01,8.79,0.4988888888888889,0.3,-0.6444444444444445,0.0625,0.25,-0.125
1589380731.2450233,-0.48,-4.1,8.85,0.4988888888888889,0.3,-0.6444444444444445,0.0,0.0625,0.125
1589380731.2520595,-0.47,-4.04,8.93,0.4988888888888889,0.2933333333333333,-0.6444444444444445,0.1875,-0.0625,0.125
1589380731.2637374,-0.51,-4.05,8.87,0.4988888888888889,0.2933333333333333,-0.6444444444444445,0.0,-0.1875,0.0625
1589380731.2716098,-0.47,-4.06,8.76,0.4988888888888889,0.2933333333333333,-0.6444444444444445,-0.375,0.0,-0.125
1589380731.2840571,-0.49,-4.1,8.78,0.4988888888888889,0.2933333333333333,-0.6444444444444445,-0.1875,0.0,-0.0625
1589380731.298404,-0.46,-4.05,8.83,0.4988888888888889,0.2933333333333333,-0.6444444444444445,0.1875,0.0,0.0
1589380731.3044765,-0.47,-4.03,8.91,0.4844444444444445,0.3,-0.6588888888888889,0.3125,-0.0625,-0.0625
1589380731.3160315,-0.5,-4.01,8.89,0.4844444444444445,0.3,-0.6588888888888889,0.0625,0.0625,0.0625
1589380731.3222587,-0.49,-4.05,8.77,0.4844444444444445,0.3,-0.6588888888888889,-0.0625,0.0,0.0625
1589380731.3358738,-0.49,-4.08,8.8,0.4844444444444445,0.3,-0.6588888888888889,-0.375,0.1875,0.0625
1589380731.344625,-0.49,-4.06,8.86,0.4844444444444445,0.3,-0.6588888888888889,0.0,0.0,-0.0625
1589380731.3541908,-0.5,-4.05,8.85,0.4844444444444445,0.30666666666666664,-0.6522222222222223,-0.1875,-0.125,0.0625
1589380731.3625536,-0.51,-4.02,8.8,0.4844444444444445,0.30666666666666664,-0.6522222222222223,-0.0625,0.0,-0.0625
1589380731.3726213,-0.47,-4.06,8.76,0.4844444444444445,0.30666666666666664,-0.6522222222222223,-0.3125,-0.125,0.125
1589380731.3821163,-0.47,-4.04,8.8,0.4844444444444445,0.30666666666666664,-0.6522222222222223,-0.3125,-0.0625,0.0
1589380731.3959837,-0.48,-4.06,8.82,0.4844444444444445,0.30666666666666664,-0.6522222222222223,0.0,-0.0625,0.0625
1589380731.4026065,-0.49,-4.03,8.88,0.4988888888888889,0.30666666666666664,-0.6311111111111111,0.1875,-0.1875,0.0
1589380731.412627,-0.46,-4.04,8.88,0.4988888888888889,0.30666666666666664,-0.6311111111111111,0.1875,0.0,0.0
1589380731.422752,-0.46,-4.02,8.79,0.4988888888888889,0.30666666666666664,-0.6311111111111111,-0.0625,0.125,0.0625
1589380731.4339714,-0.47,-4.07,8.81,0.4988888888888889,0.30666666666666664,-0.6311111111111111,-0.3125,-0.0625,-0.125
1589380731.4505596,-0.46,-4.06,8.83,0.4988888888888889,0.30666666666666664,-0.6311111111111111,-0.3125,0.1875,0.25
1589380731.4558823,-0.47,-4.04,8.85,0.4922222222222222,0.30666666666666664,-0.6355555555555555,0.0625,0.0,0.125
1589380731.4680429,-0.48,-4.04,8.9,0.4922222222222222,0.30666666666666664,-0.6355555555555555,0.125,0.0,0.0625
1589380731.4748054,-0.49,-4.05,8.77,0.4922222222222222,0.30666666666666664,-0.6355555555555555,-0.0625,0.0625,0.125
1589380731.4820428,-0.5,-4.06,8.8,0.4922222222222222,0.30666666666666664,-0.6355555555555555,-0.1875,0.0,0.0
1589380731.494719,-0.46,-4.06,8.82,0.4922222222222222,0.30666666666666664,-0.6355555555555555,-0.1875,0.0625,0.0625
1589380731.5075185,-0.47,-4.02,8.89,0.48,0.2933333333333333,-0.6588888888888889,0.25,-0.0625,0.0625
1589380731.5144525,-0.48,-4.03,8.86,0.48,0.2933333333333333,-0.6588888888888889,0.1875,-0.0625,0.0625
1589380731.5261304,-0.47,-4.04,8.8,0.48,0.2933333333333333,-0.6588888888888889,-0.0625,0.0,0.0
1589380731.5331426,-0.5,-4.06,8.78,0.48,0.2933333333333333,-0.6588888888888889,-0.125,0.0625,0.125
1589380731.544984,-0.47,-4.06,8.82,0.48,0.2933333333333333,-0.6588888888888889,-0.25,0.0625,0.0625
1589380731.5529428,-0.46,-4.05,8.88,0.5111111111111111,0.30666666666666664,-0.6311111111111111,-0.1875,0.125,-0.0625
1589380731.562993,-0.47,-4.04,8.89,0.5111111111111111,0.30666666666666664,-0.6311111111111111,0.125,0.0625,-0.125
1589380731.5734472,-0.48,-4.04,8.77,0.5111111111111111,0.30666666666666664,-0.6311111111111111,0.125,-0.0625,0.0
1589380731.5831525,-0.46,-4.03,8.82,0.5111111111111111,0.30666666666666664,-0.6311111111111111,-0.0625,0.0625,0.0
1589380731.5952175,-0.47,-4.06,8.82,0.5111111111111111,0.30666666666666664,-0.6311111111111111,-0.0625,0.1875,0.0
1589380731.6056585,-0.49,-4.04,8.87,0.5066666666666667,0.32,-0.6588888888888889,0.0625,0.125,-0.0625
1589380731.6158955,-0.47,-4.05,8.85,0.5066666666666667,0.32,-0.6588888888888889,0.0,0.0,0.0625
1589380731.625739,-0.46,-4.04,8.78,0.5066666666666667,0.32,-0.6588888888888889,0.125,-0.25,0.0
1589380731.6385362,-0.48,-4.04,8.83,0.5066666666666667,0.32,-0.6588888888888889,-0.25,0.125,0.0625
1589380731.6456182,-0.48,-4.02,8.82,0.5066666666666667,0.32,-0.6588888888888889,-0.125,0.25,0.0625
1589380731.6588414,-0.47,-4.05,8.88,0.4922222222222222,0.3144444444444445,-0.6311111111111111,-0.1875,0.0625,0.0
1589380731.6656945,-0.47,-4.06,8.87,0.4922222222222222,0.3144444444444445,-0.6311111111111111,0.0625,-0.0625,0.125
1589380731.6748722,-0.49,-4.04,8.78,0.4922222222222222,0.3144444444444445,-0.6311111111111111,0.1875,0.0,0.1875
1589380731.6828938,-0.48,-4.03,8.81,0.4922222222222222,0.3144444444444445,-0.6311111111111111,0.0625,0.0625,0.0
1589380731.695699,-0.47,-4.05,8.83,0.4922222222222222,0.3144444444444445,-0.6311111111111111,-0.25,0.25,-0.125
1589380731.7036653,-0.49,-4.06,8.85,0.4844444444444445,0.3,-0.6522222222222223,-0.125,-0.125,-0.0625
1589380731.7175152,-0.48,-4.05,8.87,0.4844444444444445,0.3,-0.6522222222222223,-0.125,0.0625,-0.0625
1589380731.7233446,-0.48,-4.04,8.79,0.4844444444444445,0.3,-0.6522222222222223,0.125,0.0,0.0
1589380731.7337534,-0.48,-4.04,8.82,0.4844444444444445,0.3,-0.6522222222222223,-0.0625,-0.125,0.0625
1589380731.7463608,-0.5,-4.03,8.85,0.4844444444444445,0.3,-0.6522222222222223,-0.125,0.0,0.0625
1589380731.758144,-0.47,-4.05,8.85,0.4922222222222222,0.30666666666666664,-0.6588888888888889,-0.0625,0.0,-0.125
1589380731.766776,-0.48,-4.05,8.82,0.4922222222222222,0.30666666666666664,-0.6588888888888889,-0.0625,-0.0625,0.0
1589380731.7743044,-0.49,-4.02,8.78,0.4922222222222222,0.30666666666666664,-0.6588888888888889,0.0,0.3125,-0.0625
1589380731.7845552,-0.46,-4.04,8.82,0.4922222222222222,0.30666666666666664,-0.6588888888888889,0.125,0.125,0.0625
1589380731.7963936,-0.47,-4.04,8.86,0.4922222222222222,0.30666666666666664,-0.6588888888888889,-0.125,0.125,0.0
1589380731.8036654,-0.47,-4.08,8.87,0.48,0.3144444444444445,-0.6522222222222223,-0.1875,0.0,0.1875
1589380731.8148544,-0.47,-4.06,8.88,0.48,0.3144444444444445,-0.6522222222222223,-0.125,-0.0625,0.0
1589380731.8283875,-0.49,-4.04,8.79,0.48,0.3144444444444445,-0.6522222222222223,0.125,-0.0625,-0.125
1589380731.834356,-0.47,-4.04,8.82,0.48,0.3144444444444445,-0.6522222222222223,0.0,0.0625,0.0
1589380731.8468814,-0.48,-4.06,8.88,0.48,0.3144444444444445,-0.6522222222222223,0.0,-0.0625,0.1875
1589380731.8541086,-0.47,-4.04,8.85,0.48,0.3144444444444445,-0.6444444444444445,-0.0625,-0.0625,0.0
1589380731.8680155,-0.48,-4.05,8.82,0.48,0.3144444444444445,-0.6444444444444445,-0.125,0.125,0.0625
1589380731.8745778,-0.48,-4.04,8.76,0.48,0.3144444444444445,-0.6444444444444445,0.0625,0.0,0.125
1589380731.88661,-0.48,-4.04,8.84,0.48,0.3144444444444445,-0.6444444444444445,0.125,0.125,0.0
1589380731.896453,-0.48,-4.04,8.84,0.48,0.3144444444444445,-0.6444444444444445,-0.125,0.0,0.0
1589380731.9074333,-0.49,-4.06,8.87,0.48,0.30666666666666664,-0.6444444444444445,-0.125,-0.0625,0.0
1589380731.9141922,-0.47,-4.08,8.83,0.48,0.30666666666666664,-0.6444444444444445,0.0625,-0.125,0.0
1589380731.9244995,-0.48,-4.04,8.76,0.48,0.30666666666666664,-0.6444444444444445,0.0625,0.0,0.0
1589380731.9346187,-0.49,-4.04,8.84,0.48,0.30666666666666664,-0.6444444444444445,0.125,0.0625,-0.0625
1589380731.9477794,-0.49,-4.05,8.85,0.48,0.30666666666666664,-0.6444444444444445,0.0625,0.125,0.0
1589380731.9547176,-0.48,-4.04,8.9,0.4922222222222222,0.30666666666666664,-0.6588888888888889,0.0,0.0,0.0
1589380731.965082,-0.49,-4.07,8.9,0.4922222222222222,0.30666666666666664,-0.6588888888888889,-0.125,0.0625,0.0625
1589380731.9750679,-0.48,-4.05,8.75,0.4922222222222222,0.30666666666666664,-0.6588888888888889,-0.125,0.0,0.125
1589380731.98517,-0.49,-4.04,8.81,0.4922222222222222,0.30666666666666664,-0.6588888888888889,0.0,-0.1875,0.0625
1589380731.9968615,-0.47,-4.06,8.85,0.4922222222222222,0.30666666666666664,-0.6588888888888889,0.0625,0.0,-0.125
1589380732.0053089,-0.47,-4.04,8.89,0.4844444444444445,0.30666666666666664,-0.6444444444444445,0.0,0.0,-0.0625
1589380732.0187464,-0.47,-4.05,8.85,0.4844444444444445,0.30666666666666664,-0.6444444444444445,0.0,-0.0625,0.0625
1589380732.0248568,-0.5,-4.05,8.76,0.4844444444444445,0.30666666666666664,-0.6444444444444445,0.0,-0.0625,0.0
1589380732.034909,-0.49,-4.05,8.8,0.4844444444444445,0.30666666666666664,-0.6444444444444445,0.125,0.0,0.0625
1589380732.0474062,-0.48,-4.04,8.88,0.4844444444444445,0.30666666666666664,-0.6444444444444445,0.125,0.0,0.1875
1589380732.055267,-0.47,-4.04,8.87,0.48,0.30666666666666664,-0.6522222222222223,-0.0625,-0.125,0.0625
1589380732.0651653,-0.47,-4.03,8.88,0.48,0.30666666666666664,-0.6522222222222223,-0.1875,-0.125,0.0625
1589380732.0755787,-0.48,-4.06,8.8,0.48,0.30666666666666664,-0.6522222222222223,-0.25,0.125,0.1875
1589380732.0851266,-0.47,-4.06,8.8,0.48,0.30666666666666664,-0.6522222222222223,0.0,0.0625,-0.0625
1589380732.097525,-0.48,-4.06,8.87,0.48,0.30666666666666664,-0.6522222222222223,0.0,0.0,0.0
1589380732.1056142,-0.48,-4.04,8.9,0.4988888888888889,0.2933333333333333,-0.6355555555555555,0.125,0.125,0.0
1589380732.115601,-0.46,-4.03,8.82,0.4988888888888889,0.2933333333333333,-0.6355555555555555,0.125,-0.0625,0.125
1589380732.1249313,-0.49,-4.06,8.78,0.4988888888888889,0.2933333333333333,-0.6355555555555555,0.0,0.0625,0.0
1589380732.1352744,-0.47,-4.05,8.81,0.4988888888888889,0.2933333333333333,-0.6355555555555555,0.125,0.0625,0.0625
1589380732.1483517,-0.49,-4.04,8.86,0.4988888888888889,0.2933333333333333,-0.6355555555555555,-0.0625,0.0,-0.0625
1589380732.155918,-0.48,-4.04,8.91,0.4988888888888889,0.3144444444444445,-0.6522222222222223,-0.0625,0.0,0.125
1589380732.170423,-0.49,-4.03,8.87,0.4988888888888889,0.3144444444444445,-0.6522222222222223,-0.125,-0.0625,0.0625
1589380732.1761134,-0.46,-4.05,8.73,0.4988888888888889,0.3144444444444445,-0.6522222222222223,-0.1875,-0.0625,0.0625
1589380732.186175,-0.47,-4.05,8.82,0.4988888888888889,0.3144444444444445,-0.6522222222222223,0.0,0.0625,-0.0625
1589380732.1979852,-0.48,-4.06,8.87,0.4988888888888889,0.3144444444444445,-0.6522222222222223,0.0625,0.0625,0.0625
1589380732.2090287,-0.5,-4.04,8.88,0.4922222222222222,0.3,-0.6522222222222223,0.1875,0.0625,0.0625
1589380732.2156346,-0.48,-4.03,8.89,0.4922222222222222,0.3,-0.6522222222222223,0.0,0.1875,0.0625
1589380732.2294607,-0.46,-4.06,8.75,0.4922222222222222,0.3,-0.6522222222222223,0.0625,0.0625,0.0625
1589380732.236184,-0.47,-4.04,8.8,0.4922222222222222,0.3,-0.6522222222222223,-0.0625,0.0625,0.0
1589380732.2486591,-0.46,-4.05,8.83,0.4922222222222222,0.3,-0.6522222222222223,0.1875,-0.0625,-0.0625
1589380732.2562695,-0.48,-4.06,8.87,0.4722222222222222,0.3,-0.6444444444444445,-0.0625,0.0,-0.0625
