time,acc_x,acc_y,acc_z,mag_x,mag_y,mag_z,gyr_x,gyr_y,gyr_z
1589380740.9756439,-0.32,-4.03,8.82,0.4933333333333334,0.25555555555555554,-0.7855555555555556,0.1875,0.3125,0.0625
1589380740.9905436,-0.3,-4.05,8.84,0.4933333333333334,0.25555555555555554,-0.7855555555555556,0.0625,0.0,0.0625
1589380740.9965992,-0.29,-4.02,8.88,0.5066666666666667,0.26222222222222225,-0.7855555555555556,0.1875,-0.0625,0.0
1589380741.0133677,-0.31,-4.03,8.86,0.5066666666666667,0.26222222222222225,-0.7855555555555556,0.0,-0.125,0.0625
1589380741.0350418,-0.3,-4.06,8.79,0.5066666666666667,0.26222222222222225,-0.7855555555555556,-0.0625,-0.1875,-0.0625
1589380741.0552802,-0.29,-4.04,8.85,0.5277777777777778,0.26222222222222225,-0.8011111111111111,-0.0625,0.0625,0.125
1589380741.0761404,-0.3,-4.05,8.79,0.5277777777777778,0.26222222222222225,-0.8011111111111111,0.0,0.375,-0.0625
1589380741.0979636,-0.31,-4.04,8.87,0.4933333333333334,0.27555555555555555,-0.7855555555555556,0.0,-0.0625,-0.0625
1589380741.110455,-0.3,-4.04,8.86,0.4933333333333334,0.27555555555555555,-0.7855555555555556,0.0,-0.1875,-0.0625
1589380741.1320086,-0.3,-4.03,8.78,0.4933333333333334,0.27555555555555555,-0.7855555555555556,-0.1875,-0.3125,0.0
1589380741.1563785,-0.24,-3.97,8.81,0.4933333333333334,0.27555555555555555,-0.7855555555555556,-0.25,-0.0625,0.0
1589380741.170359,-0.3,-4.07,8.8,0.5133333333333333,0.25555555555555554,-0.7855555555555556,-0.3125,0.25,0.0
1589380741.1964662,-0.3,-4.05,8.82,0.52,0.26222222222222225,-0.7566666666666667,-0.125,-0.1875,0.0
1589380741.2059615,-0.27,-4.05,8.79,0.52,0.26222222222222225,-0.7566666666666667,-0.0625,-0.0625,-0.125
1589380741.2260118,-0.29,-4.04,8.85,0.52,0.26222222222222225,-0.7566666666666667,0.125,-0.0625,0.0
1589380741.2387,-0.29,-4.03,8.88,0.52,0.26222222222222225,-0.7566666666666667,0.0625,0.0,0.0
1589380741.2500114,-0.3,-4.07,8.95,0.5066666666666667,0.26222222222222225,-0.7855555555555556,0.0625,0.125,0.1875
1589380741.256313,-0.3,-4.06,8.87,0.5066666666666667,0.26222222222222225,-0.7855555555555556,0.0,0.125,0.0
1589380741.2706654,-0.29,-4.07,8.79,0.5066666666666667,0.26222222222222225,-0.7855555555555556,-0.1875,0.25,0.0
1589380741.2764153,-0.28,-4.05,8.78,0.5066666666666667,0.26222222222222225,-0.7855555555555556,-0.125,-0.0625,0.125
1589380741.2902234,-0.3,-4.04,8.84,0.5066666666666667,0.26222222222222225,-0.7855555555555556,-0.125,0.0,-0.0625
1589380741.2968388,-0.31,-4.05,8.84,0.4933333333333334,0.25555555555555554,-0.7777777777777778,-0.0625,0.0,0.0625
1589380741.310936,-0.3,-4.05,8.86,0.4933333333333334,0.25555555555555554,-0.7777777777777778,0.0625,0.0625,0.0625
1589380741.3171492,-0.3,-4.05,8.77,0.4933333333333334,0.25555555555555554,-0.7777777777777778,0.125,0.0,0.0
1589380741.327412,-0.28,-4.04,8.82,0.4933333333333334,0.25555555555555554,-0.7777777777777778,-0.125,-0.1875,0.0
1589380741.3391464,-0.27,-4.04,8.88,0.4933333333333334,0.25555555555555554,-0.7777777777777778,0.125,-0.1875,0.0
1589380741.3503525,-0.29,-4.04,8.93,0.5011111111111111,0.25555555555555554,-0.7777777777777778,0.0,-0.1875,0.0625
1589380741.3570585,-0.17,-4.16,9.11,0.5011111111111111,0.25555555555555554,-0.7777777777777778,0.25,-0.0625,0.0
1589380741.368476,-0.42,-3.87,8.35,0.5011111111111111,0.25555555555555554,-0.7777777777777778,0.75,0.8125,0.125
1589380741.37673,-0.27,-4.11,8.84,0.5011111111111111,0.25555555555555554,-0.7777777777777778,1.0625,1.4375,0.25
1589380741.389692,-0.34,-4.04,8.87,0.5011111111111111,0.25555555555555554,-0.7777777777777778,0.0,0.0,0.0
1589380741.397335,-0.32,-4.04,8.87,0.5066666666666667,0.2488888888888889,-0.7922222222222223,0.375,0.25,0.125
1589380741.4077775,-0.32,-4.06,8.85,0.5066666666666667,0.2488888888888889,-0.7922222222222223,0.0625,0.125,0.0625
1589380741.4169624,-0.3,-4.05,8.74,0.5066666666666667,0.2488888888888889,-0.7922222222222223,0.0,-0.125,0.0
1589380741.4288175,-0.28,-4.04,8.88,0.5066666666666667,0.2488888888888889,-0.7922222222222223,0.0625,-0.3125,0.125
1589380741.4445398,-0.29,-4.05,8.95,0.5066666666666667,0.2488888888888889,-0.7922222222222223,0.125,-0.5625,0.0625
1589380741.450647,-0.31,-4.04,8.88,0.5066666666666667,0.25555555555555554,-0.7922222222222223,0.25,-0.5625,-0.0625
1589380741.4588768,-0.3,-4.03,8.75,0.5066666666666667,0.25555555555555554,-0.7922222222222223,0.0625,-0.1875,-0.0625
1589380741.4675293,-0.3,-4.06,8.7,0.5066666666666667,0.25555555555555554,-0.7922222222222223,0.25,0.1875,0.0
1589380741.4815323,-0.32,-4.03,8.75,0.5066666666666667,0.25555555555555554,-0.7922222222222223,0.4375,0.1875,0.0
1589380741.4904428,-0.29,-4.05,8.88,0.5066666666666667,0.25555555555555554,-0.7922222222222223,0.4375,0.1875,0.0625
1589380741.5015247,-0.3,-4.04,8.96,0.5066666666666667,0.27,-0.7922222222222223,0.4375,0.25,0.0625
1589380741.508363,-0.31,-4.07,8.92,0.5066666666666667,0.27,-0.7922222222222223,0.0625,-0.25,-0.0625
1589380741.518155,-0.31,-4.04,8.8,0.5066666666666667,0.27,-0.7922222222222223,0.1875,-0.1875,0.0625
1589380741.527599,-0.3,-4.04,8.79,0.5066666666666667,0.27,-0.7922222222222223,-0.0625,-0.4375,0.0
1589380741.5418186,-0.3,-4.05,8.9,0.5066666666666667,0.27,-0.7922222222222223,0.0625,-0.5625,-0.0625
1589380741.5479364,-0.29,-4.04,8.88,0.5133333333333333,0.2488888888888889,-0.7644444444444445,0.0625,-0.4375,0.0
1589380741.5600936,-0.28,-4.04,8.86,0.5133333333333333,0.2488888888888889,-0.7644444444444445,-0.125,-0.25,0.0
1589380741.5677214,-0.3,-4.04,8.69,0.5133333333333333,0.2488888888888889,-0.7644444444444445,0.1875,0.0,0.0
1589380741.578795,-0.29,-4.04,8.75,0.5133333333333333,0.2488888888888889,-0.7644444444444445,0.0625,0.1875,0.0625
1589380741.5948482,-0.3,-4.08,8.86,0.5133333333333333,0.2488888888888889,-0.7644444444444445,0.0625,0.1875,0.0
1589380741.600892,-0.35,-4.03,8.87,0.5133333333333333,0.2488888888888889,-0.7922222222222223,-0.0625,0.0,0.0
1589380741.6078365,-0.29,-4.06,8.99,0.5133333333333333,0.2488888888888889,-0.7922222222222223,0.1875,-0.25,0.0625
1589380741.6177905,-0.31,-4.01,8.7,0.5133333333333333,0.2488888888888889,-0.7922222222222223,-0.125,-0.5,0.0
1589380741.6321929,-0.26,-4.02,8.9,0.5133333333333333,0.2488888888888889,-0.7922222222222223,-0.0625,-0.75,-0.125
1589380741.640426,-0.28,-4.12,8.9,0.5133333333333333,0.2488888888888889,-0.7922222222222223,-0.375,-1.0,-0.125
1589380741.653662,-0.29,-4.06,8.86,0.5066666666666667,0.27,-0.7644444444444445,-0.1875,-0.4375,-0.1875
1589380741.6603332,-0.31,-4.07,8.87,0.5066666666666667,0.27,-0.7644444444444445,0.0,0.0625,0.0625
1589380741.668508,-0.31,-4.05,8.74,0.5066666666666667,0.27,-0.7644444444444445,0.1875,0.4375,0.125
1589380741.6782234,-0.32,-4.06,8.79,0.5066666666666667,0.27,-0.7644444444444445,0.0625,0.375,0.0625
1589380741.6923056,-0.3,-4.05,8.84,0.5066666666666667,0.27,-0.7644444444444445,0.125,0.4375,0.0625
1589380741.6981807,-0.3,-4.04,8.88,0.5133333333333333,0.2488888888888889,-0.7777777777777778,0.1875,-0.0625,0.0625
1589380741.7121599,-0.32,-4.04,8.9,0.5133333333333333,0.2488888888888889,-0.7777777777777778,0.125,-0.4375,-0.125
1589380741.7187786,-0.3,-4.05,8.79,0.5133333333333333,0.2488888888888889,-0.7777777777777778,0.125,-0.6875,0.0625
1589380741.7298062,-0.28,-4.04,8.82,0.5133333333333333,0.2488888888888889,-0.7777777777777778,0.0,-0.6875,-0.0625
1589380741.7463984,-0.27,-4.05,8.85,0.5133333333333333,0.2488888888888889,-0.7777777777777778,0.125,-0.4375,-0.0625
1589380741.752091,-0.3,-4.06,8.85,0.5066666666666667,0.2488888888888889,-0.7855555555555556,0.0625,-0.1875,-0.125
1589380741.7598116,-0.3,-4.04,8.87,0.5066666666666667,0.2488888888888889,-0.7855555555555556,0.0625,0.0625,0.0
1589380741.7705815,-0.33,-4.05,8.73,0.5066666666666667,0.2488888888888889,-0.7855555555555556,0.25,0.5625,0.1875
1589380741.7818651,-0.31,-4.03,8.77,0.5066666666666667,0.2488888888888889,-0.7855555555555556,0.0625,0.375,0.0625
1589380741.791325,-0.31,-4.05,8.85,0.5066666666666667,0.2488888888888889,-0.7855555555555556,0.0625,0.25,-0.0625
1589380741.8039665,-0.29,-4.04,8.88,0.5133333333333333,0.2488888888888889,-0.7711111111111111,0.125,-0.1875,-0.125
1589380741.8100936,-0.28,-4.04,8.9,0.5133333333333333,0.2488888888888889,-0.7711111111111111,0.0,-0.625,-0.1875
1589380741.8234265,-0.28,-4.05,8.79,0.5133333333333333,0.2488888888888889,-0.7711111111111111,-0.25,-1.1875,-0.3125
1589380741.8298724,-0.09,-4.28,9.25,0.5133333333333333,0.2488888888888889,-0.7711111111111111,-0.1875,-1.125,-0.5
1589380741.8416307,-0.51,-3.71,8.15,0.5133333333333333,0.2488888888888889,-0.7711111111111111,0.75,0.3125,-0.1875
1589380741.849777,-0.23,-4.16,9.11,0.4866666666666667,0.26222222222222225,-0.7855555555555556,-1.0,-1.0625,-0.25
1589380741.860059,-0.13,-4.26,9.34,0.4866666666666667,0.26222222222222225,-0.7855555555555556,-0.8125,-0.4375,-0.1875
1589380741.8696232,-0.41,-3.87,8.44,0.4866666666666667,0.26222222222222225,-0.7855555555555556,0.6875,1.75,0.125
1589380741.8824046,-0.23,-4.08,8.82,0.4866666666666667,0.26222222222222225,-0.7855555555555556,-0.5,0.5,0.125
1589380741.8924716,-0.31,-4.06,8.88,0.4866666666666667,0.26222222222222225,-0.7855555555555556,-0.625,0.4375,-0.0625
1589380741.9031048,-0.33,-4.04,8.92,0.5066666666666667,0.2433333333333333,-0.7855555555555556,-0.5625,0.0625,-0.0625
1589380741.9099298,-0.32,-4.04,8.9,0.5066666666666667,0.2433333333333333,-0.7855555555555556,-0.9375,-0.125,0.0
1589380741.91996,-0.33,-4.01,8.75,0.5066666666666667,0.2433333333333333,-0.7855555555555556,-1.0625,-0.1875,0.125
1589380741.9336429,-0.51,-3.65,8.81,0.5066666666666667,0.2433333333333333,-0.7855555555555556,-1.25,-0.3125,1.3125
1589380741.941235,-0.77,-3.02,8.92,0.5066666666666667,0.2433333333333333,-0.7855555555555556,-1.4375,-0.5625,5.5
1589380741.9486153,-0.83,-2.75,9.06,0.5011111111111111,0.2488888888888889,-0.7711111111111111,-1.4375,-1.75,16.625
1589380741.9599614,-0.62,-3.09,9.08,0.5011111111111111,0.2488888888888889,-0.7711111111111111,-1.9375,-3.875,25.9375
1589380741.9693248,-0.21,-2.55,8.9,0.5011111111111111,0.2488888888888889,-0.7711111111111111,-2.25,-4.875,29.8125
1589380741.9813054,-0.3,-2.58,9.0,0.5011111111111111,0.2488888888888889,-0.7711111111111111,-1.8125,-4.4375,28.375
1589380741.9947321,-0.33,-2.71,8.89,0.5011111111111111,0.2488888888888889,-0.7711111111111111,-1.1875,-3.25,27.5625
1589380742.0002182,-0.52,-2.72,8.98,0.5133333333333333,0.27,-0.7711111111111111,-0.875,-3.0,28.6875
1589380742.0138426,-0.57,-2.73,8.96,0.5133333333333333,0.27,-0.7711111111111111,-0.875,-3.3125,32.3125
1589380742.0205257,-0.5,-2.66,8.86,0.5133333333333333,0.27,-0.7711111111111111,-1.0,-4.0,36.3125
1589380742.0337255,-0.46,-2.58,8.94,0.5133333333333333,0.27,-0.7711111111111111,-1.125,-4.0,39.75
1589380742.0428786,-0.43,-2.7,9.02,0.5133333333333333,0.27,-0.7711111111111111,-0.9375,-4.0625,42.25
1589380742.054635,-0.45,-2.7,9.08,0.4933333333333334,0.23555555555555555,-0.7855555555555556,-1.0625,-4.1875,44.0625
1589380742.0609732,-0.46,-2.59,9.08,0.4933333333333334,0.23555555555555555,-0.7855555555555556,-0.8125,-3.9375,46.375
1589380742.0711935,-0.53,-2.68,8.88,0.4933333333333334,0.23555555555555555,-0.7855555555555556,-0.875,-3.875,49.375
1589380742.0806944,-0.49,-2.69,8.87,0.4933333333333334,0.23555555555555555,-0.7855555555555556,-1.125,-4.625,52.75
1589380742.0927176,-0.5,-2.74,8.88,0.4933333333333334,0.23555555555555555,-0.7855555555555556,-1.375,-5.0,55.25
1589380742.1000473,-0.46,-2.71,8.9,0.5011111111111111,0.2433333333333333,-0.7777777777777778,-1.3125,-5.3125,57.0625
1589380742.1106644,-0.52,-2.81,8.91,0.5011111111111111,0.2433333333333333,-0.7777777777777778,-1.3125,-5.25,58.5625
1589380742.121403,-0.55,-2.76,8.89,0.5011111111111111,0.2433333333333333,-0.7777777777777778,-1.4375,-5.6875,60.0625
1589380742.1333814,-0.51,-2.82,8.94,0.5011111111111111,0.2433333333333333,-0.7777777777777778,-1.5625,-6.1875,61.4375
1589380742.1430874,-0.43,-2.83,9.0,0.5011111111111111,0.2433333333333333,-0.7777777777777778,-1.625,-6.0625,61.875
1589380742.1509495,-0.42,-2.79,9.04,0.5011111111111111,0.20222222222222225,-0.8,-1.5,-6.0625,60.8125
1589380742.1649115,-0.41,-2.82,9.06,0.5011111111111111,0.20222222222222225,-0.8,-1.5625,-5.625,59.375
1589380742.1709495,-0.47,-2.86,8.92,0.5011111111111111,0.20222222222222225,-0.8,-1.375,-5.375,57.375
1589380742.1847448,-0.49,-2.85,8.93,0.5011111111111111,0.20222222222222225,-0.8,-1.5,-5.125,56.0625
1589380742.193902,-0.47,-2.86,8.92,0.5011111111111111,0.20222222222222225,-0.8,-1.4375,-4.8125,53.8125
1589380742.20472,-0.53,-2.82,8.92,0.4933333333333334,0.18222222222222226,-0.8133333333333334,-1.3125,-4.5625,51.625
1589380742.212757,-0.5,-2.8,8.94,0.4933333333333334,0.18222222222222226,-0.8133333333333334,-1.25,-4.375,49.6875
1589380742.2231894,-0.53,-2.79,8.84,0.4933333333333334,0.18222222222222226,-0.8133333333333334,-1.0625,-4.375,47.875
1589380742.2321696,-0.52,-2.79,8.94,0.4933333333333334,0.18222222222222226,-0.8133333333333334,-1.0625,-4.75,45.9375
1589380742.2447748,-0.55,-2.81,8.95,0.4933333333333334,0.18222222222222226,-0.8133333333333334,-1.0625,-4.3125,43.6875
1589380742.250851,-0.56,-2.85,8.99,0.4666666666666667,0.13666666666666666,-0.8422222222222222,-1.125,-4.125,41.0625
1589380742.2621946,-0.64,-2.89,8.99,0.4666666666666667,0.13666666666666666,-0.8422222222222222,-0.875,-3.5625,38.75
1589380742.2714634,-0.71,-2.97,8.91,0.4666666666666667,0.13666666666666666,-0.8422222222222222,-0.9375,-3.4375,37.75
1589380742.2817285,-0.74,-2.93,8.91,0.4666666666666667,0.13666666666666666,-0.8422222222222222,-0.8125,-3.25,37.6875
1589380742.2936034,-0.7,-2.9,8.95,0.4666666666666667,0.13666666666666666,-0.8422222222222222,-1.125,-3.3125,38.3125
1589380742.3043506,-0.73,-2.9,8.93,0.43,0.10222222222222224,-0.8133333333333334,-0.75,-3.0,38.5
1589380742.315752,-0.77,-2.94,8.92,0.43,0.10222222222222224,-0.8133333333333334,-1.0625,-3.25,38.5625
1589380742.3215928,-0.78,-2.98,8.85,0.43,0.10222222222222224,-0.8133333333333334,-0.875,-3.5625,38.875
1589380742.336087,-0.8,-3.0,8.92,0.43,0.10222222222222224,-0.8133333333333334,-1.25,-3.5625,39.0
1589380742.3439193,-0.81,-3.02,8.96,0.43,0.10222222222222224,-0.8133333333333334,-1.25,-3.75,39.375
1589380742.3519864,-0.82,-2.96,8.97,0.4155555555555556,0.027777777777777776,-0.8,-1.25,-3.875,39.9375
1589380742.3615696,-0.84,-2.99,8.91,0.4155555555555556,0.027777777777777776,-0.8,-1.25,-3.8125,40.375
1589380742.3717165,-0.83,-2.99,8.86,0.4155555555555556,0.027777777777777776,-0.8,-1.25,-3.75,41.0
1589380742.3820827,-0.85,-3.0,8.92,0.4155555555555556,0.027777777777777776,-0.8,-1.1875,-3.5625,41.4375
1589380742.3939302,-0.88,-3.03,8.93,0.4155555555555556,0.027777777777777776,-0.8,-1.1875,-3.375,41.5
1589380742.401643,-0.88,-3.05,8.95,0.3977777777777778,-0.012222222222222223,-0.7511111111111111,-1.5,-3.1875,41.625
1589380742.413551,-0.91,-3.05,8.91,0.3977777777777778,-0.012222222222222223,-0.7511111111111111,-1.375,-3.375,41.6875
1589380742.4224882,-0.88,-3.02,8.81,0.3977777777777778,-0.012222222222222223,-0.7511111111111111,-1.5625,-3.1875,41.625
1589380742.4323814,-0.91,-3.09,8.87,0.3977777777777778,-0.012222222222222223,-0.7511111111111111,-1.9375,-3.3125,41.0625
1589380742.4440935,-0.89,-3.08,8.91,0.3977777777777778,-0.012222222222222223,-0.7511111111111111,-2.0,-3.5,40.625
1589380742.454646,-0.92,-3.11,8.92,0.4155555555555556,-0.045555555555555564,-0.7233333333333334,-2.125,-3.4375,39.75
1589380742.466219,-0.9,-3.09,8.94,0.4155555555555556,-0.045555555555555564,-0.7233333333333334,-2.125,-3.375,38.625
1589380742.4722342,-1.39,-3.77,8.97,0.4155555555555556,-0.045555555555555564,-0.7233333333333334,-2.375,-2.75,37.1875
1589380742.4818573,-0.83,-2.81,8.77,0.4155555555555556,-0.045555555555555564,-0.7233333333333334,-2.0625,-3.8125,36.625
1589380742.4949026,-0.98,-3.07,8.95,0.4155555555555556,-0.045555555555555564,-0.7233333333333334,-1.5625,-1.625,36.125
1589380742.5017266,-0.89,-3.23,8.91,0.4622222222222222,-0.054444444444444434,-0.7022222222222222,-1.875,-2.0625,34.0
1589380742.5135887,-0.95,-3.19,8.9,0.4622222222222222,-0.054444444444444434,-0.7022222222222222,-2.25,-2.0625,29.5
1589380742.526531,-0.98,-3.0,8.89,0.4622222222222222,-0.054444444444444434,-0.7022222222222222,-2.25,-2.0,24.75
1589380742.5330212,-1.07,-3.02,8.9,0.4622222222222222,-0.054444444444444434,-0.7022222222222222,-1.0625,-0.3125,22.5
1589380742.5470252,-1.16,-3.19,8.96,0.4622222222222222,-0.054444444444444434,-0.7022222222222222,-1.1875,-0.9375,20.875
1589380742.5523775,-1.14,-3.2,8.9,0.4777777777777778,-0.04777777777777778,-0.6711111111111111,-1.5,-1.0,19.4375
1589380742.5652244,-1.07,-3.11,8.96,0.4777777777777778,-0.04777777777777778,-0.6711111111111111,-1.375,-1.3125,17.25
1589380742.5734375,-1.07,-3.04,8.86,0.4777777777777778,-0.04777777777777778,-0.6711111111111111,-1.1875,-0.6875,14.5
1589380742.5831795,-1.08,-3.0,8.96,0.4777777777777778,-0.04777777777777778,-0.6711111111111111,-0.9375,-0.6875,11.5
1589380742.5956712,-1.07,-3.04,8.93,0.4777777777777778,-0.04777777777777778,-0.6711111111111111,-0.8125,-0.4375,9.0625
1589380742.6068232,-1.1,-3.11,8.98,0.5311111111111111,-0.01888888888888889,-0.6588888888888889,-0.6875,-0.125,5.625
1589380742.6133945,-1.08,-3.07,8.89,0.5311111111111111,-0.01888888888888889,-0.6588888888888889,-0.4375,0.1875,2.5625
1589380742.6253214,-1.09,-3.01,8.83,0.5311111111111111,-0.01888888888888889,-0.6588888888888889,-0.4375,0.375,-0.3125
1589380742.6340575,-1.14,-3.03,8.85,0.5311111111111111,-0.01888888888888889,-0.6588888888888889,-0.125,0.5,-3.0
1589380742.6453376,-1.13,-3.05,8.88,0.5311111111111111,-0.01888888888888889,-0.6588888888888889,-0.1875,0.6875,-5.1875
1589380742.6529508,-1.16,-3.06,8.98,0.5611111111111111,0.0,-0.6877777777777778,-0.1875,0.9375,-7.5625
1589380742.663658,-1.26,-3.15,8.93,0.5611111111111111,0.0,-0.6877777777777778,0.125,0.8125,-9.5625
1589380742.6779742,-1.27,-3.19,8.78,0.5611111111111111,0.0,-0.6877777777777778,0.3125,1.0625,-11.0625
1589380742.6846945,-1.27,-3.2,8.89,0.5611111111111111,0.0,-0.6877777777777778,0.1875,1.125,-12.75
1589380742.6990006,-1.33,-3.27,8.95,0.5611111111111111,0.0,-0.6877777777777778,0.4375,1.25,-14.0625
1589380742.7043426,-1.29,-3.25,8.95,0.6611111111111111,0.04777777777777778,-0.7733333333333333,0.625,1.375,-15.1875
1589380742.7171788,-1.25,-3.22,8.95,0.6611111111111111,0.04777777777777778,-0.7733333333333333,0.6875,1.375,-16.5625
1589380742.724072,-1.28,-3.3,8.84,0.6611111111111111,0.04777777777777778,-0.7733333333333333,0.75,1.625,-17.875
1589380742.733921,-1.31,-3.3,8.86,0.6611111111111111,0.04777777777777778,-0.7733333333333333,0.75,1.75,-18.875
1589380742.7457073,-1.29,-3.27,8.91,0.6611111111111111,0.04777777777777778,-0.7733333333333333,0.8125,1.75,-19.75
1589380742.7534122,-1.3,-3.25,8.95,0.6444444444444445,-0.13444444444444445,-0.8655555555555555,1.0,1.75,-20.4375
1589380742.7737405,-1.3,-3.34,8.86,0.6444444444444445,-0.13444444444444445,-0.8655555555555555,0.875,1.875,-21.25
1589380742.7837396,-1.3,-3.3,8.86,0.6444444444444445,-0.13444444444444445,-0.8655555555555555,0.8125,1.8125,-21.5
1589380742.7958658,-1.27,-3.33,8.96,0.6444444444444445,-0.13444444444444445,-0.8655555555555555,1.0,1.6875,-21.1875
1589380742.803847,-1.35,-3.4,8.91,0.5422222222222223,-0.10666666666666667,-0.6944444444444444,0.9375,1.75,-21.625
1589380742.8142006,-1.37,-3.35,8.91,0.5422222222222223,-0.10666666666666667,-0.6944444444444444,0.9375,1.9375,-20.75
1589380742.8268814,-1.28,-3.25,8.82,0.5422222222222223,-0.10666666666666667,-0.6944444444444444,0.875,1.625,-19.375
1589380742.8343046,-1.32,-3.37,8.89,0.5422222222222223,-0.10666666666666667,-0.6944444444444444,1.0,1.75,-18.4375
1589380742.8510494,-1.42,-3.43,8.95,0.5422222222222223,-0.10666666666666667,-0.6944444444444444,0.9375,1.8125,-17.6875
1589380742.8563304,-1.38,-3.41,8.68,0.51,-0.006666666666666667,-0.6733333333333333,1.0,1.4375,-16.375
1589380742.8694801,-1.41,-3.38,8.86,0.51,-0.006666666666666667,-0.6733333333333333,0.75,1.4375,-14.4375
1589380742.876087,-1.34,-3.33,8.82,0.51,-0.006666666666666667,-0.6733333333333333,0.75,1.125,-11.9375
1589380742.8876672,-1.41,-3.4,8.86,0.51,-0.006666666666666667,-0.6733333333333333,0.6875,0.5625,-9.1875
1589380742.8964055,-1.32,-3.31,8.95,0.51,-0.006666666666666667,-0.6733333333333333,0.625,0.5,-6.25
1589380742.9073427,-1.34,-3.37,9.0,0.5366666666666666,0.024444444444444446,-0.6355555555555555,0.1875,0.4375,-3.5625
1589380742.9135196,-1.35,-3.46,8.9,0.5366666666666666,0.024444444444444446,-0.6355555555555555,0.4375,0.25,-0.75
1589380742.924648,-1.34,-3.47,8.82,0.5366666666666666,0.024444444444444446,-0.6355555555555555,0.3125,0.0625,2.0625
1589380742.934575,-1.29,-3.53,8.86,0.5366666666666666,0.024444444444444446,-0.6355555555555555,0.4375,-0.3125,4.5625
1589380742.946586,-1.22,-3.45,8.9,0.5366666666666666,0.024444444444444446,-0.6355555555555555,0.3125,-0.4375,6.8125
1589380742.9537225,-1.22,-3.46,8.94,0.5422222222222223,0.05111111111111112,-0.6588888888888889,0.25,-0.75,8.4375
1589380742.9640474,-1.23,-3.43,8.98,0.5422222222222223,0.05111111111111112,-0.6588888888888889,0.3125,-0.875,8.75
1589380742.9746747,-1.19,-3.5,8.82,0.5422222222222223,0.05111111111111112,-0.6588888888888889,0.1875,-1.125,9.625
1589380742.9859366,-1.17,-3.5,8.89,0.5422222222222223,0.05111111111111112,-0.6588888888888889,0.5625,-1.0625,9.125
1589380742.9968731,-1.17,-3.53,8.89,0.5422222222222223,0.05111111111111112,-0.6588888888888889,0.5,-0.9375,8.125
1589380743.00387,-1.08,-3.45,8.93,0.5366666666666666,0.07777777777777778,-0.6588888888888889,0.6875,-0.9375,6.875
1589380743.0203645,-1.17,-3.51,8.91,0.5366666666666666,0.07777777777777778,-0.6588888888888889,0.8125,-0.625,4.8125
1589380743.0272715,-1.14,-3.45,8.81,0.5366666666666666,0.07777777777777778,-0.6588888888888889,0.875,-0.1875,2.0625
1589380743.0391195,-1.09,-3.47,8.88,0.5366666666666666,0.07777777777777778,-0.6588888888888889,1.0,-0.0625,-0.8125
1589380743.0470624,-1.0,-3.3,8.93,0.5366666666666666,0.07777777777777778,-0.6588888888888889,1.125,0.375,-4.625
1589380743.0588267,-1.03,-3.3,8.95,0.5422222222222223,0.08444444444444445,-0.6711111111111111,1.375,0.625,-9.0625
1589380743.0647972,-1.11,-3.37,8.91,0.5422222222222223,0.08444444444444445,-0.6711111111111111,1.1875,1.0625,-13.5625
1589380743.0789402,-1.16,-3.41,8.85,0.5422222222222223,0.08444444444444445,-0.6711111111111111,1.3125,1.4375,-17.5
1589380743.0849042,-1.25,-3.45,8.84,0.5422222222222223,0.08444444444444445,-0.6711111111111111,1.25,1.625,-20.375
1589380743.0969846,-1.26,-3.42,8.94,0.5422222222222223,0.08444444444444445,-0.6711111111111111,1.375,1.6875,-22.5625
1589380743.1047225,-1.24,-3.42,8.95,0.5611111111111111,0.09,-0.6666666666666666,1.4375,2.0625,-24.0625
1589380743.1152813,-1.18,-3.32,8.91,0.5611111111111111,0.09,-0.6666666666666666,1.375,1.9375,-25.3125
1589380743.1253119,-1.22,-3.35,8.85,0.5611111111111111,0.09,-0.6666666666666666,1.375,2.375,-26.0625
1589380743.137175,-1.26,-3.43,8.9,0.5611111111111111,0.09,-0.6666666666666666,1.25,2.5625,-26.25
1589380743.150511,-1.3,-3.44,8.9,0.5611111111111111,0.09,-0.6666666666666666,1.25,2.4375,-26.1875
1589380743.1576064,-1.36,-3.48,8.91,0.5688888888888889,0.09777777777777777,-0.6588888888888889,1.375,2.4375,-25.4375
1589380743.1661837,-1.55,-3.6,9.0,0.5688888888888889,0.09777777777777777,-0.6588888888888889,1.25,2.25,-24.1875
1589380743.1775775,-1.52,-3.57,8.73,0.5688888888888889,0.09777777777777777,-0.6588888888888889,1.3125,2.25,-20.1875
1589380743.1853876,-2.09,-3.81,9.04,0.5688888888888889,0.09777777777777777,-0.6588888888888889,0.25,-0.6875,-17.3125
1589380743.196868,-1.4,-3.78,8.56,0.5688888888888889,0.09777777777777777,-0.6588888888888889,2.5,5.375,-23.5
1589380743.209236,-0.77,-3.77,9.02,0.6344444444444445,0.10444444444444444,-0.68,0.5,0.625,-13.5
1589380743.215832,-1.13,-3.66,9.01,0.6344444444444445,0.10444444444444444,-0.68,-0.1875,-0.1875,-15.4375
1589380743.2288413,-1.37,-3.78,8.79,0.6344444444444445,0.10444444444444444,-0.68,1.5625,2.625,-16.25
1589380743.2349787,-1.1,-3.7,8.81,0.6344444444444445,0.10444444444444444,-0.68,0.875,1.8125,-13.125
1589380743.2512007,-0.96,-3.6,8.96,0.6344444444444445,0.10444444444444444,-0.68,0.1875,0.25,-10.1875
1589380743.2562392,-1.08,-3.62,8.92,0.8977777777777778,0.06333333333333334,-0.6877777777777778,0.8125,1.375,-10.375
1589380743.267756,-0.86,-3.45,8.87,0.8977777777777778,0.06333333333333334,-0.6877777777777778,1.0625,1.4375,-9.5625
1589380743.275007,-0.79,-3.47,8.81,0.8977777777777778,0.06333333333333334,-0.6877777777777778,0.375,0.4375,-9.5625
1589380743.280494,-0.79,-3.47,8.81,0.8977777777777778,0.06333333333333334,-0.6877777777777778,0.375,0.4375,-9.5625
1589380743.3010125,-0.95,-3.43,9.4,0.8977777777777778,0.06333333333333334,-0.6877777777777778,0.75,1.8125,-16.5625
1589380743.3084905,-1.49,-3.91,8.91,1.72,-0.0811111111111111,-1.0377777777777777,1.4375,1.5,-19.6875
1589380743.3157265,-1.45,-3.67,7.56,1.72,-0.0811111111111111,-1.0377777777777777,6.75,6.6875,-19.3125
1589380743.3259275,-1.02,-3.44,8.52,1.72,-0.0811111111111111,-1.0377777777777777,-0.625,9.875,-16.75
1589380743.3358328,-1.15,-3.52,9.39,1.72,-0.0811111111111111,-1.0377777777777777,-3.5,-6.5625,-18.3125
1589380743.3470874,-1.17,-3.43,8.78,1.72,-0.0811111111111111,-1.0377777777777777,-0.6875,-1.25,-15.75
1589380743.3590505,-1.22,-3.44,9.04,1.0555555555555556,-0.2466666666666667,-0.8222222222222222,0.125,0.1875,-11.0625
1589380743.3659847,-1.44,-4.04,9.05,1.0555555555555556,-0.2466666666666667,-0.8222222222222222,0.4375,0.4375,-4.875
1589380743.3754756,-1.55,-4.47,8.97,1.0555555555555556,-0.2466666666666667,-0.8222222222222222,0.0625,0.75,-0.8125
1589380743.3870509,-1.04,-3.53,8.06,1.0555555555555556,-0.2466666666666667,-0.8222222222222222,1.375,3.75,3.3125
1589380743.4023948,-1.25,-4.23,9.29,1.0555555555555556,-0.2466666666666667,-0.8222222222222222,0.4375,2.25,4.9375
1589380743.4090624,-0.64,-3.38,8.81,0.68,0.03,-0.7088888888888889,-1.4375,3.875,5.0
1589380743.4201872,-0.48,-3.27,9.01,0.68,0.03,-0.7088888888888889,1.125,-4.1875,2.25
1589380743.4266553,-0.71,-3.54,8.93,0.68,0.03,-0.7088888888888889,1.0625,-4.75,-2.5625
1589380743.4398315,-0.59,-3.21,8.91,0.68,0.03,-0.7088888888888889,0.1875,-0.375,-7.6875
1589380743.4478164,-0.93,-3.56,8.86,0.68,0.03,-0.7088888888888889,0.375,0.625,-11.6875
1589380743.459951,-0.88,-3.68,9.0,0.57,0.10444444444444444,-0.6877777777777778,1.0625,1.8125,-14.25
1589380743.466086,-0.87,-3.68,8.91,0.57,0.10444444444444444,-0.6877777777777778,0.9375,1.5625,-13.25
1589380743.475924,-0.64,-3.78,8.89,0.57,0.10444444444444444,-0.6877777777777778,0.6875,1.25,-11.6875
1589380743.4865713,-0.52,-3.59,8.76,0.57,0.10444444444444444,-0.6877777777777778,0.6875,1.0,-13.125
1589380743.4977086,-0.45,-3.3,8.91,0.57,0.10444444444444444,-0.6877777777777778,0.875,1.6875,-17.375
1589380743.5054429,-0.6,-3.12,8.98,0.5511111111111111,0.13333333333333333,-0.7022222222222222,0.8125,2.0,-23.8125
1589380743.5160027,-0.75,-3.23,8.97,0.5511111111111111,0.13333333333333333,-0.7022222222222222,0.8125,2.6875,-30.6875
1589380743.5264947,-0.74,-3.34,8.78,0.5511111111111111,0.13333333333333333,-0.7022222222222222,1.3125,3.5625,-35.375
1589380743.5382988,-0.71,-3.4,8.89,0.5511111111111111,0.13333333333333333,-0.7022222222222222,1.375,3.3125,-37.1875
1589380743.553647,-0.74,-3.5,8.85,0.5511111111111111,0.13333333333333333,-0.7022222222222222,1.5,3.625,-38.5
1589380743.5598836,-0.79,-3.47,8.95,0.5511111111111111,0.13333333333333333,-0.6733333333333333,1.375,3.875,-39.75
1589380743.5692904,-0.77,-3.44,8.93,0.5511111111111111,0.13333333333333333,-0.6733333333333333,1.375,3.6875,-39.9375
1589380743.5772545,-0.75,-3.44,8.87,0.5511111111111111,0.13333333333333333,-0.6733333333333333,1.375,3.8125,-38.8125
1589380743.5913177,-0.6,-3.38,8.84,0.5511111111111111,0.13333333333333333,-0.6733333333333333,1.3125,3.8125,-37.5
1589380743.5994787,-0.53,-3.31,8.98,0.5511111111111111,0.13333333333333333,-0.6733333333333333,1.5,4.0,-38.0625
1589380743.611758,-0.73,-3.41,8.9,0.54,0.14666666666666667,-0.6522222222222223,1.625,4.0625,-40.25
1589380743.6183946,-0.87,-3.79,8.92,0.54,0.14666666666666667,-0.6522222222222223,1.5,4.1875,-41.3125
1589380743.6283026,-1.0,-4.11,8.78,0.54,0.14666666666666667,-0.6522222222222223,1.875,4.1875,-38.5625
1589380743.6366436,-1.17,-4.57,8.85,0.54,0.14666666666666667,-0.6522222222222223,1.625,3.5625,-33.8125
1589380743.6493096,-1.11,-4.88,8.75,0.54,0.14666666666666667,-0.6522222222222223,1.75,3.5,-25.125
1589380743.6562138,-3.66,6.06,0.87,0.52,0.1955555555555556,-0.68,-0.8125,1.3125,-16.875
1589380743.6698368,1.78,0.87,1.16,0.52,0.1955555555555556,-0.68,-39.9375,21.5,-184.375
1589380743.677323,-0.24,-2.72,10.22,0.52,0.1955555555555556,-0.68,-42.875,19.625,-312.1875
1589380743.689091,-0.81,-0.18,7.17,0.52,0.1955555555555556,-0.68,2.25,20.6875,-317.0625
1589380743.6988585,-2.67,-0.82,8.87,0.52,0.1955555555555556,-0.68,86.875,59.375,-306.75
1589380743.7106435,-0.8,-1.34,9.22,0.4955555555555556,0.2677777777777778,-0.6233333333333333,21.125,36.5,-291.3125
1589380743.7218807,-0.93,-0.42,9.58,0.4955555555555556,0.2677777777777778,-0.6233333333333333,-1.125,13.5625,-253.0625
1589380743.7282248,-1.59,0.17,8.48,0.4955555555555556,0.2677777777777778,-0.6233333333333333,6.875,21.8125,-224.8125
1589380743.7402408,-0.62,0.17,9.77,0.4955555555555556,0.2677777777777778,-0.6233333333333333,3.5,16.125,-179.5625
1589380743.7495012,-0.42,0.16,9.02,0.4955555555555556,0.2677777777777778,-0.6233333333333333,3.75,11.25,-135.4375
1589380743.7601132,0.08,0.0,9.42,0.4577777777777778,0.3333333333333333,-0.6311111111111111,2.125,6.5625,-74.25
1589380743.7676682,1.45,-1.27,8.73,0.4577777777777778,0.3333333333333333,-0.6311111111111111,2.125,6.5625,-74.25
1589380743.7777715,0.88,-2.28,9.51,0.4577777777777778,0.3333333333333333,-0.6311111111111111,0.5,4.0625,-44.6875
1589380743.7883186,-0.31,-2.34,8.61,0.4577777777777778,0.3333333333333333,-0.6311111111111111,0.5625,3.5,-24.375
1589380743.7993958,-0.5,-2.83,9.27,0.4577777777777778,0.3333333333333333,-0.6311111111111111,0.6875,0.3125,5.0
1589380743.807035,-0.11,-2.76,8.68,0.4244444444444445,0.4033333333333333,-0.6444444444444445,-0.125,-1.9375,30.25
1589380743.8208652,0.11,-2.83,9.23,0.4244444444444445,0.4033333333333333,-0.6444444444444445,-0.75,-4.1875,43.5625
1589380743.8274796,0.04,-2.87,8.72,0.4244444444444445,0.4033333333333333,-0.6444444444444445,-1.375,-4.6875,51.375
1589380743.8373725,0.06,-2.91,9.18,0.4244444444444445,0.4033333333333333,-0.6444444444444445,-1.0625,-5.875,60.4375
1589380743.8496366,0.19,-2.91,8.73,0.4244444444444445,0.4033333333333333,-0.6444444444444445,-1.6875,-7.0625,66.6875
1589380743.8611467,0.22,-2.92,9.11,0.43333333333333335,0.4044444444444445,-0.6522222222222223,-1.25,-7.0,68.9375
1589380743.8682199,0.2,-2.9,8.78,0.43333333333333335,0.4044444444444445,-0.6522222222222223,-1.625,-6.25,70.125
1589380743.879693,0.28,-2.98,8.9,0.43333333333333335,0.4044444444444445,-0.6522222222222223,-2.0,-7.1875,70.625
1589380743.8938842,0.23,-2.99,8.71,0.43333333333333335,0.4044444444444445,-0.6522222222222223,-1.625,-6.25,69.3125
1589380743.9002492,0.0,-3.14,9.03,0.43333333333333335,0.4044444444444445,-0.6522222222222223,-0.9375,-6.1875,70.5625
1589380743.9081686,-0.11,-3.27,8.92,0.44222222222222224,0.3744444444444445,-0.6522222222222223,-1.3125,-6.5625,76.5625
1589380743.9198074,0.08,-3.33,9.13,0.44222222222222224,0.3744444444444445,-0.6522222222222223,-1.5625,-8.0,82.3125
1589380743.9298306,0.0,-3.35,8.67,0.44222222222222224,0.3744444444444445,-0.6522222222222223,-2.375,-8.4375,85.5
1589380743.9383314,-9.67,-18.16,9.02,0.44222222222222224,0.3744444444444445,-0.6522222222222223,0.1875,-8.0,93.5625
1589380743.9500768,15.53,-23.43,5.57,0.44222222222222224,0.3744444444444445,-0.6522222222222223,10.3125,-16.125,157.0
1589380743.9590242,-0.93,0.69,10.42,0.4544444444444444,0.3644444444444445,-0.6355555555555555,-2.8125,-12.125,77.9375
1589380743.9688795,-1.67,-0.5,8.09,0.4544444444444444,0.3644444444444445,-0.6355555555555555,3.9375,4.3125,57.1875
1589380743.9778767,0.01,-3.57,9.25,0.4544444444444444,0.3644444444444445,-0.6355555555555555,-3.4375,-6.6875,33.375
1589380743.9896615,-0.63,-3.63,8.66,0.4544444444444444,0.3644444444444445,-0.6355555555555555,1.5625,1.8125,13.6875
1589380743.9997973,-0.34,-3.94,8.75,0.4544444444444444,0.3644444444444445,-0.6355555555555555,-0.5,-1.6875,1.0625
1589380744.010752,-0.08,-4.24,9.04,0.4888888888888889,0.31555555555555553,-0.6666666666666666,-0.3125,-1.3125,-0.25
1589380744.01843,-0.24,-4.06,8.9,0.4888888888888889,0.31555555555555553,-0.6666666666666666,0.375,0.25,0.125
1589380744.0287561,-0.23,-4.06,8.71,0.4888888888888889,0.31555555555555553,-0.6666666666666666,-0.25,-0.4375,-0.0625
1589380744.0415173,-0.19,-4.1,8.84,0.4888888888888889,0.31555555555555553,-0.6666666666666666,-0.125,0.0625,0.0625
1589380744.0516825,-0.21,-4.1,8.81,0.4888888888888889,0.31555555555555553,-0.6666666666666666,0.125,0.375,0.0
1589380744.0651078,-0.22,-4.05,8.94,0.4888888888888889,0.33,-0.6355555555555555,0.4375,0.1875,-0.0625
1589380744.0718768,-0.24,-4.05,8.82,0.4888888888888889,0.33,-0.6355555555555555,0.25,0.1875,-0.125
1589380744.085093,-0.21,-4.04,8.8,0.4888888888888889,0.33,-0.6355555555555555,0.0625,-0.3125,0.0
1589380744.091642,-0.24,-4.04,8.77,0.4888888888888889,0.33,-0.6355555555555555,-0.125,0.0,-0.0625
1589380744.1019144,-0.22,-4.05,8.89,0.4888888888888889,0.33,-0.6355555555555555,-0.125,-0.0625,0.0625
1589380744.1092234,-0.24,-4.08,8.85,0.4888888888888889,0.3377777777777778,-0.6588888888888889,0.0,-0.0625,0.0
1589380744.1232955,-0.25,-4.07,8.82,0.4888888888888889,0.3377777777777778,-0.6588888888888889,0.25,0.0625,0.0625
1589380744.1300268,-0.24,-4.07,8.72,0.4888888888888889,0.3377777777777778,-0.6588888888888889,-0.0625,-0.0625,0.0
1589380744.1435616,-0.21,-4.08,8.86,0.4888888888888889,0.3377777777777778,-0.6588888888888889,-0.125,-0.375,0.0
1589380744.1532118,-0.24,-4.08,8.8,0.4888888888888889,0.3377777777777778,-0.6588888888888889,-0.1875,-0.375,0.0
1589380744.1639385,-0.23,-4.06,8.86,0.4744444444444445,0.33,-0.6522222222222223,0.25,-0.5625,0.0625
1589380744.1706142,-0.23,-4.06,8.85,0.4744444444444445,0.33,-0.6522222222222223,0.3125,-0.375,0.125
1589380744.1799335,-0.22,-4.05,8.82,0.4744444444444445,0.33,-0.6522222222222223,0.375,-0.0625,0.0
1589380744.1904323,-0.24,-4.09,8.81,0.4744444444444445,0.33,-0.6522222222222223,-0.125,0.0,0.0625
1589380744.2021348,-0.22,-4.08,8.88,0.4744444444444445,0.33,-0.6522222222222223,0.0625,-0.0625,0.0
1589380744.2107468,-0.22,-4.06,8.87,0.4888888888888889,0.3377777777777778,-0.6522222222222223,-0.1875,-0.25,0.0
1589380744.22237,-0.21,-4.07,8.91,0.4888888888888889,0.3377777777777778,-0.6522222222222223,-0.0625,-0.3125,0.0
1589380744.2310536,-0.22,-4.08,8.73,0.4888888888888889,0.3377777777777778,-0.6522222222222223,0.0625,-0.25,-0.0625
1589380744.2427945,-0.21,-4.08,8.83,0.4888888888888889,0.3377777777777778,-0.6522222222222223,-0.0625,-0.1875,-0.0625
1589380744.2534616,-0.21,-4.09,8.82,0.4888888888888889,0.3377777777777778,-0.6522222222222223,0.0,0.0,0.0625
1589380744.2602446,-0.22,-4.06,8.85,0.5011111111111111,0.33,-0.6355555555555555,0.3125,0.0,-0.0625
1589380744.2725818,-0.23,-4.07,8.83,0.5011111111111111,0.33,-0.6355555555555555,0.3125,0.125,-0.0625
1589380744.2800796,-0.24,-4.05,8.8,0.5011111111111111,0.33,-0.6355555555555555,0.3125,0.0625,0.0625
1589380744.294327,-0.24,-4.05,8.83,0.5011111111111111,0.33,-0.6355555555555555,0.125,0.25,-0.0625
1589380744.302986,-0.24,-4.07,8.83,0.5011111111111111,0.33,-0.6355555555555555,-0.0625,-0.0625,-0.0625
1589380744.3134437,-0.22,-4.07,8.85,0.4622222222222222,0.3233333333333333,-0.6311111111111111,-0.1875,-0.0625,-0.0625
1589380744.3210905,-0.23,-4.07,8.88,0.4622222222222222,0.3233333333333333,-0.6311111111111111,0.125,0.0625,-0.0625
1589380744.3311355,-0.24,-4.06,8.76,0.4622222222222222,0.3233333333333333,-0.6311111111111111,0.0,0.0625,0.125
1589380744.3412848,-0.23,-4.07,8.82,0.4622222222222222,0.3233333333333333,-0.6311111111111111,0.3125,0.0625,0.125
1589380744.35384,-0.23,-4.1,8.86,0.4622222222222222,0.3233333333333333,-0.6311111111111111,0.0,-0.0625,0.0
1589380744.36077,-0.23,-4.08,8.85,0.4811111111111111,0.3233333333333333,-0.6355555555555555,0.0625,-0.125,0.0
1589380744.3726234,-0.22,-4.07,8.83,0.4811111111111111,0.3233333333333333,-0.6355555555555555,0.25,-0.1875,0.0625
1589380744.3806255,-0.24,-4.05,8.78,0.4811111111111111,0.3233333333333333,-0.6355555555555555,0.1875,-0.125,0.1875
1589380744.3930795,-0.21,-4.05,8.83,0.4811111111111111,0.3233333333333333,-0.6355555555555555,0.0,-0.125,0.125
1589380744.4033961,-0.21,-4.05,8.86,0.4811111111111111,0.3233333333333333,-0.6355555555555555,-0.0625,-0.1875,0.25
1589380744.411085,-0.22,-4.07,8.87,0.5011111111111111,0.3377777777777778,-0.6355555555555555,-0.0625,0.125,0.125
1589380744.4253368,-0.22,-4.08,8.86,0.5011111111111111,0.3377777777777778,-0.6355555555555555,0.1875,0.1875,0.0625
1589380744.4313002,-0.23,-4.07,8.72,0.5011111111111111,0.3377777777777778,-0.6355555555555555,0.3125,0.125,0.0
1589380744.4459605,-0.21,-4.06,8.79,0.5011111111111111,0.3377777777777778,-0.6355555555555555,0.375,0.25,0.0
1589380744.4531016,-0.23,-4.07,8.86,0.5011111111111111,0.3377777777777778,-0.6355555555555555,0.125,0.125,0.0
1589380744.4612064,-0.24,-4.05,8.89,0.4811111111111111,0.3233333333333333,-0.6522222222222223,0.0625,0.1875,-0.0625
1589380744.4709814,-0.24,-4.07,8.85,0.4811111111111111,0.3233333333333333,-0.6522222222222223,0.0625,0.0625,0.1875
1589380744.484558,-0.23,-4.05,8.75,0.4811111111111111,0.3233333333333333,-0.6522222222222223,0.25,-0.1875,0.0
1589380744.491189,-0.23,-4.06,8.81,0.4811111111111111,0.3233333333333333,-0.6522222222222223,0.0625,-0.0625,-0.0625
1589380744.5038645,-0.24,-4.04,8.84,0.4811111111111111,0.3233333333333333,-0.6522222222222223,0.0,-0.0625,0.0
1589380744.5122876,-0.24,-4.05,8.87,0.4544444444444444,0.33,-0.6588888888888889,0.0625,-0.125,0.0625
1589380744.5232494,-0.24,-4.05,8.82,0.4544444444444444,0.33,-0.6588888888888889,0.1875,-0.0625,-0.0625
1589380744.5315366,-0.22,-4.06,8.79,0.4544444444444444,0.33,-0.6588888888888889,0.125,-0.0625,0.0625
1589380744.5412078,-0.22,-4.06,8.8,0.4544444444444444,0.33,-0.6588888888888889,0.1875,-0.1875,0.125
1589380744.554426,-0.23,-4.06,8.86,0.4544444444444444,0.33,-0.6588888888888889,0.0625,0.0625,-0.0625
1589380744.5649474,-0.24,-4.06,8.86,0.4811111111111111,0.3233333333333333,-0.6355555555555555,-0.125,-0.0625,-0.125
1589380744.5767064,-0.23,-4.05,8.89,0.4811111111111111,0.3233333333333333,-0.6355555555555555,0.0,-0.3125,0.0
1589380744.5832589,-0.23,-4.08,8.79,0.4811111111111111,0.3233333333333333,-0.6355555555555555,-0.0625,-0.1875,0.125
1589380744.5916836,-0.24,-4.06,8.83,0.4811111111111111,0.3233333333333333,-0.6355555555555555,-0.125,-0.25,0.125
1589380744.6041934,-0.24,-4.08,8.88,0.4811111111111111,0.3233333333333333,-0.6355555555555555,0.125,-0.0625,0.0
1589380744.6127,-0.24,-4.04,8.85,0.4888888888888889,0.33,-0.6522222222222223,0.125,-0.125,0.0625
1589380744.6221378,-0.24,-4.08,8.79,0.4888888888888889,0.33,-0.6522222222222223,0.0625,-0.0625,0.125
1589380744.6356301,-0.2,-4.06,8.76,0.4888888888888889,0.33,-0.6522222222222223,0.0,-0.1875,0.0
1589380744.6417625,-0.22,-4.06,8.81,0.4888888888888889,0.33,-0.6522222222222223,0.0,0.125,0.0625
1589380744.6569276,-0.22,-4.08,8.83,0.4888888888888889,0.33,-0.6522222222222223,0.0625,-0.125,0.0
1589380744.6630735,-0.24,-4.06,8.88,0.4544444444444444,0.33,-0.6588888888888889,0.0,-0.125,-0.0625
1589380744.6748874,-0.22,-4.08,8.85,0.4544444444444444,0.33,-0.6588888888888889,-0.25,0.0,0.0
1589380744.681578,-0.24,-4.06,8.77,0.4544444444444444,0.33,-0.6588888888888889,0.0,-0.125,0.0625
1589380744.694201,-0.24,-4.09,8.77,0.4544444444444444,0.33,-0.6588888888888889,0.1875,-0.1875,-0.0625
1589380744.7050793,-0.22,-4.05,8.89,0.4544444444444444,0.33,-0.6588888888888889,0.3125,-0.0625,0.0
1589380744.7157652,-0.22,-4.05,8.9,0.4888888888888889,0.33,-0.6311111111111111,0.25,0.0625,0.0
1589380744.7231176,-0.23,-4.05,8.87,0.4888888888888889,0.33,-0.6311111111111111,-0.125,0.0,-0.0625
1589380744.7350447,-0.24,-4.07,8.75,0.4888888888888889,0.33,-0.6311111111111111,0.0625,-0.1875,0.1875
1589380744.7428675,-0.23,-4.05,8.81,0.4888888888888889,0.33,-0.6311111111111111,0.1875,-0.0625,0.125
1589380744.755147,-0.24,-4.05,8.85,0.4888888888888889,0.33,-0.6311111111111111,0.0,0.0,0.0
1589380744.762741,-0.23,-4.06,8.9,0.4744444444444445,0.3233333333333333,-0.6444444444444445,0.0625,0.1875,0.0625
1589380744.7752564,-0.23,-4.06,8.84,0.4744444444444445,0.3233333333333333,-0.6444444444444445,-0.125,0.1875,0.0625
1589380744.7866373,-0.24,-4.08,8.78,0.4744444444444445,0.3233333333333333,-0.6444444444444445,0.0,0.125,0.0625
1589380744.7927387,-0.23,-4.06,8.8,0.4744444444444445,0.3233333333333333,-0.6444444444444445,0.1875,-0.0625,-0.0625
1589380744.8056905,-0.22,-4.03,8.85,0.4744444444444445,0.3233333333333333,-0.6444444444444445,0.1875,0.0625,0.125
1589380744.8135607,-0.22,-4.06,8.89,0.4933333333333334,0.31555555555555553,-0.6666666666666666,0.125,0.0,0.0
1589380744.8264818,-0.22,-4.06,8.89,0.4933333333333334,0.31555555555555553,-0.6666666666666666,0.125,-0.0625,0.0625
1589380744.8323672,-0.23,-4.09,8.78,0.4933333333333334,0.31555555555555553,-0.6666666666666666,-0.0625,0.125,0.125
1589380744.843017,-0.21,-4.07,8.81,0.4933333333333334,0.31555555555555553,-0.6666666666666666,-0.125,0.0625,-0.0625
1589380744.8554106,-0.23,-4.06,8.86,0.4933333333333334,0.31555555555555553,-0.6666666666666666,-0.0625,0.0,0.125
1589380744.8656294,-0.22,-4.05,8.86,0.4666666666666667,0.33,-0.6444444444444445,-0.125,0.0625,0.0
1589380744.8733487,-0.21,-4.08,8.81,0.4666666666666667,0.33,-0.6444444444444445,0.0,0.125,0.0
1589380744.8830562,-0.24,-4.07,8.79,0.4666666666666667,0.33,-0.6444444444444445,0.125,-0.125,0.0
1589380744.8934839,-0.23,-4.06,8.79,0.4666666666666667,0.33,-0.6444444444444445,0.125,-0.1875,0.0
1589380744.9057732,-0.22,-4.07,8.85,0.4666666666666667,0.33,-0.6444444444444445,0.0625,0.0625,-0.125
1589380744.9134126,-0.22,-4.04,8.87,0.4933333333333334,0.3233333333333333,-0.6522222222222223,0.125,0.0625,-0.125
1589380744.9232435,-0.22,-4.05,8.86,0.4933333333333334,0.3233333333333333,-0.6522222222222223,-0.0625,0.0,-0.0625
1589380744.9358664,-0.24,-4.05,8.78,0.4933333333333334,0.3233333333333333,-0.6522222222222223,-0.0625,0.0625,-0.0625
1589380744.9429276,-0.23,-4.06,8.8,0.4933333333333334,0.3233333333333333,-0.6522222222222223,-0.125,0.0625,-0.0625
1589380744.959441,-0.23,-4.08,8.83,0.4933333333333334,0.3233333333333333,-0.6522222222222223,0.0625,0.0625,-0.125
1589380744.965796,-0.23,-4.07,8.87,0.4811111111111111,0.3377777777777778,-0.6355555555555555,0.125,-0.0625,0.0
1589380744.9732769,-0.22,-4.07,8.9,0.4811111111111111,0.3377777777777778,-0.6355555555555555,0.0625,0.125,-0.0625
1589380744.9844973,-0.22,-4.05,8.77,0.4811111111111111,0.3377777777777778,-0.6355555555555555,0.125,0.0,0.1875
1589380744.9968235,-0.23,-4.08,8.82,0.4811111111111111,0.3377777777777778,-0.6355555555555555,0.0625,-0.0625,0.0
1589380745.0062518,-0.23,-4.06,8.86,0.4811111111111111,0.3377777777777778,-0.6355555555555555,-0.0625,0.0625,-0.0625
1589380745.0169349,-0.23,-4.07,8.89,0.4888888888888889,0.3377777777777778,-0.6355555555555555,-0.0625,0.0,0.0625
1589380745.0235329,-0.23,-4.07,8.85,0.4888888888888889,0.3377777777777778,-0.6355555555555555,0.125,-0.1875,0.0625
