time,acc_x,acc_y,acc_z,mag_x,mag_y,mag_z,gyr_x,gyr_y,gyr_z
1589380753.1385305,-0.24,-4.05,8.92,0.5455555555555556,0.2577777777777778,-0.7744444444444445,0.125,-0.0625,-0.0625
1589380753.1485233,-0.21,-4.09,8.99,0.5455555555555556,0.2577777777777778,-0.7744444444444445,0.0625,0.25,-0.25
1589380753.1541815,-0.24,-4.01,8.76,0.5244444444444445,0.24444444444444444,-0.7888888888888889,0.375,0.5,-0.0625
1589380753.1600387,-0.22,-4.02,8.77,0.5244444444444445,0.24444444444444444,-0.7888888888888889,0.625,0.75,0.125
1589380753.1719296,-0.24,-4.04,8.76,0.5244444444444445,0.24444444444444444,-0.7888888888888889,0.125,0.25,0.1875
1589380753.1810448,-0.25,-4.06,8.82,0.5244444444444445,0.24444444444444444,-0.7888888888888889,0.25,-0.25,0.125
1589380753.1931572,-0.25,-4.07,8.86,0.5244444444444445,0.24444444444444444,-0.7888888888888889,0.0625,-0.4375,0.0
1589380753.2039962,-0.22,-4.05,8.85,0.5455555555555556,0.24444444444444444,-0.7822222222222223,0.0625,-0.3125,-0.0625
1589380753.2099822,-0.2,-4.06,8.87,0.5455555555555556,0.24444444444444444,-0.7822222222222223,0.0625,-0.0625,0.0625
1589380753.2233446,-0.22,-4.06,8.85,0.5455555555555556,0.24444444444444444,-0.7822222222222223,0.1875,-0.0625,0.0625
1589380753.2309804,-0.22,-4.05,8.91,0.5455555555555556,0.24444444444444444,-0.7822222222222223,0.25,0.375,0.0
1589380753.2423818,-0.24,-4.06,8.91,0.5455555555555556,0.24444444444444444,-0.7822222222222223,0.0,0.625,0.0625
1589380753.2509801,-0.24,-4.06,8.86,0.5244444444444445,0.24444444444444444,-0.7677777777777778,0.125,0.5625,0.0625
1589380753.2609322,-0.24,-4.04,8.79,0.5244444444444445,0.24444444444444444,-0.7677777777777778,0.0625,0.25,0.125
1589380753.2709513,-0.23,-4.04,8.74,0.5244444444444445,0.24444444444444444,-0.7677777777777778,0.0625,-0.0625,0.1875
1589380753.2808685,-0.24,-4.03,8.82,0.5244444444444445,0.24444444444444444,-0.7677777777777778,0.0625,-0.375,-0.0625
1589380753.2926304,-0.24,-4.05,8.87,0.5244444444444445,0.24444444444444444,-0.7677777777777778,-0.125,-0.375,0.0
1589380753.3010175,-0.22,-4.06,8.91,0.5188888888888888,0.25,-0.7888888888888889,-0.1875,-0.4375,-0.125
1589380753.3107018,-0.22,-4.04,8.9,0.5188888888888888,0.25,-0.7888888888888889,-0.0625,-0.375,0.0625
1589380753.322366,-0.22,-4.06,8.82,0.5188888888888888,0.25,-0.7888888888888889,-0.125,-0.25,0.0
1589380753.3305,-0.2,-4.05,8.89,0.5188888888888888,0.25,-0.7888888888888889,0.0,-0.0625,0.125
1589380753.3429332,-0.23,-4.04,8.88,0.5188888888888888,0.25,-0.7888888888888889,-0.0625,0.125,0.0625
1589380753.3516285,-0.23,-4.06,8.85,0.5244444444444445,0.25,-0.7888888888888889,-0.1875,0.0625,0.0625
1589380753.3617506,-0.25,-4.04,8.78,0.5244444444444445,0.25,-0.7888888888888889,0.0,-0.1875,-0.0625
1589380753.3754976,-0.24,-4.05,8.74,0.5244444444444445,0.25,-0.7888888888888889,-0.0625,-0.3125,-0.0625
1589380753.3812866,-0.25,-4.04,8.77,0.5244444444444445,0.25,-0.7888888888888889,0.0,-0.25,-0.125
1589380753.397012,-0.23,-4.04,8.87,0.5244444444444445,0.25,-0.7888888888888889,-0.125,-0.4375,-0.0625
1589380753.4034445,-0.21,-4.06,8.91,0.5455555555555556,0.24444444444444444,-0.76,-0.125,-0.4375,0.0
1589380753.4148545,-0.19,-4.05,8.85,0.5455555555555556,0.24444444444444444,-0.76,-0.0625,-0.375,0.0
1589380753.4206364,-0.23,-4.05,8.69,0.5455555555555556,0.24444444444444444,-0.76,-0.625,-0.6875,0.0
1589380753.4306695,-0.22,-4.09,8.96,0.5455555555555556,0.24444444444444444,-0.76,0.0625,-0.0625,-0.125
1589380753.4455974,-0.24,-4.07,8.94,0.5455555555555556,0.24444444444444444,-0.76,0.0,0.125,0.0625
1589380753.45535,-0.22,-4.05,8.92,0.5311111111111111,0.24444444444444444,-0.7744444444444445,-0.1875,0.25,0.125
1589380753.461914,-0.22,-4.05,8.84,0.5311111111111111,0.24444444444444444,-0.7744444444444445,-0.1875,0.1875,-0.0625
1589380753.473818,-0.23,-4.05,8.73,0.5311111111111111,0.24444444444444444,-0.7744444444444445,-0.0625,0.25,0.0625
1589380753.4808545,-0.22,-4.06,8.75,0.5311111111111111,0.24444444444444444,-0.7744444444444445,0.1875,0.0625,0.125
1589380753.4931016,-0.24,-4.06,8.84,0.5311111111111111,0.24444444444444444,-0.7744444444444445,0.1875,0.0,0.0
1589380753.5028474,-0.23,-4.06,8.88,0.5311111111111111,0.23777777777777775,-0.76,-0.125,-0.25,0.0
1589380753.5132368,-0.21,-4.06,8.84,0.5311111111111111,0.23777777777777775,-0.76,0.125,-0.3125,0.0625
1589380753.5265481,-0.24,-4.05,8.75,0.5311111111111111,0.23777777777777775,-0.76,0.1875,-0.3125,-0.125
1589380753.533151,-0.21,-4.06,8.84,0.5311111111111111,0.23777777777777775,-0.76,0.125,0.125,0.0
1589380753.5477614,-0.21,-4.04,8.87,0.5311111111111111,0.23777777777777775,-0.76,0.3125,0.4375,0.0625
1589380753.5540125,-0.23,-4.05,8.95,0.5555555555555556,0.25,-0.76,0.1875,0.5,0.125
1589380753.5654588,-0.24,-4.04,8.89,0.5555555555555556,0.25,-0.76,0.0625,0.4375,0.125
1589380753.5721314,-0.23,-4.07,8.76,0.5555555555555556,0.25,-0.76,0.3125,0.5,0.0625
1589380753.5851648,-0.24,-4.04,8.81,0.5555555555555556,0.25,-0.76,0.3125,0.1875,0.125
1589380753.593923,-0.23,-4.05,8.82,0.5555555555555556,0.25,-0.76,0.3125,0.125,0.125
1589380753.605126,-0.23,-4.07,8.86,0.5455555555555556,0.2644444444444444,-0.76,0.3125,0.0625,0.0625
1589380753.6113546,-0.22,-4.04,8.82,0.5455555555555556,0.2644444444444444,-0.76,0.375,-0.0625,0.0625
1589380753.6245835,-0.24,-4.03,8.78,0.5455555555555556,0.2644444444444444,-0.76,0.125,-0.1875,0.0625
1589380753.6312506,-0.23,-4.02,8.79,0.5455555555555556,0.2644444444444444,-0.76,0.25,0.0625,0.0
1589380753.6439307,-0.22,-4.05,8.87,0.5455555555555556,0.2644444444444444,-0.76,0.25,0.125,-0.0625
1589380753.652082,-0.23,-4.05,8.93,0.5377777777777778,0.24444444444444444,-0.7822222222222223,0.125,0.25,0.0625
1589380753.6616359,-0.23,-4.06,8.91,0.5377777777777778,0.24444444444444444,-0.7822222222222223,0.1875,0.25,0.0
1589380753.6713922,-0.24,-4.06,8.76,0.5377777777777778,0.24444444444444444,-0.7822222222222223,0.0,0.1875,0.0625
1589380753.6829267,-0.24,-4.04,8.76,0.5377777777777778,0.24444444444444444,-0.7822222222222223,-0.1875,0.1875,0.0
1589380753.6989415,-0.23,-4.06,8.84,0.5377777777777778,0.24444444444444444,-0.7822222222222223,0.0625,-0.0625,-0.125
1589380753.7059991,-0.22,-4.04,8.85,0.5044444444444445,0.24444444444444444,-0.7955555555555556,0.0625,-0.125,0.0625
1589380753.717229,-0.24,-4.03,8.9,0.5044444444444445,0.24444444444444444,-0.7955555555555556,-0.0625,-0.0625,-0.0625
1589380753.723308,-0.23,-4.03,8.78,0.5044444444444445,0.24444444444444444,-0.7955555555555556,-0.0625,-0.125,0.0625
1589380753.7359102,-0.26,-4.05,8.84,0.5044444444444445,0.24444444444444444,-0.7955555555555556,0.0625,0.0,-0.0625
1589380753.7443042,-0.22,-4.04,8.87,0.5044444444444445,0.24444444444444444,-0.7955555555555556,0.0625,-0.0625,0.0
1589380753.7570796,-0.23,-4.04,8.89,0.5377777777777778,0.25,-0.7744444444444445,0.0625,0.0625,0.0625
1589380753.763667,-0.23,-4.04,8.87,0.5377777777777778,0.25,-0.7744444444444445,0.0,0.3125,0.0
1589380753.7747808,-0.24,-4.03,8.81,0.5377777777777778,0.25,-0.7744444444444445,-0.125,0.25,0.125
1589380753.7825596,-0.24,-4.04,8.79,0.5377777777777778,0.25,-0.7744444444444445,-0.1875,0.0625,0.0
1589380753.796868,-0.24,-4.03,8.84,0.5377777777777778,0.25,-0.7744444444444445,-0.1875,0.3125,0.0
1589380753.8027933,-0.26,-4.03,8.87,0.5188888888888888,0.23777777777777775,-0.76,-0.125,0.1875,0.1875
1589380753.8124232,-0.24,-4.06,8.87,0.5188888888888888,0.23777777777777775,-0.76,0.0,-0.0625,0.125
1589380753.8242042,-0.23,-4.04,8.79,0.5188888888888888,0.23777777777777775,-0.76,0.0625,-0.0625,0.0625
1589380753.8349245,-0.22,-4.04,8.81,0.5188888888888888,0.23777777777777775,-0.76,0.1875,-0.0625,0.0625
1589380753.8498538,-0.24,-4.05,8.85,0.5188888888888888,0.23777777777777775,-0.76,0.0625,0.0,0.0625
1589380753.855804,-0.24,-4.05,8.88,0.5111111111111111,0.25,-0.76,0.0625,0.0,-0.0625
1589380753.863006,-0.25,-4.04,8.9,0.5111111111111111,0.25,-0.76,0.0625,0.125,0.0
1589380753.8748806,-0.25,-4.06,8.79,0.5111111111111111,0.25,-0.76,0.125,0.0,0.0
1589380753.8873565,-0.23,-4.06,8.83,0.5111111111111111,0.25,-0.76,0.25,0.125,0.0625
1589380753.8952336,-0.22,-4.07,8.85,0.5111111111111111,0.25,-0.76,-0.0625,0.0625,0.0
1589380753.9073136,-0.21,-4.03,8.88,0.5377777777777778,0.25,-0.7744444444444445,0.0,-0.0625,0.125
1589380753.913267,-0.24,-4.04,8.82,0.5377777777777778,0.25,-0.7744444444444445,0.0,-0.0625,0.125
1589380753.9230149,-0.24,-4.05,8.77,0.5377777777777778,0.25,-0.7744444444444445,-0.0625,0.25,-0.0625
1589380753.933011,-0.24,-4.05,8.79,0.5377777777777778,0.25,-0.7744444444444445,0.0625,0.125,0.0625
1589380753.9466753,-0.24,-4.05,8.85,0.5377777777777778,0.25,-0.7744444444444445,-0.0625,-0.0625,0.0
1589380753.9533765,-0.24,-4.06,8.9,0.5188888888888888,0.2311111111111111,-0.7822222222222223,-0.0625,0.0,0.0
1589380753.9663715,-0.24,-4.05,8.92,0.5188888888888888,0.2311111111111111,-0.7822222222222223,0.0625,-0.125,-0.125
1589380753.9725795,-0.21,-4.04,8.79,0.5188888888888888,0.2311111111111111,-0.7822222222222223,0.0,-0.0625,0.125
1589380753.9835515,-0.22,-4.06,8.82,0.5188888888888888,0.2311111111111111,-0.7822222222222223,-0.0625,-0.1875,-0.125
1589380753.99596,-0.24,-4.09,8.84,0.5188888888888888,0.2311111111111111,-0.7822222222222223,0.0625,-0.1875,0.0625
1589380754.007138,-0.24,-4.07,8.85,0.5377777777777778,0.25,-0.7822222222222223,0.1875,0.0,-0.1875
1589380754.0135002,-0.25,-4.06,8.82,0.5377777777777778,0.25,-0.7822222222222223,0.1875,0.125,-0.1875
1589380754.0234096,-0.23,-4.06,8.75,0.5377777777777778,0.25,-0.7822222222222223,0.1875,0.0,-0.4375
1589380754.0352488,-0.21,-4.09,8.8,0.5377777777777778,0.25,-0.7822222222222223,0.0625,0.0625,-0.5625
1589380754.0448527,-0.14,-4.15,8.85,0.5377777777777778,0.25,-0.7822222222222223,0.25,-0.0625,-1.0625
1589380754.053617,-0.06,-4.2,8.85,0.5188888888888888,0.2311111111111111,-0.7744444444444445,0.5625,0.1875,-1.75
1589380754.064658,0.0,-4.19,8.83,0.5188888888888888,0.2311111111111111,-0.7744444444444445,0.625,0.3125,-3.3125
1589380754.0789912,-0.09,-4.03,8.78,0.5188888888888888,0.2311111111111111,-0.7744444444444445,0.5,0.6875,-5.125
1589380754.0848873,-0.34,-3.9,8.91,0.5188888888888888,0.2311111111111111,-0.7744444444444445,0.25,0.875,-5.375
1589380754.0956144,-0.37,-3.92,8.89,0.5188888888888888,0.2311111111111111,-0.7744444444444445,0.0,0.875,-4.3125
1589380754.1036315,-0.36,-3.94,8.89,0.5311111111111111,0.24444444444444444,-0.7822222222222223,-0.125,0.625,-2.625
1589380754.1144018,-0.35,-3.96,8.88,0.5311111111111111,0.24444444444444444,-0.7822222222222223,-0.1875,0.375,-1.0625
1589380754.1245348,-0.25,-4.05,8.79,0.5311111111111111,0.24444444444444444,-0.7822222222222223,-0.125,-0.0625,-0.1875
1589380754.136294,-0.24,-4.05,8.84,0.5311111111111111,0.24444444444444444,-0.7822222222222223,-0.125,0.0,-0.1875
1589380754.1472752,-0.21,-4.05,8.85,0.5311111111111111,0.24444444444444444,-0.7822222222222223,-0.1875,-0.0625,-0.1875
1589380754.1586373,-0.2,-4.05,8.84,0.5188888888888888,0.2577777777777778,-0.7533333333333333,-0.1875,-0.0625,0.0625
1589380754.1647325,-0.2,-4.05,8.8,0.5188888888888888,0.2577777777777778,-0.7533333333333333,-0.125,-0.25,0.0
1589380754.1739426,-0.21,-4.02,8.77,0.5188888888888888,0.2577777777777778,-0.7533333333333333,-0.0625,-0.25,-0.25
1589380754.1841125,-0.23,-4.07,8.84,0.5188888888888888,0.2577777777777778,-0.7533333333333333,-0.25,-0.0625,-0.0625
1589380754.1970167,-0.23,-4.06,8.94,0.5188888888888888,0.2577777777777778,-0.7533333333333333,-0.3125,0.0625,-0.1875
1589380754.204403,-0.22,-4.06,8.91,0.5044444444444445,0.2577777777777778,-0.7822222222222223,-0.4375,0.0625,-0.0625
1589380754.2148812,-0.21,-4.04,8.86,0.5044444444444445,0.2577777777777778,-0.7822222222222223,-0.5,0.0625,0.0
1589380754.2249644,-0.2,-4.03,8.75,0.5044444444444445,0.2577777777777778,-0.7822222222222223,-0.5625,0.1875,0.125
1589380754.2346234,-0.21,-4.05,8.82,0.5044444444444445,0.2577777777777778,-0.7822222222222223,-0.25,0.25,0.0
1589380754.2506447,-0.19,-4.06,8.86,0.5044444444444445,0.2577777777777778,-0.7822222222222223,-0.25,0.25,0.0625
1589380754.2567368,-0.23,-4.04,8.84,0.5455555555555556,0.25,-0.7744444444444445,-0.125,0.25,0.0625
1589380754.268594,-0.24,-4.06,8.8,0.5455555555555556,0.25,-0.7744444444444445,-0.0625,0.25,0.125
1589380754.275595,-0.22,-4.06,8.75,0.5455555555555556,0.25,-0.7744444444444445,-0.3125,0.0625,0.1875
1589380754.2889292,-0.22,-4.07,8.82,0.5455555555555556,0.25,-0.7744444444444445,-0.1875,-0.1875,0.125
1589380754.2978735,-0.23,-4.05,8.92,0.5455555555555556,0.25,-0.7744444444444445,-0.1875,-0.4375,0.0625
1589380754.3091445,-0.18,-4.05,8.92,0.5244444444444445,0.2577777777777778,-0.7677777777777778,-0.3125,-0.5625,0.0625
1589380754.3156548,-0.2,-4.04,8.86,0.5244444444444445,0.2577777777777778,-0.7677777777777778,-0.3125,-0.4375,0.125
1589380754.326768,-0.22,-4.07,8.77,0.5244444444444445,0.2577777777777778,-0.7677777777777778,-0.625,-0.4375,0.0
1589380754.3375,-0.38,-3.8,9.14,0.5244444444444445,0.2577777777777778,-0.7677777777777778,-0.8125,-0.1875,0.125
1589380754.3473961,-0.09,-4.31,8.59,0.5244444444444445,0.2577777777777778,-0.7677777777777778,-0.875,-0.625,0.375
1589380754.3559153,-0.25,-3.67,9.01,0.5377777777777778,0.25,-0.7744444444444445,-0.5625,-0.375,0.625
1589380754.3676493,-0.22,-3.99,8.77,0.5377777777777778,0.25,-0.7744444444444445,-0.75,-0.4375,0.75
1589380754.3749404,-0.15,-4.21,8.72,0.5377777777777778,0.25,-0.7744444444444445,-0.8125,-0.5625,0.9375
1589380754.3874688,-0.2,-4.43,8.78,0.5377777777777778,0.25,-0.7744444444444445,-0.375,-0.6875,0.875
1589380754.400817,-0.22,-4.14,8.87,0.5377777777777778,0.25,-0.7744444444444445,-0.125,-0.5625,0.25
1589380754.40735,-0.24,-4.07,8.92,0.5244444444444445,0.25,-0.7888888888888889,-0.1875,-0.5,0.125
1589380754.4189534,-0.21,-4.01,8.84,0.5244444444444445,0.25,-0.7888888888888889,-1.0625,-0.8125,-0.0625
1589380754.4250393,-0.25,-3.98,8.79,0.5244444444444445,0.25,-0.7888888888888889,-1.1875,-0.9375,-0.0625
1589380754.4392927,-0.7,-1.9,8.75,0.5244444444444445,0.25,-0.7888888888888889,-1.75,-1.375,0.75
1589380754.4473147,-0.72,-2.03,9.02,0.5244444444444445,0.25,-0.7888888888888889,-1.75,-3.1875,7.0625
1589380754.45877,-0.47,-2.24,8.89,0.5455555555555556,0.25,-0.7744444444444445,-0.1875,-0.8125,17.375
1589380754.4656258,-0.3,-2.62,9.09,0.5455555555555556,0.25,-0.7744444444444445,-1.6875,-3.625,26.0625
1589380754.4784029,-0.33,-2.48,8.82,0.5455555555555556,0.25,-0.7744444444444445,-1.25,-3.9375,30.0
1589380754.4848325,-0.41,-2.52,8.77,0.5455555555555556,0.25,-0.7744444444444445,0.875,-0.9375,32.5
1589380754.5000153,-0.28,-2.65,9.0,0.5455555555555556,0.25,-0.7744444444444445,-0.5,-2.5625,35.5625
1589380754.506209,-0.3,-2.6,9.07,0.5111111111111111,0.2577777777777778,-0.7744444444444445,-1.125,-4.125,37.25
1589380754.5179398,-0.42,-2.62,8.96,0.5111111111111111,0.2577777777777778,-0.7744444444444445,-0.5625,-3.3125,38.75
1589380754.5265718,-0.47,-2.65,8.95,0.5111111111111111,0.2577777777777778,-0.7744444444444445,-1.25,-3.875,42.0
1589380754.538652,-0.51,-2.67,8.91,0.5111111111111111,0.2577777777777778,-0.7744444444444445,-1.0,-4.0,46.125
1589380754.5537472,-0.45,-2.66,8.99,0.5111111111111111,0.2577777777777778,-0.7744444444444445,-1.375,-4.4375,50.6875
1589380754.5597465,-0.46,-2.67,9.0,0.5311111111111111,0.24444444444444444,-0.7888888888888889,-1.4375,-4.75,54.4375
1589380754.5705276,-0.45,-2.72,8.98,0.5311111111111111,0.24444444444444444,-0.7888888888888889,-1.4375,-5.125,57.875
1589380754.5772223,-0.46,-2.71,8.87,0.5311111111111111,0.24444444444444444,-0.7888888888888889,-1.5625,-5.4375,61.0
1589380754.5918891,-0.47,-2.73,8.88,0.5311111111111111,0.24444444444444444,-0.7888888888888889,-1.6875,-5.6875,64.4375
1589380754.598928,-0.44,-2.73,8.94,0.5311111111111111,0.24444444444444444,-0.7888888888888889,-1.75,-6.3125,67.875
1589380754.609882,-0.41,-2.77,9.0,0.5377777777777778,0.19666666666666666,-0.8033333333333333,-1.6875,-6.6875,70.5
1589380754.6165712,-0.38,-2.87,9.02,0.5377777777777778,0.19666666666666666,-0.8033333333333333,-1.625,-6.875,71.75
1589380754.6283493,-0.42,-2.83,8.93,0.5377777777777778,0.19666666666666666,-0.8033333333333333,-1.875,-6.75,71.6875
1589380754.6361654,-0.47,-2.84,8.94,0.5377777777777778,0.19666666666666666,-0.8033333333333333,-1.75,-6.625,71.1875
1589380754.6484175,-0.52,-2.83,9.01,0.5377777777777778,0.19666666666666666,-0.8033333333333333,-1.8125,-6.5,71.25
1589380754.6559978,-0.54,-2.94,9.03,0.5311111111111111,0.17222222222222222,-0.8177777777777778,-1.6875,-6.4375,72.25
1589380754.668526,-0.55,-2.94,8.93,0.5311111111111111,0.17222222222222222,-0.8177777777777778,-1.875,-6.375,73.0625
1589380754.6771526,-0.52,-2.78,8.86,0.5311111111111111,0.17222222222222222,-0.8177777777777778,-1.75,-6.5,73.3125
1589380754.6872222,-0.49,-2.81,8.87,0.5311111111111111,0.17222222222222222,-0.8177777777777778,-2.0,-6.625,73.6875
1589380754.6986675,-0.49,-2.81,8.9,0.5311111111111111,0.17222222222222222,-0.8177777777777778,-1.875,-6.75,72.75
1589380754.7108405,-0.45,-2.86,8.96,0.4977777777777778,0.15777777777777774,-0.8333333333333334,-1.9375,-6.6875,70.75
1589380754.7189374,-0.49,-2.89,9.02,0.4977777777777778,0.15777777777777774,-0.8333333333333334,-1.875,-6.625,67.875
1589380754.7289715,-0.51,-2.88,8.92,0.4977777777777778,0.15777777777777774,-0.8333333333333334,-1.75,-6.0,64.4375
1589380754.742808,-0.58,-2.89,8.95,0.4977777777777778,0.15777777777777774,-0.8333333333333334,-1.75,-5.6875,60.875
1589380754.749027,-0.6,-2.9,9.04,0.4977777777777778,0.15777777777777774,-0.8333333333333334,-1.625,-5.3125,57.9375
1589380754.7564025,-0.63,-2.86,8.74,0.4388888888888889,0.09,-0.8388888888888889,-1.4375,-5.125,55.125
1589380754.7682586,-0.65,-2.91,8.98,0.4388888888888889,0.09,-0.8388888888888889,-1.75,-4.75,52.5625
1589380754.7809606,-0.71,-2.94,8.83,0.4388888888888889,0.09,-0.8388888888888889,-1.4375,-4.0,50.125
1589380754.7874367,-0.68,-2.96,8.85,0.4388888888888889,0.09,-0.8388888888888889,-1.125,-4.1875,47.875
1589380754.7998881,-0.73,-3.0,8.93,0.4388888888888889,0.09,-0.8388888888888889,-1.25,-3.875,45.5625
1589380754.807644,-0.74,-3.03,8.97,0.4066666666666667,0.048888888888888885,-0.8333333333333334,-1.25,-3.6875,43.8125
1589380754.81815,-0.8,-3.02,8.99,0.4066666666666667,0.048888888888888885,-0.8333333333333334,-1.3125,-4.0,41.8125
1589380754.8276901,-0.83,-3.07,8.83,0.4066666666666667,0.048888888888888885,-0.8333333333333334,-1.1875,-3.5,40.0625
1589380754.8387384,-0.79,-3.13,8.86,0.4066666666666667,0.048888888888888885,-0.8333333333333334,-1.375,-3.25,38.9375
1589380754.8491426,-0.81,-3.0,9.0,0.4066666666666667,0.048888888888888885,-0.8333333333333334,-1.375,-3.625,37.9375
1589380754.8597734,-0.83,-3.0,8.99,0.3888888888888889,-0.031111111111111114,-0.8033333333333333,-1.375,-3.6875,35.625
1589380754.867024,-0.91,-3.05,8.94,0.3888888888888889,-0.031111111111111114,-0.8033333333333333,-1.0,-2.25,34.3125
1589380754.878633,-0.94,-3.06,8.83,0.3888888888888889,-0.031111111111111114,-0.8033333333333333,-1.125,-2.4375,33.625
1589380754.8874512,-1.01,-3.15,8.88,0.3888888888888889,-0.031111111111111114,-0.8033333333333333,-1.375,-2.5625,33.375
1589380754.8996856,-0.99,-3.13,8.84,0.3888888888888889,-0.031111111111111114,-0.8033333333333333,-1.375,-2.125,32.875
1589380754.9075446,-0.99,-3.15,8.93,0.41,-0.08888888888888889,-0.7388888888888889,-1.4375,-2.4375,32.5
1589380754.920076,-0.97,-3.15,8.92,0.41,-0.08888888888888889,-0.7388888888888889,-1.875,-2.4375,31.875
1589380754.929256,-1.12,-3.33,8.81,0.41,-0.08888888888888889,-0.7388888888888889,-1.9375,-2.5625,31.1875
1589380754.94018,-1.25,-3.5,8.86,0.41,-0.08888888888888889,-0.7388888888888889,-1.5625,-2.0625,29.625
1589380754.9532511,-1.18,-3.38,8.96,0.41,-0.08888888888888889,-0.7388888888888889,-2.125,-2.125,28.9375
1589380754.9584866,-1.16,-3.33,8.95,0.4477777777777778,-0.11666666666666667,-0.7111111111111111,-1.9375,-2.125,28.3125
1589380754.9719071,-1.25,-3.35,8.91,0.4477777777777778,-0.11666666666666667,-0.7111111111111111,-1.875,-1.5,27.1875
1589380754.9778914,-1.31,-3.45,8.86,0.4477777777777778,-0.11666666666666667,-0.7111111111111111,-1.8125,-1.375,26.375
1589380754.9886756,-1.33,-3.46,8.87,0.4477777777777778,-0.11666666666666667,-0.7111111111111111,-1.6875,-1.125,26.0
1589380755.000687,-1.29,-3.4,8.87,0.4477777777777778,-0.11666666666666667,-0.7111111111111111,-1.5,-1.0625,25.4375
1589380755.011303,-1.34,-3.43,8.94,0.4777777777777778,-0.1111111111111111,-0.6755555555555556,-1.625,-0.9375,24.9375
1589380755.0178359,-1.37,-3.42,8.86,0.4777777777777778,-0.1111111111111111,-0.6755555555555556,-1.6875,-1.0625,24.5
1589380755.0283453,-1.33,-3.39,8.8,0.4777777777777778,-0.1111111111111111,-0.6755555555555556,-1.625,-1.1875,23.6875
1589380755.0387993,-1.33,-3.36,8.85,0.4777777777777778,-0.1111111111111111,-0.6755555555555556,-1.4375,-1.25,22.8125
1589380755.0500176,-1.32,-3.35,8.88,0.4777777777777778,-0.1111111111111111,-0.6755555555555556,-1.5,-1.3125,21.8125
1589380755.0579937,-1.47,-3.6,8.91,0.5188888888888888,-0.07555555555555556,-0.6677777777777778,-1.125,-1.1875,19.375
1589380755.0682619,-1.52,-3.67,8.86,0.5188888888888888,-0.07555555555555556,-0.6677777777777778,-1.125,-1.1875,19.375
1589380755.079787,-1.45,-3.38,8.88,0.5188888888888888,-0.07555555555555556,-0.6677777777777778,-1.0,-0.375,17.5625
1589380755.0905025,-1.45,-3.32,8.85,0.5188888888888888,-0.07555555555555556,-0.6677777777777778,-0.5,-0.8125,14.75
1589380755.1041484,-1.4,-3.32,8.93,0.5188888888888888,-0.07555555555555556,-0.6677777777777778,-0.75,-0.8125,13.625
1589380755.1096745,-1.36,-3.22,8.91,0.5722222222222222,-0.04,-0.6611111111111111,-0.6875,-1.0625,11.5625
1589380755.1178415,-1.37,-3.2,8.95,0.5722222222222222,-0.04,-0.6611111111111111,-0.375,-0.5625,9.1875
1589380755.1292615,-1.5,-3.26,8.82,0.5722222222222222,-0.04,-0.6611111111111111,-0.375,-0.375,7.375
1589380755.1421561,-1.49,-3.27,8.86,0.5722222222222222,-0.04,-0.6611111111111111,-0.3125,-0.25,6.5
1589380755.1509752,-1.56,-3.34,8.91,0.5722222222222222,-0.04,-0.6611111111111111,-0.375,-0.3125,6.0625
1589380755.162125,-1.58,-3.3,8.97,0.6288888888888889,-0.03888888888888889,-0.6766666666666666,-0.125,-0.5625,5.75
1589380755.1687515,-1.57,-3.29,8.93,0.6288888888888889,-0.03888888888888889,-0.6766666666666666,-0.0625,-0.25,5.5625
1589380755.1792526,-1.52,-3.23,8.87,0.6288888888888889,-0.03888888888888889,-0.6766666666666666,-0.125,-0.4375,5.0625
1589380755.1892946,-1.54,-3.22,8.9,0.6288888888888889,-0.03888888888888889,-0.6766666666666666,-0.0625,-0.1875,4.5
1589380755.2006128,-1.53,-3.34,8.89,0.6288888888888889,-0.03888888888888889,-0.6766666666666666,-0.0625,-0.5,5.625
1589380755.208093,-1.46,-3.3,8.96,0.7333333333333333,-0.07111111111111111,-0.8188888888888889,0.0625,-0.75,4.5625
1589380755.2184613,-1.86,-3.31,8.88,0.7333333333333333,-0.07111111111111111,-0.8188888888888889,0.6875,0.375,4.1875
1589380755.2290044,-1.76,-3.24,8.78,0.7333333333333333,-0.07111111111111111,-0.8188888888888889,-0.4375,-1.5625,8.5
1589380755.2415414,-1.8,-3.23,8.94,0.7333333333333333,-0.07111111111111111,-0.8188888888888889,0.0,-1.3125,9.375
1589380755.2502015,-1.83,-3.2,8.89,0.7333333333333333,-0.07111111111111111,-0.8188888888888889,0.3125,-0.875,12.25
1589380755.25835,-1.63,-3.19,8.92,0.6,-0.19333333333333333,-0.76,-0.25,-2.0,15.5625
1589380755.2644675,-1.63,-3.19,8.92,0.6,-0.19333333333333333,-0.76,-0.25,-2.0,15.5625
1589380755.276057,-1.82,-3.31,8.91,0.6,-0.19333333333333333,-0.76,0.0,-1.625,17.25
1589380755.28201,-1.77,-3.33,8.8,0.6,-0.19333333333333333,-0.76,-0.125,-1.5625,20.5
1589380755.2941992,-1.7,-3.32,8.88,0.6,-0.19333333333333333,-0.76,-0.25,-2.125,23.0625
1589380755.3015325,-1.75,-3.33,8.94,0.6,-0.19333333333333333,-0.76,-0.375,-2.4375,24.75
1589380755.3130574,-1.7,-3.31,8.93,0.5366666666666666,-0.13777777777777778,-0.6755555555555556,-0.1875,-2.3125,26.3125
1589380755.3190534,-1.72,-3.37,8.91,0.5366666666666666,-0.13777777777777778,-0.6755555555555556,-0.375,-2.375,27.625
1589380755.3341367,-1.65,-3.38,8.82,0.5366666666666666,-0.13777777777777778,-0.6755555555555556,-0.375,-2.5625,28.5
1589380755.3410268,-1.65,-3.38,8.88,0.5366666666666666,-0.13777777777777778,-0.6755555555555556,-0.375,-2.625,28.625
1589380755.3536892,-1.68,-3.45,8.9,0.5366666666666666,-0.13777777777777778,-0.6755555555555556,-0.375,-2.6875,29.25
1589380755.3592613,-1.72,-3.55,8.92,0.5311111111111111,-0.07777777777777778,-0.6466666666666666,-0.5,-2.9375,29.75
1589380755.3727612,-1.72,-3.57,8.93,0.5311111111111111,-0.07777777777777778,-0.6466666666666666,-0.4375,-2.875,29.9375
1589380755.3786194,-1.8,-3.74,8.82,0.5311111111111111,-0.07777777777777778,-0.6466666666666666,-0.5,-2.75,29.9375
1589380755.3895204,-1.68,-3.65,8.85,0.5311111111111111,-0.07777777777777778,-0.6466666666666666,-0.3125,-2.6875,29.75
1589380755.403586,-1.73,-3.68,8.88,0.5311111111111111,-0.07777777777777778,-0.6466666666666666,-0.4375,-2.5,28.5625
1589380755.4101286,-1.59,-3.6,8.9,0.5166666666666667,-0.04777777777777778,-0.6611111111111111,-0.3125,-2.1875,26.25
1589380755.420943,-1.51,-3.52,8.88,0.5166666666666667,-0.04777777777777778,-0.6611111111111111,0.0,-1.875,21.875
1589380755.4329085,-1.52,-3.53,8.81,0.5166666666666667,-0.04777777777777778,-0.6611111111111111,0.125,-1.375,16.0
1589380755.4405446,-1.55,-3.53,8.84,0.5166666666666667,-0.04777777777777778,-0.6611111111111111,0.0625,-0.875,10.0625
1589380755.4519606,-1.61,-3.57,8.88,0.5166666666666667,-0.04777777777777778,-0.6611111111111111,0.25,-0.375,4.0625
1589380755.4647715,-1.64,-3.56,8.93,0.5288888888888889,-0.04,-0.6677777777777778,0.25,0.0,-1.5
1589380755.4709651,-1.63,-3.54,8.91,0.5288888888888889,-0.04,-0.6677777777777778,0.625,0.625,-6.6875
1589380755.4843981,-1.79,-3.68,8.86,0.5288888888888889,-0.04,-0.6677777777777778,0.5,1.0,-10.875
1589380755.4914205,-1.63,-3.56,8.9,0.5288888888888889,-0.04,-0.6677777777777778,0.875,1.1875,-14.9375
1589380755.5021462,-1.69,-3.58,8.92,0.5288888888888889,-0.04,-0.6677777777777778,1.125,1.6875,-18.625
1589380755.5096815,-1.67,-3.58,8.92,0.5333333333333333,-0.04,-0.6766666666666666,1.25,2.125,-21.8125
1589380755.5233936,-1.73,-3.65,8.88,0.5333333333333333,-0.04,-0.6766666666666666,1.3125,2.375,-24.6875
1589380755.5305707,-1.62,-3.58,8.81,0.5333333333333333,-0.04,-0.6766666666666666,1.4375,2.5,-27.5625
1589380755.54367,-1.65,-3.53,8.85,0.5333333333333333,-0.04,-0.6766666666666666,1.6875,2.8125,-30.6875
1589380755.5525231,-1.67,-3.56,8.9,0.5333333333333333,-0.04,-0.6766666666666666,1.625,3.25,-33.3125
1589380755.5606582,-1.65,-3.52,8.94,0.5466666666666666,-0.015555555555555557,-0.6622222222222223,1.625,3.0625,-35.6875
1589380755.5702894,-1.6,-3.52,8.89,0.5466666666666666,-0.015555555555555557,-0.6622222222222223,1.6875,3.0625,-37.6875
1589380755.5807106,-1.65,-3.54,8.82,0.5466666666666666,-0.015555555555555557,-0.6622222222222223,1.75,3.5,-39.75
1589380755.5908716,-1.75,-3.62,8.92,0.5466666666666666,-0.015555555555555557,-0.6622222222222223,1.6875,3.5625,-41.75
1589380755.6027038,-1.62,-3.48,8.91,0.5466666666666666,-0.015555555555555557,-0.6622222222222223,1.5625,3.75,-43.4375
1589380755.612339,-1.59,-3.48,8.95,0.5777777777777777,-0.015555555555555557,-0.6766666666666666,1.8125,4.0,-45.25
1589380755.6233332,-1.62,-3.48,8.96,0.5777777777777777,-0.015555555555555557,-0.6766666666666666,1.875,4.25,-47.25
1589380755.6357431,-1.61,-3.43,8.84,0.5777777777777777,-0.015555555555555557,-0.6766666666666666,1.8125,4.25,-48.5625
1589380755.6420455,-1.64,-3.46,8.9,0.5777777777777777,-0.015555555555555557,-0.6766666666666666,1.75,4.5,-49.5
1589380755.6578007,-1.69,-3.4,8.91,0.5777777777777777,-0.015555555555555557,-0.6766666666666666,1.8125,4.6875,-50.1875
1589380755.6643188,-1.69,-3.42,8.91,0.57,0.017777777777777778,-0.6844444444444444,1.625,4.625,-49.9375
1589380755.674579,-1.69,-3.41,8.9,0.57,0.017777777777777778,-0.6844444444444444,1.625,4.5625,-49.25
1589380755.681092,-1.65,-3.41,8.84,0.57,0.017777777777777778,-0.6844444444444444,1.6875,4.4375,-48.5625
1589380755.6936653,-1.65,-3.41,8.86,0.57,0.017777777777777778,-0.6844444444444444,1.6875,4.375,-48.1875
1589380755.7031991,-1.6,-3.42,8.9,0.57,0.017777777777777778,-0.6844444444444444,1.8125,4.25,-47.6875
1589380755.7141356,-1.71,-3.48,8.93,0.59,0.017777777777777778,-0.6622222222222223,1.625,4.375,-46.75
1589380755.7211967,-1.82,-3.61,8.92,0.59,0.017777777777777778,-0.6622222222222223,1.5,4.0625,-45.3125
1589380755.7311034,-1.82,-3.57,8.81,0.59,0.017777777777777778,-0.6622222222222223,1.375,3.75,-42.0625
1589380755.741784,-1.97,-3.6,8.87,0.59,0.017777777777777778,-0.6622222222222223,1.5,3.375,-38.1875
1589380755.7533221,-1.5,-3.65,8.98,0.59,0.017777777777777778,-0.6622222222222223,0.9375,2.8125,-32.0625
1589380755.760451,-1.74,-3.76,8.87,0.6577777777777778,0.008888888888888889,-0.6844444444444444,0.8125,2.1875,-28.0
1589380755.7707305,-1.71,-4.02,8.77,0.6577777777777778,0.008888888888888889,-0.6844444444444444,1.5625,2.9375,-20.0625
1589380755.7805655,-1.51,-4.13,8.74,0.6577777777777778,0.008888888888888889,-0.6844444444444444,0.875,1.5625,-11.0
1589380755.7921743,-1.48,-4.02,8.9,0.6577777777777778,0.008888888888888889,-0.6844444444444444,0.0625,0.0,-5.5
1589380755.8022015,-1.63,-3.88,8.9,0.6577777777777778,0.008888888888888889,-0.6844444444444444,0.375,0.6875,-1.6875
1589380755.81375,-1.56,-3.63,8.96,0.8666666666666667,-0.027777777777777776,-0.6911111111111111,-0.3125,-0.75,2.375
1589380755.821458,-1.6,-3.48,8.91,0.8666666666666667,-0.027777777777777776,-0.6911111111111111,-0.1875,-1.0,4.8125
1589380755.8313925,-1.63,-3.45,8.88,0.8666666666666667,-0.027777777777777776,-0.6911111111111111,0.0625,-0.5,7.3125
1589380755.8452187,-1.39,-3.37,8.9,0.8666666666666667,-0.027777777777777776,-0.6911111111111111,0.0625,-0.8125,10.3125
1589380755.8529055,-1.41,-3.45,8.94,0.8666666666666667,-0.027777777777777776,-0.6911111111111111,-0.1875,-0.9375,12.3125
1589380755.8650644,-1.5,-3.46,8.91,1.4055555555555554,-0.16444444444444445,-0.8044444444444444,0.0625,-1.0625,14.3125
1589380755.8719876,-1.53,-3.43,8.94,1.4055555555555554,-0.16444444444444445,-0.8044444444444444,-0.375,-1.5625,16.1875
1589380755.883714,-1.69,-3.4,8.81,1.4055555555555554,-0.16444444444444445,-0.8044444444444444,-0.3125,-1.75,18.5
1589380755.892163,-1.69,-3.35,8.9,1.4055555555555554,-0.16444444444444445,-0.8044444444444444,-0.25,-1.75,22.5625
1589380755.9039333,-1.67,-3.33,8.98,1.4055555555555554,-0.16444444444444445,-0.8044444444444444,-0.75,-2.625,27.4375
1589380755.9114196,-1.55,-3.26,8.96,1.502222222222222,-0.4711111111111111,-0.92,-0.6875,-3.0,31.875
1589380755.9220624,-1.48,-3.3,8.91,1.502222222222222,-0.4711111111111111,-0.92,-0.875,-3.3125,36.0625
1589380755.9331055,-1.55,-3.34,8.79,1.502222222222222,-0.4711111111111111,-0.92,-1.0,-3.625,39.8125
1589380755.944295,-1.6,-3.4,8.88,1.502222222222222,-0.4711111111111111,-0.92,-0.8125,-3.625,43.8125
1589380755.954214,-1.57,-3.33,8.94,1.502222222222222,-0.4711111111111111,-0.92,-0.875,-4.1875,48.375
1589380755.9648142,-1.54,-3.31,8.96,0.8366666666666667,-0.21777777777777774,-0.75,-1.125,-4.4375,52.75
1589380755.9740634,-1.53,-3.35,8.98,0.8366666666666667,-0.21777777777777774,-0.75,-1.1875,-5.0,56.75
1589380755.9838085,-1.5,-3.32,8.88,0.8366666666666667,-0.21777777777777774,-0.75,-1.0625,-5.1875,59.875
1589380755.9969618,-1.33,-3.17,8.93,0.8366666666666667,-0.21777777777777774,-0.75,-1.1875,-5.625,61.875
1589380756.0043395,-1.37,-3.15,8.95,0.8366666666666667,-0.21777777777777774,-0.75,-1.25,-5.75,62.1875
1589380756.016808,-1.4,-3.2,8.96,0.6466666666666666,-0.07222222222222223,-0.7211111111111111,-1.125,-5.5625,61.75
1589380756.023106,-1.33,-3.17,8.9,0.6466666666666666,-0.07222222222222223,-0.7211111111111111,-1.1875,-5.875,61.4375
1589380756.0353274,-1.32,-3.17,8.82,0.6466666666666666,-0.07222222222222223,-0.7211111111111111,-1.0625,-5.6875,59.8125
1589380756.042967,-1.28,-3.18,8.89,0.6466666666666666,-0.07222222222222223,-0.7211111111111111,-1.0625,-5.4375,57.875
1589380756.0569825,-1.31,-3.23,8.99,0.6466666666666666,-0.07222222222222223,-0.7211111111111111,-1.0,-5.375,55.3125
1589380756.0626285,-1.24,-3.24,8.93,0.5544444444444444,-0.027777777777777776,-0.7211111111111111,-1.0,-5.0625,52.8125
1589380756.0728295,-1.19,-3.2,8.97,0.5544444444444444,-0.027777777777777776,-0.7211111111111111,-1.0625,-4.8125,50.125
1589380756.0829651,-1.16,-3.23,8.83,0.5544444444444444,-0.027777777777777776,-0.7211111111111111,-0.9375,-4.125,45.0625
1589380756.093434,-1.16,-3.26,8.87,0.5544444444444444,-0.027777777777777776,-0.7211111111111111,-0.625,-3.8125,38.375
1589380756.1049929,-1.12,-3.17,9.03,0.5544444444444444,-0.027777777777777776,-0.7211111111111111,-0.625,-3.0,30.25
1589380756.1149595,-1.22,-3.18,8.94,0.5511111111111111,-0.03888888888888889,-0.7066666666666667,-0.25,-1.75,21.9375
1589380756.1233115,-1.12,-3.06,8.99,0.5511111111111111,-0.03888888888888889,-0.7066666666666667,-0.125,-1.1875,13.0
1589380756.1348796,-1.12,-3.15,8.88,0.5511111111111111,-0.03888888888888889,-0.7066666666666667,0.125,-0.1875,3.875
1589380756.147065,-1.02,-3.16,8.91,0.5511111111111111,-0.03888888888888889,-0.7066666666666667,0.3125,0.75,-5.0
1589380756.155192,-1.03,-3.16,8.98,0.5511111111111111,-0.03888888888888889,-0.7066666666666667,0.5625,1.3125,-14.625
1589380756.162893,-1.01,-3.18,8.98,0.5377777777777778,-0.04777777777777778,-0.7144444444444444,1.0,2.25,-24.75
1589380756.1745026,-0.87,-3.17,8.99,0.5377777777777778,-0.04777777777777778,-0.7144444444444444,1.25,3.1875,-35.1875
1589380756.1873145,-0.83,-3.23,8.84,0.5377777777777778,-0.04777777777777778,-0.7144444444444444,1.4375,4.6875,-46.375
1589380756.1939435,-0.97,-3.47,9.18,0.5377777777777778,-0.04777777777777778,-0.7144444444444444,1.9375,5.5625,-58.4375
1589380756.2042234,-1.32,-3.6,7.49,0.5377777777777778,-0.04777777777777778,-0.7144444444444444,6.3125,4.25,-69.8125
1589380756.2123199,-0.33,-2.86,7.06,0.5422222222222223,-0.05666666666666665,-0.7,4.9375,12.5,-77.4375
1589380756.226486,-0.73,-3.57,11.47,0.5422222222222223,-0.05666666666666665,-0.7,-2.4375,13.625,-87.5
1589380756.2328234,-0.6,-3.34,8.55,0.5422222222222223,-0.05666666666666665,-0.7,2.0625,3.3125,-100.9375
1589380756.2455685,-0.89,-3.64,8.97,0.5422222222222223,-0.05666666666666665,-0.7,3.0625,10.1875,-108.8125
1589380756.2550824,-1.02,-3.88,8.97,0.5422222222222223,-0.05666666666666665,-0.7,3.125,10.5,-115.0
1589380756.2636766,-1.09,-4.18,8.78,0.5133333333333333,0.004444444444444445,-0.6644444444444444,3.5,11.625,-118.125
1589380756.2727535,-1.44,-4.92,8.83,0.5133333333333333,0.004444444444444445,-0.6644444444444444,4.25,13.5,-118.1875
1589380756.2840474,-21.17,-26.8,8.42,0.5133333333333333,0.004444444444444445,-0.6644444444444444,3.8125,13.5,-114.1875
1589380756.2938652,3.29,11.36,1.48,0.5133333333333333,0.004444444444444445,-0.6644444444444444,-5.6875,24.4375,-90.75
1589380756.30551,0.98,0.83,0.86,0.5133333333333333,0.004444444444444445,-0.6644444444444444,-16.0,47.5,-120.1875
1589380756.3123515,0.67,0.27,9.61,0.54,0.057777777777777775,-0.6644444444444444,5.875,-15.875,-144.625
1589380756.3227065,0.67,0.27,9.61,0.54,0.057777777777777775,-0.6644444444444444,5.875,-15.875,-144.625
1589380756.3285627,-0.47,-0.28,7.97,0.54,0.057777777777777775,-0.6644444444444444,5.0625,-24.25,-133.5
1589380756.3400528,-0.47,-0.37,9.88,0.54,0.057777777777777775,-0.6644444444444444,4.375,17.8125,-117.4375
1589380756.346474,-0.92,0.16,8.65,0.54,0.057777777777777775,-0.6644444444444444,5.375,14.1875,-100.6875
1589380756.359298,-0.96,0.85,9.55,0.54,0.057777777777777775,-0.6644444444444444,1.75,6.875,-79.0625
1589380756.36604,-1.41,0.78,8.89,0.5366666666666666,0.12555555555555556,-0.6644444444444444,1.5625,6.0,-57.1875
1589380756.3778353,-2.25,-0.07,9.57,0.5366666666666666,0.12555555555555556,-0.6644444444444444,0.75,3.0,-30.625
1589380756.3837926,-0.76,-2.68,8.88,0.5366666666666666,0.12555555555555556,-0.6644444444444444,0.0,1.625,-4.875
1589380756.396067,-0.69,-2.66,9.03,0.5366666666666666,0.12555555555555556,-0.6644444444444444,-1.0625,-2.0625,4.8125
1589380756.405294,-0.78,-2.68,8.67,0.5366666666666666,0.12555555555555556,-0.6644444444444444,-0.5625,-0.625,7.5625
1589380756.4163468,-0.77,-2.82,9.19,0.5188888888888888,0.13444444444444445,-0.6355555555555555,-0.375,-0.625,9.1875
1589380756.423959,-0.58,-2.91,8.79,0.5188888888888888,0.13444444444444445,-0.6355555555555555,0.0,-0.5625,12.4375
1589380756.4343884,-0.83,-3.16,9.12,0.5188888888888888,0.13444444444444445,-0.6355555555555555,-0.1875,-2.1875,16.0
1589380756.4437075,-0.9,-3.0,8.72,0.5188888888888888,0.13444444444444445,-0.6355555555555555,0.4375,-0.4375,16.4375
1589380756.4561815,-0.88,-2.98,8.81,0.5188888888888888,0.13444444444444445,-0.6355555555555555,-0.8125,-2.0,19.375
1589380756.4631364,-0.7,-2.83,8.96,0.5255555555555556,0.15555555555555556,-0.65,-0.5625,-1.5,22.625
1589380756.4745848,-0.71,-3.0,9.08,0.5255555555555556,0.15555555555555556,-0.65,-0.625,-3.0,23.9375
1589380756.4847078,-0.84,-3.06,8.71,0.5255555555555556,0.15555555555555556,-0.65,-0.1875,-2.0625,24.25
1589380756.4949632,-0.73,-3.13,8.96,0.5255555555555556,0.15555555555555556,-0.65,-0.375,-2.625,24.75
1589380756.5103502,-0.86,-3.22,8.84,0.5255555555555556,0.15555555555555556,-0.65,-0.6875,-2.5625,23.6875
1589380756.5164955,-0.83,-3.23,8.95,0.5344444444444445,0.14555555555555555,-0.6577777777777778,-0.75,-2.4375,23.4375
1589380756.5286126,-0.83,-3.22,8.84,0.5344444444444445,0.14555555555555555,-0.6577777777777778,-0.3125,-2.5625,25.0
1589380756.5349247,-10.9,-22.88,8.44,0.5344444444444445,0.14555555555555555,-0.6577777777777778,-0.1875,-3.0,25.75
1589380756.5488648,-1.4,-7.58,6.02,0.5344444444444445,0.14555555555555555,-0.6577777777777778,5.3125,-5.8125,19.3125
1589380756.5561225,0.73,2.04,10.76,0.5344444444444445,0.14555555555555555,-0.6577777777777778,8.125,-1.3125,-15.4375
1589380756.5676465,-0.64,-2.98,9.03,0.5366666666666666,0.14666666666666667,-0.6644444444444444,1.75,4.8125,-13.5
1589380756.5739698,-0.79,-3.05,8.91,0.5366666666666666,0.14666666666666667,-0.6644444444444444,-1.25,-0.5625,-2.8125
1589380756.5875232,-2.98,-8.05,8.43,0.5366666666666666,0.14666666666666667,-0.6644444444444444,0.75,1.1875,-0.5
1589380756.5944855,-1.0,-3.3,8.78,0.5366666666666666,0.14666666666666667,-0.6644444444444444,0.0,-0.9375,-2.375
1589380756.6079626,-1.24,-4.02,8.88,0.5366666666666666,0.14666666666666667,-0.6644444444444444,0.4375,-0.5625,-1.375
1589380756.613927,-1.19,-3.84,8.88,0.5366666666666666,0.12777777777777774,-0.65,0.0625,0.6875,0.125
1589380756.624026,-1.23,-3.94,8.85,0.5366666666666666,0.12777777777777774,-0.65,0.1875,0.5,0.0625
1589380756.6297352,-1.23,-3.94,8.85,0.5366666666666666,0.12777777777777774,-0.65,0.1875,0.5,0.0625
1589380756.6364806,-1.2,-3.88,8.82,0.5366666666666666,0.12777777777777774,-0.65,-0.0625,-0.0625,0.0
1589380756.6487017,-1.2,-3.87,8.84,0.5366666666666666,0.12777777777777774,-0.65,0.25,0.125,-0.0625
1589380756.6583414,-1.21,-3.91,8.89,0.5366666666666666,0.12777777777777774,-0.65,-0.125,0.0,0.0625
1589380756.6662927,-1.2,-3.88,8.86,0.5288888888888889,0.15222222222222226,-0.65,-0.25,0.0,0.125
1589380756.6809928,-1.2,-3.89,8.81,0.5288888888888889,0.15222222222222226,-0.65,-0.25,0.0,-0.0625
1589380756.687517,-1.21,-3.92,8.8,0.5288888888888889,0.15222222222222226,-0.65,0.0625,0.0,0.0625
1589380756.7000942,-1.18,-3.9,8.87,0.5288888888888889,0.15222222222222226,-0.65,0.3125,-0.125,0.0625
1589380756.707683,-1.2,-3.93,8.91,0.5288888888888889,0.15222222222222226,-0.65,0.1875,0.0,0.0625
1589380756.7200346,-1.19,-3.85,8.92,0.5366666666666666,0.14,-0.6433333333333333,-0.0625,-0.1875,0.0625
1589380756.7261744,-1.21,-3.93,8.86,0.5366666666666666,0.14,-0.6433333333333333,-0.1875,-0.1875,0.0
1589380756.7392435,-1.18,-3.9,8.79,0.5366666666666666,0.14,-0.6433333333333333,-0.25,-0.125,0.0625
1589380756.745564,-1.2,-3.9,8.87,0.5366666666666666,0.14,-0.6433333333333333,0.0,0.0625,-0.0625
1589380756.7584481,-1.21,-3.88,8.88,0.5366666666666666,0.14,-0.6433333333333333,0.0625,-0.125,0.0
1589380756.765567,-1.21,-3.92,8.87,0.5166666666666667,0.13333333333333333,-0.65,-0.125,-0.0625,0.125
1589380756.776977,-1.2,-3.91,8.92,0.5166666666666667,0.13333333333333333,-0.65,-0.3125,-0.25,0.125
1589380756.7861545,-1.18,-3.91,8.75,0.5166666666666667,0.13333333333333333,-0.65,-0.125,0.0,-0.0625
1589380756.7955935,-1.18,-3.9,8.85,0.5166666666666667,0.13333333333333333,-0.65,0.0,-0.3125,-0.125
1589380756.8094676,-1.2,-3.9,8.88,0.5166666666666667,0.13333333333333333,-0.65,0.25,-0.1875,0.0625
1589380756.820064,-1.19,-3.89,8.88,0.5222222222222223,0.13333333333333333,-0.65,0.125,0.0625,0.0
1589380756.8303142,-1.19,-3.9,8.87,0.5222222222222223,0.13333333333333333,-0.65,-0.125,0.125,-0.0625
1589380756.836271,-1.21,-3.91,8.81,0.5222222222222223,0.13333333333333333,-0.65,-0.125,0.125,0.0
1589380756.8469064,-1.19,-3.91,8.81,0.5222222222222223,0.13333333333333333,-0.65,-0.0625,0.125,0.0
1589380756.8590946,-1.22,-3.89,8.88,0.5222222222222223,0.13333333333333333,-0.65,0.0625,0.125,-0.125
1589380756.8660936,-1.18,-3.9,8.9,0.5288888888888889,0.13333333333333333,-0.6644444444444444,0.0625,0.1875,0.0
1589380756.8774498,-1.17,-3.93,8.87,0.5288888888888889,0.13333333333333333,-0.6644444444444444,-0.0625,0.25,-0.125
1589380756.89094,-1.21,-3.92,8.8,0.5288888888888889,0.13333333333333333,-0.6644444444444444,0.0625,0.1875,0.0625
1589380756.896693,-1.19,-3.89,8.84,0.5288888888888889,0.13333333333333333,-0.6644444444444444,0.1875,-0.0625,0.0
1589380756.9119394,-1.19,-3.89,8.86,0.5288888888888889,0.13333333333333333,-0.6644444444444444,0.25,-0.125,0.1875
1589380756.9185393,-1.19,-3.87,8.91,0.5488888888888889,0.14666666666666667,-0.65,0.1875,0.125,-0.1875
1589380756.9292345,-1.18,-3.92,8.82,0.5488888888888889,0.14666666666666667,-0.65,0.1875,0.375,-0.0625
1589380756.9360476,-1.19,-3.91,8.77,0.5488888888888889,0.14666666666666667,-0.65,-0.125,0.125,-0.0625
1589380756.9491208,-1.2,-3.9,8.8,0.5488888888888889,0.14666666666666667,-0.65,-0.0625,0.1875,-0.0625
1589380756.959303,-1.2,-3.91,8.88,0.5488888888888889,0.14666666666666667,-0.65,0.0625,0.0,-0.0625
1589380756.96933,-1.19,-3.9,8.91,0.5288888888888889,0.13333333333333333,-0.65,0.125,-0.0625,0.125
1589380756.9766202,-1.2,-3.89,8.92,0.5288888888888889,0.13333333333333333,-0.65,-0.125,0.0625,0.0
1589380756.9865313,-1.22,-3.92,8.78,0.5288888888888889,0.13333333333333333,-0.65,0.0,-0.125,0.0625
1589380756.9974835,-1.2,-3.9,8.84,0.5288888888888889,0.13333333333333333,-0.65,0.1875,-0.125,0.125
1589380757.0097628,-1.18,-3.89,8.89,0.5288888888888889,0.13333333333333333,-0.65,0.125,-0.125,0.0
1589380757.0167367,-1.18,-3.87,8.9,0.5288888888888889,0.15222222222222226,-0.6788888888888889,-0.0625,0.0625,0.0
1589380757.029933,-1.21,-3.9,8.91,0.5288888888888889,0.15222222222222226,-0.6788888888888889,-0.125,-0.125,0.0
1589380757.0397522,-1.21,-3.93,8.78,0.5288888888888889,0.15222222222222226,-0.6788888888888889,-0.125,-0.125,0.0
1589380757.0469565,-1.19,-3.9,8.8,0.5288888888888889,0.15222222222222226,-0.6788888888888889,0.125,0.0,0.125
1589380757.0593514,-1.2,-3.89,8.86,0.5288888888888889,0.15222222222222226,-0.6788888888888889,0.125,0.125,-0.0625
1589380757.0674286,-1.18,-3.9,8.91,0.5366666666666666,0.13333333333333333,-0.6577777777777778,0.125,0.125,0.0
1589380757.080335,-1.2,-3.91,8.89,0.5366666666666666,0.13333333333333333,-0.6577777777777778,0.0,-0.0625,0.125
1589380757.087857,-1.21,-3.91,8.8,0.5366666666666666,0.13333333333333333,-0.6577777777777778,0.0,0.0,0.0
1589380757.1005929,-1.2,-3.91,8.79,0.5366666666666666,0.13333333333333333,-0.6577777777777778,-0.0625,0.0,-0.0625
1589380757.1094005,-1.19,-3.91,8.9,0.5366666666666666,0.13333333333333333,-0.6577777777777778,0.1875,-0.1875,0.0625
1589380757.1175325,-1.19,-3.9,8.9,0.5222222222222223,0.14,-0.6644444444444444,-0.0625,0.0625,0.0
1589380757.1278224,-1.21,-3.88,8.91,0.5222222222222223,0.14,-0.6644444444444444,-0.0625,0.0,-0.0625
1589380757.1401007,-1.17,-3.91,8.77,0.5222222222222223,0.14,-0.6644444444444444,-0.0625,0.1875,0.0
1589380757.1472595,-1.21,-3.9,8.81,0.5222222222222223,0.14,-0.6644444444444444,0.0625,0.0,0.0625
1589380757.1600678,-1.2,-3.92,8.87,0.5222222222222223,0.14,-0.6644444444444444,0.25,0.0,0.125
1589380757.167352,-1.21,-3.89,8.91,0.5222222222222223,0.12777777777777774,-0.6644444444444444,0.25,0.0625,0.0625
1589380757.1772034,-1.19,-3.89,8.84,0.5222222222222223,0.12777777777777774,-0.6644444444444444,0.0625,0.0,0.0625
1589380757.1879153,-1.2,-3.89,8.79,0.5222222222222223,0.12777777777777774,-0.6644444444444444,-0.125,0.0,0.0
1589380757.1978016,-1.2,-3.9,8.82,0.5222222222222223,0.12777777777777774,-0.6644444444444444,-0.125,0.0,0.0
1589380757.210791,-1.21,-3.91,8.87,0.5222222222222223,0.12777777777777774,-0.6644444444444444,-0.0625,-0.125,0.125
1589380757.2178679,-1.19,-3.9,8.89,0.5222222222222223,0.14,-0.6577777777777778,0.125,-0.125,-0.125
1589380757.233099,-1.2,-3.91,8.89,0.5222222222222223,0.14,-0.6577777777777778,0.0,0.0625,-0.0625
1589380757.2397342,-1.19,-3.9,8.81,0.5222222222222223,0.14,-0.6577777777777778,0.0625,-0.0625,0.0
1589380757.2516372,-1.19,-3.9,8.86,0.5222222222222223,0.14,-0.6577777777777778,-0.0625,-0.125,0.0
1589380757.2612574,-1.2,-3.9,8.87,0.5222222222222223,0.14,-0.6577777777777778,0.125,0.0625,0.125
1589380757.2719266,-1.2,-3.9,8.9,0.5433333333333333,0.14,-0.65,0.125,0.0625,-0.125
1589380757.2789135,-1.2,-3.88,8.91,0.5433333333333333,0.14,-0.65,-0.0625,0.0625,0.1875
1589380757.290716,-1.19,-3.88,8.82,0.5433333333333333,0.14,-0.65,-0.0625,0.0,0.0
1589380757.298126,-1.19,-3.89,8.83,0.5433333333333333,0.14,-0.65,-0.1875,-0.0625,-0.125
1589380757.310609,-1.21,-3.93,8.84,0.5433333333333333,0.14,-0.65,0.0,0.125,0.0625
1589380757.3188305,-1.22,-3.91,8.91,0.5433333333333333,0.15222222222222226,-0.6577777777777778,0.0,0.0625,0.125
1589380757.3284135,-1.2,-3.91,8.86,0.5433333333333333,0.15222222222222226,-0.6577777777777778,0.25,0.125,0.0625
1589380757.3397365,-1.19,-3.87,8.79,0.5433333333333333,0.15222222222222226,-0.6577777777777778,0.1875,-0.0625,0.0625
1589380757.348187,-1.18,-3.9,8.84,0.5433333333333333,0.15222222222222226,-0.6577777777777778,0.125,-0.0625,0.0
1589380757.3637474,-1.19,-3.91,8.88,0.5433333333333333,0.15222222222222226,-0.6577777777777778,0.0625,0.125,0.125
1589380757.3703222,-1.21,-3.91,8.9,0.5222222222222223,0.12,-0.6577777777777778,0.1875,0.0,0.25
1589380757.3790605,-1.2,-3.9,8.91,0.5222222222222223,0.12,-0.6577777777777778,0.0625,0.0,0.0
1589380757.3909845,-1.2,-3.92,8.79,0.5222222222222223,0.12,-0.6577777777777778,-0.0625,-0.0625,0.0
1589380757.3985493,-1.19,-3.89,8.86,0.5222222222222223,0.12,-0.6577777777777778,-0.25,0.125,0.0
1589380757.4115498,-1.19,-3.89,8.89,0.5222222222222223,0.12,-0.6577777777777778,0.0,-0.125,-0.0625
1589380757.4227207,-1.19,-3.9,8.88,0.5166666666666667,0.13333333333333333,-0.6644444444444444,0.0625,0.0625,0.0
1589380757.428979,-1.22,-3.9,8.89,0.5166666666666667,0.13333333333333333,-0.6644444444444444,0.0625,-0.0625,-0.0625
1589380757.4427593,-1.2,-3.89,8.79,0.5166666666666667,0.13333333333333333,-0.6644444444444444,0.0,-0.0625,-0.1875
1589380757.4490285,-1.2,-3.89,8.82,0.5166666666666667,0.13333333333333333,-0.6644444444444444,-0.0625,-0.0625,0.125
1589380757.4614794,-1.2,-3.9,8.85,0.5166666666666667,0.13333333333333333,-0.6644444444444444,-0.1875,0.0,-0.125
1589380757.4693465,-1.17,-3.89,8.89,0.5488888888888889,0.14,-0.6577777777777778,-0.125,-0.0625,0.0
1589380757.4797535,-1.21,-3.91,8.91,0.5488888888888889,0.14,-0.6577777777777778,0.0,0.0,-0.0625
1589380757.4887035,-1.2,-3.89,8.79,0.5488888888888889,0.14,-0.6577777777777778,0.0,0.125,-0.1875
1589380757.499993,-1.17,-3.91,8.87,0.5488888888888889,0.14,-0.6577777777777778,-0.0625,0.0,0.0625
1589380757.5114253,-1.19,-3.89,8.88,0.5488888888888889,0.14,-0.6577777777777778,-0.125,-0.1875,-0.0625
1589380757.5194516,-1.2,-3.9,8.88,0.5366666666666666,0.15222222222222226,-0.6577777777777778,-0.1875,0.125,-0.125
