time,acc_x,acc_y,acc_z,mag_x,mag_y,mag_z,gyr_x,gyr_y,gyr_z
1589380764.5515988,-0.05,-4.08,8.86,0.4955555555555556,0.23777777777777775,-0.7766666666666666,-0.1875,-0.3125,0.0
1589380764.55965,-0.06,-4.07,8.82,0.4955555555555556,0.23777777777777775,-0.7766666666666666,-0.125,-0.3125,-0.0625
1589380764.571175,-0.06,-4.07,8.71,0.4955555555555556,0.23777777777777775,-0.7766666666666666,-0.125,-0.1875,0.0625
1589380764.5845444,-0.07,-4.06,8.82,0.4955555555555556,0.23777777777777775,-0.7766666666666666,0.0625,0.0,-0.125
1589380764.5923376,-0.09,-4.07,8.9,0.4955555555555556,0.23777777777777775,-0.7766666666666666,0.1875,0.125,0.0
1589380764.5998178,-0.08,-4.04,8.89,0.5222222222222223,0.24444444444444444,-0.7688888888888888,0.1875,0.125,0.0625
1589380764.611592,-0.09,-4.07,8.9,0.5222222222222223,0.24444444444444444,-0.7688888888888888,0.0,-0.125,-0.125
1589380764.6219802,-0.07,-4.05,8.73,0.5222222222222223,0.24444444444444444,-0.7688888888888888,-0.125,-0.375,0.0625
1589380764.6301901,-0.04,-4.06,8.8,0.5222222222222223,0.24444444444444444,-0.7688888888888888,-0.1875,-0.5,0.0625
1589380764.6423151,-0.05,-4.08,8.84,0.5222222222222223,0.24444444444444444,-0.7688888888888888,-0.1875,-0.625,-0.0625
1589380764.6502953,-0.08,-4.07,8.85,0.5022222222222222,0.22333333333333333,-0.7766666666666666,-0.125,-0.5625,-0.0625
1589380764.6643994,-0.07,-4.05,8.83,0.5022222222222222,0.22333333333333333,-0.7766666666666666,-0.3125,-0.25,-0.0625
1589380764.671342,-0.08,-4.07,8.72,0.5022222222222222,0.22333333333333333,-0.7766666666666666,-0.1875,-0.1875,0.0625
1589380764.6810055,-0.07,-4.05,8.75,0.5022222222222222,0.22333333333333333,-0.7766666666666666,-0.1875,0.0625,0.0625
1589380764.692895,-0.07,-4.08,8.9,0.5022222222222222,0.22333333333333333,-0.7766666666666666,-0.25,0.0,0.0
1589380764.7029777,-0.09,-4.05,8.9,0.5166666666666667,0.22333333333333333,-0.7833333333333333,-0.125,-0.1875,0.0625
1589380764.7111633,-0.1,-4.04,8.88,0.5166666666666667,0.22333333333333333,-0.7833333333333333,0.0625,-0.1875,0.125
1589380764.7220464,-0.11,-4.02,8.78,0.5166666666666667,0.22333333333333333,-0.7833333333333333,0.0,-0.4375,0.1875
1589380764.7299635,-0.12,-4.05,8.78,0.5166666666666667,0.22333333333333333,-0.7833333333333333,-0.0625,-0.375,0.3125
1589380764.742906,-0.05,-4.09,8.85,0.5166666666666667,0.22333333333333333,-0.7833333333333333,-0.0625,-0.4375,0.4375
1589380764.7501447,-0.01,-4.08,8.87,0.5222222222222223,0.23777777777777775,-0.7766666666666666,-0.25,-0.1875,0.5
1589380764.76179,-0.03,-4.08,8.84,0.5222222222222223,0.23777777777777775,-0.7766666666666666,-0.1875,0.0,0.375
1589380764.7723966,-0.07,-4.09,8.75,0.5222222222222223,0.23777777777777775,-0.7766666666666666,-0.375,0.125,0.375
1589380764.780959,-0.05,-4.08,8.82,0.5222222222222223,0.23777777777777775,-0.7766666666666666,-0.25,0.0,0.3125
1589380764.7966216,-0.07,-4.07,8.87,0.5222222222222223,0.23777777777777775,-0.7766666666666666,-0.25,0.0,0.25
1589380764.8030677,-0.06,-4.07,8.88,0.51,0.23777777777777775,-0.7622222222222222,-0.1875,-0.125,0.1875
1589380764.815721,-0.07,-4.07,8.85,0.51,0.23777777777777775,-0.7622222222222222,-0.125,-0.125,-0.0625
1589380764.8224368,-0.07,-4.07,8.69,0.51,0.23777777777777775,-0.7622222222222222,-0.125,-0.125,0.1875
1589380764.833303,-0.05,-4.07,8.69,0.51,0.23777777777777775,-0.7622222222222222,-0.25,-0.4375,0.1875
1589380764.8435411,-0.08,-4.07,8.82,0.51,0.23777777777777775,-0.7622222222222222,-0.1875,-0.25,-0.0625
1589380764.8543015,-0.07,-4.09,8.86,0.5022222222222222,0.23777777777777775,-0.7766666666666666,-0.125,-0.3125,0.0
1589380764.8606806,-0.04,-4.09,8.9,0.5022222222222222,0.23777777777777775,-0.7766666666666666,0.0,-0.25,0.0
1589380764.8739467,-0.05,-4.07,8.76,0.5022222222222222,0.23777777777777775,-0.7766666666666666,-0.0625,-0.3125,0.0
1589380764.881404,-0.06,-4.07,8.82,0.5022222222222222,0.23777777777777775,-0.7766666666666666,-0.125,-0.1875,-0.0625
1589380764.893436,-0.04,-4.06,8.85,0.5022222222222222,0.23777777777777775,-0.7766666666666666,0.0,0.0625,-0.125
1589380764.901169,-0.04,-4.08,8.89,0.5222222222222223,0.23777777777777775,-0.7766666666666666,-0.1875,-0.125,0.0
1589380764.9110405,-0.08,-4.05,8.79,0.5222222222222223,0.23777777777777775,-0.7766666666666666,0.0,-0.375,0.0
1589380764.9209964,-0.09,-4.07,8.73,0.5222222222222223,0.23777777777777775,-0.7766666666666666,-0.1875,-0.25,0.0
1589380764.9326975,-0.07,-4.07,8.76,0.5222222222222223,0.23777777777777775,-0.7766666666666666,-0.125,-0.3125,0.125
1589380764.9473398,-0.06,-4.06,8.82,0.5222222222222223,0.23777777777777775,-0.7766666666666666,-0.25,-0.25,0.125
1589380764.95362,-0.04,-4.08,8.87,0.4955555555555556,0.25,-0.7688888888888888,-0.25,-0.5625,0.0
1589380764.9666011,-0.05,-4.07,8.88,0.4955555555555556,0.25,-0.7688888888888888,-0.1875,-0.375,-0.25
1589380764.973221,-0.07,-4.04,8.83,0.4955555555555556,0.25,-0.7688888888888888,-0.25,-0.25,0.0
1589380764.9817753,-0.08,-4.07,8.8,0.4955555555555556,0.25,-0.7688888888888888,-0.125,-0.125,0.1875
1589380764.9925613,-0.31,-3.9,8.73,0.4955555555555556,0.25,-0.7688888888888888,-0.0625,0.0625,0.5
1589380765.0042868,-0.72,-3.77,9.02,0.4955555555555556,0.24444444444444444,-0.7833333333333333,0.0,-0.375,2.25
1589380765.0111375,-0.09,-4.13,8.76,0.4955555555555556,0.24444444444444444,-0.7833333333333333,0.5,0.5,4.75
1589380765.025701,-0.17,-4.01,8.79,0.4955555555555556,0.24444444444444444,-0.7833333333333333,-0.25,-0.4375,5.1875
1589380765.031506,-0.2,-4.03,8.87,0.4955555555555556,0.24444444444444444,-0.7833333333333333,-0.6875,-0.5,5.875
1589380765.0433214,-0.03,-4.03,8.85,0.4955555555555556,0.24444444444444444,-0.7833333333333333,-0.5625,-0.1875,6.625
1589380765.0510905,0.0,-3.91,8.91,0.5222222222222223,0.23777777777777775,-0.7688888888888888,-0.5,-0.4375,6.5
1589380765.0620327,-0.09,-3.87,8.88,0.5222222222222223,0.23777777777777775,-0.7688888888888888,-0.4375,-0.25,6.375
1589380765.0721016,-0.11,-3.82,8.8,0.5222222222222223,0.23777777777777775,-0.7688888888888888,-0.375,-0.125,7.0625
1589380765.0820036,-0.02,-3.47,8.78,0.5222222222222223,0.23777777777777775,-0.7688888888888888,-0.8125,-0.75,7.1875
1589380765.098298,-0.42,-3.47,8.86,0.5222222222222223,0.23777777777777775,-0.7688888888888888,-0.75,-0.75,7.4375
1589380765.1050992,-0.31,-3.62,8.82,0.5222222222222223,0.22333333333333333,-0.7622222222222222,-0.6875,-0.625,10.75
1589380765.1125422,-0.27,-3.84,8.8,0.5222222222222223,0.22333333333333333,-0.7622222222222222,-0.5625,-1.125,12.75
1589380765.1239345,-0.18,-2.89,8.99,0.5222222222222223,0.22333333333333333,-0.7622222222222222,-1.0625,-1.5,13.6875
1589380765.1327176,-0.19,-2.72,8.96,0.5222222222222223,0.22333333333333333,-0.7622222222222222,-1.0625,-2.0,16.25
1589380765.1439464,-0.28,-2.57,9.01,0.5222222222222223,0.22333333333333333,-0.7622222222222222,-0.75,-2.25,19.125
1589380765.1560588,-0.27,-2.42,9.02,0.5222222222222223,0.21777777777777774,-0.7911111111111111,-1.0,-2.875,22.25
1589380765.162071,-0.35,-2.43,8.93,0.5222222222222223,0.21777777777777774,-0.7911111111111111,-0.25,-2.375,25.8125
1589380765.1760752,-0.35,-2.56,8.89,0.5222222222222223,0.21777777777777774,-0.7911111111111111,0.0625,-2.1875,30.25
1589380765.1821835,-0.41,-2.64,8.94,0.5222222222222223,0.21777777777777774,-0.7911111111111111,0.1875,-1.9375,33.875
1589380765.1950195,-0.51,-2.59,9.01,0.5222222222222223,0.21777777777777774,-0.7911111111111111,-0.3125,-2.3125,38.5625
1589380765.2027256,-0.49,-2.63,9.01,0.51,0.21777777777777774,-0.7766666666666666,-1.25,-3.5625,44.3125
1589380765.2152472,-0.47,-2.68,8.94,0.51,0.21777777777777774,-0.7766666666666666,-0.75,-3.6875,50.125
1589380765.223072,-0.4,-2.74,8.89,0.51,0.21777777777777774,-0.7766666666666666,-1.0625,-4.6875,54.625
1589380765.2331262,-0.41,-2.84,8.98,0.51,0.21777777777777774,-0.7766666666666666,-1.25,-5.0625,57.75
1589380765.2451613,-0.42,-2.89,8.96,0.51,0.21777777777777774,-0.7766666666666666,-1.5,-5.625,60.375
1589380765.2566175,-0.43,-2.89,8.97,0.5222222222222223,0.20444444444444448,-0.7688888888888888,-1.6875,-6.25,62.8125
1589380765.2628796,-0.49,-2.86,8.94,0.5222222222222223,0.20444444444444448,-0.7688888888888888,-1.5625,-6.1875,65.5625
1589380765.2748568,-0.42,-2.87,8.84,0.5222222222222223,0.20444444444444448,-0.7688888888888888,-1.5625,-6.375,67.8125
1589380765.2841866,-0.43,-2.81,8.91,0.5222222222222223,0.20444444444444448,-0.7688888888888888,-1.6875,-6.25,70.0
1589380765.2955,-0.42,-2.8,8.94,0.5222222222222223,0.20444444444444448,-0.7688888888888888,-1.6875,-6.375,71.75
1589380765.3062944,-0.46,-2.9,9.0,0.5222222222222223,0.17,-0.7833333333333333,-1.8125,-6.4375,73.0625
1589380765.3129382,-0.48,-2.93,8.94,0.5222222222222223,0.17,-0.7833333333333333,-1.875,-6.5625,74.375
1589380765.3251846,-0.45,-2.97,8.86,0.5222222222222223,0.17,-0.7833333333333333,-2.0,-7.125,75.625
1589380765.3334095,-0.4,-3.0,8.86,0.5222222222222223,0.17,-0.7833333333333333,-1.9375,-7.125,75.75
1589380765.3467658,-0.43,-2.96,8.93,0.5222222222222223,0.17,-0.7833333333333333,-1.9375,-7.1875,74.3125
1589380765.353215,-0.42,-2.85,8.95,0.5022222222222222,0.15777777777777774,-0.8133333333333334,-1.875,-7.0,72.625
1589380765.36311,-0.45,-2.88,8.96,0.5022222222222222,0.15777777777777774,-0.8133333333333334,-1.8125,-6.5625,70.6875
1589380765.373816,-0.47,-2.93,8.84,0.5022222222222222,0.15777777777777774,-0.8133333333333334,-1.625,-6.125,68.375
1589380765.3837442,-0.48,-2.95,8.93,0.5022222222222222,0.15777777777777774,-0.8133333333333334,-1.5625,-5.8125,66.1875
1589380765.398641,-0.51,-2.98,8.97,0.5022222222222222,0.15777777777777774,-0.8133333333333334,-1.5,-5.5625,64.0
1589380765.4045374,-0.5,-2.98,8.99,0.4633333333333333,0.11888888888888888,-0.8044444444444444,-1.4375,-5.4375,61.5625
1589380765.4139748,-0.56,-2.94,8.91,0.4633333333333333,0.11888888888888888,-0.8044444444444444,-1.5625,-5.3125,59.125
1589380765.4246647,-0.57,-2.93,8.83,0.4633333333333333,0.11888888888888888,-0.8044444444444444,-1.4375,-5.0,57.0625
1589380765.434228,-0.62,-2.95,8.86,0.4633333333333333,0.11888888888888888,-0.8044444444444444,-1.375,-5.0,54.875
1589380765.4460912,-0.67,-3.0,8.97,0.4633333333333333,0.11888888888888888,-0.8044444444444444,-1.3125,-4.875,52.8125
1589380765.4586895,-0.66,-3.0,8.92,0.4566666666666666,0.05111111111111112,-0.8122222222222222,-1.375,-4.6875,50.9375
1589380765.4655495,-0.71,-3.04,8.99,0.4566666666666666,0.05111111111111112,-0.8122222222222222,-1.3125,-4.375,49.4375
1589380765.4781635,-0.73,-3.05,8.83,0.4566666666666666,0.05111111111111112,-0.8122222222222222,-1.0,-4.0,48.1875
1589380765.4846628,-0.79,-3.17,8.92,0.4566666666666666,0.05111111111111112,-0.8122222222222222,-1.3125,-3.9375,47.5
1589380765.500714,-0.84,-3.22,8.95,0.4566666666666666,0.05111111111111112,-0.8122222222222222,-1.125,-3.75,47.125
1589380765.5062509,-0.87,-3.24,8.97,0.4266666666666667,-0.022222222222222227,-0.8,-1.25,-3.9375,46.375
1589380765.5147636,-0.8,-3.16,8.94,0.4266666666666667,-0.022222222222222227,-0.8,-1.4375,-4.0625,46.1875
1589380765.5241756,-0.87,-3.24,8.79,0.4266666666666667,-0.022222222222222227,-0.8,-1.3125,-3.9375,45.3125
1589380765.5343316,-0.88,-3.23,8.87,0.4266666666666667,-0.022222222222222227,-0.8,-1.25,-3.875,44.875
1589380765.5471168,-0.84,-3.2,8.89,0.4266666666666667,-0.022222222222222227,-0.8,-1.375,-3.75,44.0
1589380765.557879,-0.88,-3.13,8.92,0.3944444444444444,-0.05111111111111112,-0.7477777777777778,-1.375,-3.5,43.0625
1589380765.5647852,-0.93,-3.16,8.91,0.3944444444444444,-0.05111111111111112,-0.7477777777777778,-1.25,-3.375,42.375
1589380765.575983,-0.93,-3.13,8.83,0.3944444444444444,-0.05111111111111112,-0.7477777777777778,-1.4375,-3.375,41.5625
1589380765.5845735,-0.95,-3.18,8.86,0.3944444444444444,-0.05111111111111112,-0.7477777777777778,-1.625,-3.3125,41.25
1589380765.5966744,-0.99,-3.19,8.94,0.3944444444444444,-0.05111111111111112,-0.7477777777777778,-1.8125,-3.125,40.4375
1589380765.6082778,-0.98,-3.2,8.94,0.4244444444444445,-0.11333333333333333,-0.7122222222222222,-2.0,-3.0625,40.0
1589380765.6147008,-1.02,-3.19,8.91,0.4244444444444445,-0.11333333333333333,-0.7122222222222222,-2.0625,-3.1875,39.0
1589380765.624353,-1.33,-3.64,8.47,0.4244444444444445,-0.11333333333333333,-0.7122222222222222,-2.125,-3.125,38.375
1589380765.6351233,-1.3,-3.56,9.06,0.4244444444444445,-0.11333333333333333,-0.7122222222222222,-2.1875,-2.8125,37.8125
1589380765.6502345,-1.09,-3.27,8.78,0.4244444444444445,-0.11333333333333333,-0.7122222222222222,-2.0625,-2.25,37.5
1589380765.6563766,-1.09,-3.26,8.97,0.4622222222222222,-0.13444444444444445,-0.6977777777777778,-1.8125,-2.5,36.5625
1589380765.6663055,-1.13,-3.23,8.94,0.4622222222222222,-0.13444444444444445,-0.6977777777777778,-1.6875,-2.25,34.875
1589380765.6750634,-1.12,-3.25,8.8,0.4622222222222222,-0.13444444444444445,-0.6977777777777778,-1.9375,-2.0625,33.8125
1589380765.6862614,-1.15,-3.33,8.88,0.4622222222222222,-0.13444444444444445,-0.6977777777777778,-1.875,-1.875,32.6875
1589380765.6971874,-1.22,-3.34,8.9,0.4622222222222222,-0.13444444444444445,-0.6977777777777778,-1.8125,-1.75,31.1875
1589380765.7088332,-1.26,-3.39,8.83,0.4955555555555556,-0.12777777777777774,-0.6977777777777778,-1.625,-1.75,29.25
1589380765.714693,-1.23,-3.39,8.94,0.4955555555555556,-0.12777777777777774,-0.6977777777777778,-1.5625,-1.375,27.125
1589380765.7275884,-1.21,-3.34,8.78,0.4955555555555556,-0.12777777777777774,-0.6977777777777778,-1.4375,-1.25,24.875
1589380765.7351215,-1.24,-3.33,8.89,0.4955555555555556,-0.12777777777777774,-0.6977777777777778,-1.375,-1.0,21.5625
1589380765.7475462,-1.15,-3.14,8.88,0.4955555555555556,-0.12777777777777774,-0.6977777777777778,-1.125,-0.9375,17.5625
1589380765.7553287,-1.22,-3.21,8.95,0.5244444444444445,-0.09888888888888887,-0.6622222222222223,-0.8125,-0.5,13.125
1589380765.765537,-1.26,-3.27,8.95,0.5244444444444445,-0.09888888888888887,-0.6622222222222223,-0.5625,0.1875,9.25
1589380765.7756553,-1.26,-3.2,8.81,0.5244444444444445,-0.09888888888888887,-0.6622222222222223,-0.5625,0.375,5.75
1589380765.7877586,-1.21,-3.1,8.91,0.5244444444444445,-0.09888888888888887,-0.6622222222222223,-0.5625,0.25,3.0
1589380765.8016145,-1.17,-3.06,8.88,0.5244444444444445,-0.09888888888888887,-0.6622222222222223,-0.1875,0.0625,0.3125
1589380765.8075974,-1.23,-3.04,8.96,0.5577777777777778,-0.06555555555555556,-0.6555555555555556,-0.1875,0.625,-2.125
1589380765.8201158,-1.23,-3.0,8.9,0.5577777777777778,-0.06555555555555556,-0.6555555555555556,-0.125,0.75,-4.1875
1589380765.826199,-1.3,-3.03,8.79,0.5577777777777778,-0.06555555555555556,-0.6555555555555556,0.0,0.75,-6.0625
1589380765.8399491,-1.35,-3.06,8.85,0.5577777777777778,-0.06555555555555556,-0.6555555555555556,0.125,1.3125,-7.875
1589380765.8480382,-1.34,-3.05,8.94,0.5577777777777778,-0.06555555555555556,-0.6555555555555556,0.1875,0.875,-9.125
1589380765.8605356,-1.36,-3.09,8.94,0.6411111111111111,-0.03,-0.6911111111111111,0.3125,1.1875,-10.125
1589380765.8662295,-1.36,-3.06,8.96,0.6411111111111111,-0.03,-0.6911111111111111,0.3125,1.3125,-10.625
1589380765.8761127,-1.38,-3.05,8.86,0.6411111111111111,-0.03,-0.6911111111111111,0.4375,1.125,-10.9375
1589380765.886034,-1.37,-3.08,8.9,0.6411111111111111,-0.03,-0.6911111111111111,0.1875,1.1875,-11.0625
1589380765.898862,-1.41,-3.1,8.89,0.6411111111111111,-0.03,-0.6911111111111111,0.3125,1.1875,-11.125
1589380765.9060712,-1.48,-3.17,8.94,0.7155555555555555,-0.06666666666666668,-0.8633333333333333,0.4375,1.3125,-10.5625
1589380765.9162412,-1.5,-3.15,8.84,0.7155555555555555,-0.06666666666666668,-0.8633333333333333,0.5625,0.9375,-9.5625
1589380765.9270475,-1.43,-3.13,8.89,0.7155555555555555,-0.06666666666666668,-0.8633333333333333,0.9375,1.3125,-9.0
1589380765.9389727,-1.34,-3.03,8.84,0.7155555555555555,-0.06666666666666668,-0.8633333333333333,0.3125,0.5,-6.75
1589380765.9528859,-1.34,-2.98,8.95,0.7155555555555555,-0.06666666666666668,-0.8633333333333333,0.6875,0.8125,-6.3125
1589380765.9587238,-1.26,-2.94,8.98,0.5777777777777777,-0.2222222222222222,-0.7333333333333333,0.5,0.625,-5.25
1589380765.965944,-1.3,-2.99,8.98,0.5777777777777777,-0.2222222222222222,-0.7333333333333333,0.375,0.375,-4.4375
1589380765.9781182,-1.28,-3.04,8.81,0.5777777777777777,-0.2222222222222222,-0.7333333333333333,0.5,0.4375,-3.625
1589380765.9907305,-1.38,-3.14,8.86,0.5777777777777777,-0.2222222222222222,-0.7333333333333333,0.5625,0.5,-2.4375
1589380765.9991114,-1.36,-3.11,8.92,0.5777777777777777,-0.2222222222222222,-0.7333333333333333,0.375,0.375,-1.0
1589380766.0104876,-1.32,-3.11,8.98,0.5466666666666666,-0.12444444444444445,-0.67,0.3125,0.125,0.4375
1589380766.016292,-1.29,-3.15,8.95,0.5466666666666666,-0.12444444444444445,-0.67,0.4375,0.125,1.3125
1589380766.0302658,-1.34,-3.33,8.84,0.5466666666666666,-0.12444444444444445,-0.67,0.625,0.4375,1.5
1589380766.03672,-1.27,-3.26,8.85,0.5466666666666666,-0.12444444444444445,-0.67,0.4375,0.3125,1.0625
1589380766.0494225,-1.34,-3.31,8.9,0.5466666666666666,-0.12444444444444445,-0.67,0.375,0.3125,0.25
1589380766.0568762,-1.29,-3.28,8.9,0.5333333333333333,-0.06333333333333334,-0.6555555555555556,0.375,0.3125,-0.5
1589380766.0670536,-1.26,-3.27,8.89,0.5333333333333333,-0.06333333333333334,-0.6555555555555556,0.5,0.375,-1.125
1589380766.0769436,-1.37,-3.45,8.84,0.5333333333333333,-0.06333333333333334,-0.6555555555555556,0.4375,0.25,-1.4375
1589380766.0872107,-1.38,-3.42,8.79,0.5333333333333333,-0.06333333333333334,-0.6555555555555556,0.3125,0.5,-1.3125
1589380766.0990448,-1.38,-3.5,8.9,0.5333333333333333,-0.06333333333333334,-0.6555555555555556,0.5,0.5,-0.625
1589380766.1103773,-1.31,-3.48,8.96,0.5466666666666666,-0.03888888888888889,-0.6622222222222223,0.4375,0.125,0.1875
1589380766.117344,-1.26,-3.48,8.93,0.5466666666666666,-0.03888888888888889,-0.6622222222222223,0.625,0.1875,0.375
1589380766.1273832,-1.17,-3.41,8.85,0.5466666666666666,-0.03888888888888889,-0.6622222222222223,0.6875,0.3125,-1.0
1589380766.1397645,-1.16,-3.34,8.89,0.5466666666666666,-0.03888888888888889,-0.6622222222222223,0.5,0.625,-3.1875
1589380766.1492386,-1.21,-3.34,8.93,0.5466666666666666,-0.03888888888888889,-0.6622222222222223,0.625,0.75,-6.25
1589380766.1605818,-1.1,-3.31,8.91,0.54,-0.012222222222222223,-0.6766666666666666,0.6875,1.125,-9.0625
1589380766.1676328,-1.16,-3.3,8.9,0.54,-0.012222222222222223,-0.6766666666666666,0.9375,1.5,-12.25
1589380766.1773524,-1.24,-3.36,8.87,0.54,-0.012222222222222223,-0.6766666666666666,1.0625,1.3125,-15.25
1589380766.1887646,-1.18,-3.33,8.84,0.54,-0.012222222222222223,-0.6766666666666666,1.3125,1.9375,-18.0
1589380766.2011955,-1.22,-3.34,8.93,0.54,-0.012222222222222223,-0.6766666666666666,1.4375,2.0,-20.375
1589380766.2076313,-1.22,-3.35,8.97,0.5466666666666666,0.0011111111111111113,-0.67,1.4375,2.375,-22.875
1589380766.220867,-1.2,-3.25,8.95,0.5466666666666666,0.0011111111111111113,-0.67,1.5625,2.375,-24.8125
1589380766.227252,-1.21,-3.24,8.85,0.5466666666666666,0.0011111111111111113,-0.67,1.8125,2.5,-26.625
1589380766.2379572,-1.26,-3.24,8.89,0.5466666666666666,0.0011111111111111113,-0.67,1.75,2.5625,-28.0625
1589380766.250075,-1.26,-3.27,8.92,0.5466666666666666,0.0011111111111111113,-0.67,1.5625,2.8125,-29.0625
1589380766.2598774,-1.28,-3.29,8.92,0.5522222222222222,0.013333333333333334,-0.6844444444444444,1.4375,2.9375,-29.8125
1589380766.2672625,-1.34,-3.32,8.96,0.5522222222222222,0.013333333333333334,-0.6844444444444444,1.5625,2.8125,-30.625
1589380766.2776256,-1.29,-3.26,8.82,0.5522222222222222,0.013333333333333334,-0.6844444444444444,1.5625,2.9375,-30.875
1589380766.291236,-1.27,-3.24,8.89,0.5522222222222222,0.013333333333333334,-0.6844444444444444,1.4375,3.0625,-30.875
1589380766.3000212,-1.23,-3.21,8.93,0.5522222222222222,0.013333333333333334,-0.6844444444444444,1.5,3.1875,-30.4375
1589380766.313496,-1.26,-3.27,8.94,0.5577777777777778,0.03555555555555556,-0.67,1.5625,3.0625,-29.6875
1589380766.3200266,-1.29,-3.34,8.91,0.5577777777777778,0.03555555555555556,-0.67,1.375,2.8125,-28.9375
1589380766.3332305,-1.3,-3.4,8.82,0.5577777777777778,0.03555555555555556,-0.67,1.3125,2.6875,-27.375
1589380766.3398476,-1.31,-3.44,8.85,0.5577777777777778,0.03555555555555556,-0.67,1.1875,2.4375,-25.0
1589380766.3494961,-1.38,-3.68,8.9,0.5577777777777778,0.03555555555555556,-0.67,1.3125,2.25,-21.625
1589380766.3574634,-1.31,-3.65,8.89,0.6111111111111112,0.03555555555555556,-0.6766666666666666,1.125,1.875,-17.75
1589380766.3715198,-1.27,-3.56,8.89,0.6111111111111112,0.03555555555555556,-0.6766666666666666,1.0,1.75,-14.9375
1589380766.3788204,-1.46,-3.61,8.82,0.6111111111111112,0.03555555555555556,-0.6766666666666666,0.8125,1.375,-12.625
1589380766.3922346,-1.13,-3.5,8.88,0.6111111111111112,0.03555555555555556,-0.6766666666666666,0.8125,1.125,-10.0
1589380766.4002135,-1.14,-3.39,8.91,0.6111111111111112,0.03555555555555556,-0.6766666666666666,0.375,0.3125,-6.6875
1589380766.4130228,-1.29,-3.37,8.9,0.73,0.006666666666666667,-0.6844444444444444,0.625,0.8125,-6.5625
1589380766.4194818,-1.12,-3.23,8.88,0.73,0.006666666666666667,-0.6844444444444444,0.625,1.125,-5.0625
1589380766.430374,-1.17,-3.23,8.81,0.73,0.006666666666666667,-0.6844444444444444,0.25,0.3125,-5.6875
1589380766.4375231,-1.21,-3.23,8.91,0.73,0.006666666666666667,-0.6844444444444444,0.5,0.9375,-6.375
1589380766.4501092,-1.17,-3.15,8.9,0.73,0.006666666666666667,-0.6844444444444444,0.625,1.125,-6.1875
1589380766.4577513,-1.22,-3.27,8.92,1.1833333333333331,-0.07777777777777778,-0.7411111111111112,0.3125,0.8125,-5.0
1589380766.4697535,-1.32,-3.34,8.92,1.1833333333333331,-0.07777777777777778,-0.7411111111111112,0.4375,0.875,-3.9375
1589380766.4785194,-1.28,-3.32,8.86,1.1833333333333331,-0.07777777777777778,-0.7411111111111112,0.4375,0.6875,-1.1875
1589380766.4909446,-1.34,-3.29,8.91,1.1833333333333331,-0.07777777777777778,-0.7411111111111112,0.25,0.0,3.0625
1589380766.503981,-1.24,-3.27,8.92,1.1833333333333331,-0.07777777777777778,-0.7411111111111112,-0.3125,-1.0,13.4375
1589380766.5098429,-1.17,-3.27,8.93,1.5911111111111111,-0.4444444444444444,-0.9777777777777776,-0.375,-1.5625,18.25
1589380766.5228572,-1.19,-3.32,8.97,1.5911111111111111,-0.4444444444444444,-0.9777777777777776,-0.1875,-1.625,22.0
1589380766.5291915,-1.11,-3.32,8.85,1.5911111111111111,-0.4444444444444444,-0.9777777777777776,-0.3125,-2.0625,24.4375
1589380766.5432928,-1.01,-3.23,8.88,1.5911111111111111,-0.4444444444444444,-0.9777777777777776,-0.375,-1.9375,25.4375
1589380766.5513964,-1.03,-3.18,8.92,1.5911111111111111,-0.4444444444444444,-0.9777777777777776,-0.3125,-1.8125,25.5
1589380766.561311,-1.03,-3.16,8.97,0.8133333333333334,-0.16,-0.7644444444444445,0.0,-1.875,25.125
1589380766.5688589,-1.04,-3.1,8.93,0.8133333333333334,-0.16,-0.7644444444444445,-0.125,-2.0,24.8125
1589380766.5789425,-1.03,-3.09,8.86,0.8133333333333334,-0.16,-0.7644444444444445,0.0,-1.9375,24.4375
1589380766.589075,-0.98,-3.04,8.88,0.8133333333333334,-0.16,-0.7644444444444445,-0.1875,-1.9375,23.5625
1589380766.6032233,-1.05,-3.06,8.93,0.8133333333333334,-0.16,-0.7644444444444445,-0.125,-1.875,22.1875
1589380766.6089725,-1.04,-3.02,8.98,0.6088888888888889,-0.008888888888888889,-0.6933333333333334,-0.125,-1.75,21.5
1589380766.6197195,-1.04,-3.04,8.99,0.6088888888888889,-0.008888888888888889,-0.6933333333333334,0.0625,-1.75,21.0
1589380766.629886,-0.98,-3.05,8.82,0.6088888888888889,-0.008888888888888889,-0.6933333333333334,-0.125,-1.6875,20.875
1589380766.6419072,-1.14,-3.23,8.9,0.6088888888888889,-0.008888888888888889,-0.6933333333333334,0.0,-1.5,21.125
1589380766.6514542,-1.09,-3.28,8.9,0.6088888888888889,-0.008888888888888889,-0.6933333333333334,-0.125,-1.875,22.625
1589380766.6630404,-0.99,-3.17,8.98,0.59,0.017777777777777778,-0.7066666666666667,-0.375,-2.0,23.3125
1589380766.6744525,-0.99,-3.23,8.89,0.59,0.017777777777777778,-0.7066666666666667,-0.25,-1.875,23.0
1589380766.6804194,-0.93,-3.2,8.84,0.59,0.017777777777777778,-0.7066666666666667,-0.3125,-1.75,22.5
1589380766.695081,-0.92,-3.15,8.92,0.59,0.017777777777777778,-0.7066666666666667,-0.125,-1.875,20.75
1589380766.701911,-0.93,-3.18,8.86,0.59,0.017777777777777778,-0.7066666666666667,-0.125,-1.6875,18.75
1589380766.7148454,-1.0,-3.37,8.93,0.5511111111111111,0.024444444444444446,-0.6788888888888889,0.0,-1.875,17.3125
1589380766.7206874,-0.9,-3.51,8.96,0.5511111111111111,0.024444444444444446,-0.6788888888888889,-0.6875,-2.625,14.375
1589380766.7333734,-0.8,-3.22,8.84,0.5511111111111111,0.024444444444444446,-0.6788888888888889,0.125,-0.875,10.1875
1589380766.7399347,-0.64,-3.33,8.9,0.5511111111111111,0.024444444444444446,-0.6788888888888889,0.25,-0.5,4.125
1589380766.7514107,-0.64,-3.26,8.93,0.5511111111111111,0.024444444444444446,-0.6788888888888889,0.5625,0.3125,-3.0
1589380766.7585962,-0.66,-3.29,8.91,0.5455555555555556,-0.017777777777777778,-0.6855555555555556,0.9375,1.5625,-10.8125
1589380766.7700539,-0.66,-3.49,8.91,0.5455555555555556,-0.017777777777777778,-0.6855555555555556,1.0625,2.125,-17.5
1589380766.779695,-0.89,-4.24,8.71,0.5455555555555556,-0.017777777777777778,-0.6855555555555556,1.5,3.0625,-22.0625
1589380766.789832,-1.01,-4.68,8.77,0.5455555555555556,-0.017777777777777778,-0.6855555555555556,1.25,3.1875,-23.625
1589380766.8010786,-0.86,-4.81,8.79,0.5455555555555556,-0.017777777777777778,-0.6855555555555556,1.3125,3.0,-24.4375
1589380766.8117216,5.46,17.87,1.33,0.5244444444444445,0.013333333333333334,-0.6711111111111111,-15.75,40.5,-11.3125
1589380766.8191295,2.03,1.35,0.54,0.5244444444444445,0.013333333333333334,-0.6711111111111111,-38.0,65.5625,-60.5625
1589380766.82985,-3.42,-1.05,13.61,0.5244444444444445,0.013333333333333334,-0.6711111111111111,-7.75,15.8125,-101.0
1589380766.8394392,-0.64,-0.02,6.66,0.5244444444444445,0.013333333333333334,-0.6711111111111111,44.4375,-82.0625,-95.1875
1589380766.851226,-0.69,-0.12,9.19,0.5244444444444445,0.013333333333333334,-0.6711111111111111,14.6875,-9.75,-80.5625
1589380766.8585846,-0.06,-0.15,8.91,0.5311111111111111,0.06333333333333334,-0.6577777777777778,-1.6875,9.0625,-71.375
1589380766.8689516,-0.06,-0.15,8.91,0.5311111111111111,0.06333333333333334,-0.6577777777777778,-1.6875,9.0625,-71.375
1589380766.8750265,-0.17,0.53,9.52,0.5311111111111111,0.06333333333333334,-0.6577777777777778,3.25,7.0625,-68.75
1589380766.8857698,-0.71,1.02,8.59,0.5311111111111111,0.06333333333333334,-0.6577777777777778,2.3125,8.25,-63.75
1589380766.8918498,-1.0,1.18,9.84,0.5311111111111111,0.06333333333333334,-0.6577777777777778,1.6875,5.25,-55.8125
1589380766.906074,-1.63,1.02,9.15,0.5311111111111111,0.06333333333333334,-0.6577777777777778,1.875,5.8125,-44.3125
1589380766.912023,-2.07,0.71,9.46,0.5511111111111111,0.07777777777777778,-0.6577777777777778,0.75,3.5,-26.5625
1589380766.9240234,-1.89,-2.03,8.42,0.5511111111111111,0.07777777777777778,-0.6577777777777778,-1.0,1.5,-14.0
1589380766.9304762,-1.0,-2.68,9.22,0.5511111111111111,0.07777777777777778,-0.6577777777777778,-0.5625,-0.25,-4.25
1589380766.9410784,-1.27,-2.57,8.87,0.5511111111111111,0.07777777777777778,-0.6577777777777778,-0.375,-0.0625,0.75
1589380766.9514925,-0.92,-2.46,8.67,0.5511111111111111,0.07777777777777778,-0.6577777777777778,0.5625,-0.6875,5.5625
1589380766.9632475,-0.97,-2.49,8.76,0.5255555555555556,0.10666666666666667,-0.65,0.5,-0.5,5.9375
1589380766.9704401,-0.95,-2.65,9.23,0.5255555555555556,0.10666666666666667,-0.65,-0.25,-0.75,7.4375
1589380766.9814782,-0.95,-2.69,8.76,0.5255555555555556,0.10666666666666667,-0.65,-0.5,-0.5625,10.4375
1589380766.9905953,-0.66,-2.66,9.17,0.5255555555555556,0.10666666666666667,-0.65,0.25,-1.125,12.875
1589380767.0022855,-0.69,-2.63,8.79,0.5255555555555556,0.10666666666666667,-0.65,-0.25,-1.375,13.0625
1589380767.0106664,-0.73,-2.78,9.19,0.5133333333333333,0.10666666666666667,-0.6577777777777778,0.1875,-1.25,11.125
1589380767.0224981,-0.8,-2.84,8.99,0.5133333333333333,0.10666666666666667,-0.6577777777777778,-0.375,-0.5,10.125
1589380767.0358438,-0.8,-2.99,8.88,0.5133333333333333,0.10666666666666667,-0.6577777777777778,-0.25,-0.8125,10.375
1589380767.0420132,-0.77,-2.92,8.63,0.5133333333333333,0.10666666666666667,-0.6577777777777778,-0.1875,-1.0,10.125
1589380767.057213,-0.74,-2.97,9.09,0.5133333333333333,0.10666666666666667,-0.6577777777777778,0.3125,-1.0625,8.3125
1589380767.0633767,-0.77,-3.11,8.91,0.5222222222222223,0.11555555555555555,-0.6577777777777778,0.0,-0.4375,6.0625
1589380767.0753744,-0.79,-3.1,9.18,0.5222222222222223,0.11555555555555555,-0.6577777777777778,0.25,-0.5,4.125
1589380767.0814815,-0.85,-3.02,8.73,0.5222222222222223,0.11555555555555555,-0.6577777777777778,-0.125,0.375,1.9375
1589380767.0944178,-0.84,-3.07,8.88,0.5222222222222223,0.11555555555555555,-0.6577777777777778,0.25,0.0625,0.125
1589380767.1027148,0.13,-5.23,6.7,0.5222222222222223,0.11555555555555555,-0.6577777777777778,18.6875,-4.9375,-21.4375
1589380767.1145349,0.63,1.49,10.34,0.5011111111111111,0.10111111111111112,-0.6433333333333333,12.4375,9.25,-35.8125
1589380767.1206794,-1.17,-2.54,9.01,0.5011111111111111,0.10111111111111112,-0.6433333333333333,0.0625,3.75,-25.9375
1589380767.1310644,-0.79,-2.88,8.97,0.5011111111111111,0.10111111111111112,-0.6433333333333333,0.0625,1.0625,-9.375
1589380767.142407,-1.82,-5.38,8.46,0.5011111111111111,0.10111111111111112,-0.6433333333333333,0.1875,1.5,-3.125
1589380767.1528337,-0.9,-3.23,9.14,0.5011111111111111,0.10111111111111112,-0.6433333333333333,0.625,-1.3125,-2.75
1589380767.1604571,-1.38,-3.94,8.77,0.5222222222222223,0.10777777777777778,-0.6344444444444445,0.8125,1.0,-0.0625
1589380767.1752632,-1.28,-3.87,8.89,0.5222222222222223,0.10777777777777778,-0.6344444444444445,0.125,-0.0625,-0.25
1589380767.1837842,-1.25,-3.87,8.72,0.5222222222222223,0.10777777777777778,-0.6344444444444445,-0.125,0.3125,-0.0625
1589380767.1924946,-1.26,-3.97,8.9,0.5222222222222223,0.10777777777777778,-0.6344444444444445,-0.3125,-0.0625,-0.0625
1589380767.2073655,-1.26,-3.88,8.78,0.5222222222222223,0.10777777777777778,-0.6344444444444445,-0.125,0.3125,-0.0625
1589380767.2138875,-1.24,-3.86,8.95,0.5488888888888889,0.11555555555555555,-0.6577777777777778,0.3125,0.0,-0.1875
1589380767.2267716,-1.26,-3.88,8.85,0.5488888888888889,0.11555555555555555,-0.6577777777777778,0.5625,0.25,-0.125
1589380767.232868,-1.21,-3.89,8.87,0.5488888888888889,0.11555555555555555,-0.6577777777777778,0.375,0.0625,-0.3125
1589380767.2457929,-1.25,-3.91,8.85,0.5488888888888889,0.11555555555555555,-0.6577777777777778,0.1875,0.5,0.0625
1589380767.2546618,-1.27,-3.91,8.89,0.5488888888888889,0.11555555555555555,-0.6577777777777778,0.0625,0.1875,-0.125
1589380767.2655065,-1.26,-3.89,8.83,0.5488888888888889,0.12,-0.6644444444444444,0.0625,0.25,-0.0625
1589380767.2716625,-1.25,-3.92,8.96,0.5488888888888889,0.12,-0.6644444444444444,0.1875,0.125,-0.0625
1589380767.2857509,-1.24,-3.91,8.76,0.5488888888888889,0.12,-0.6644444444444444,-0.0625,0.125,-0.0625
1589380767.2921247,-1.25,-3.86,8.87,0.5488888888888889,0.12,-0.6644444444444444,-0.1875,0.125,-0.0625
1589380767.3044732,-1.27,-3.89,8.8,0.5488888888888889,0.12,-0.6644444444444444,-0.25,0.3125,0.0
1589380767.3127005,-1.26,-3.87,8.91,0.5277777777777778,0.10777777777777778,-0.65,0.125,0.125,-0.1875
1589380767.3225431,-1.26,-3.89,8.88,0.5277777777777778,0.10777777777777778,-0.65,0.5,0.3125,-0.0625
1589380767.3327634,-1.24,-3.88,8.85,0.5277777777777778,0.10777777777777778,-0.65,0.25,0.0625,-0.25
1589380767.3446455,-1.26,-3.89,8.81,0.5277777777777778,0.10777777777777778,-0.65,-0.125,0.3125,0.0
1589380767.359017,-1.26,-3.86,8.91,0.5277777777777778,0.10777777777777778,-0.65,-0.1875,0.25,-0.1875
1589380767.3650632,-1.27,-3.91,8.86,0.5422222222222223,0.12,-0.65,-0.125,0.3125,-0.125
1589380767.37282,-1.24,-3.91,8.94,0.5422222222222223,0.12,-0.65,0.0625,0.1875,-0.125
1589380767.3846252,-1.27,-3.9,8.79,0.5422222222222223,0.12,-0.65,0.1875,0.125,-0.125
1589380767.3974402,-1.27,-3.87,8.84,0.5422222222222223,0.12,-0.65,-0.0625,0.3125,-0.0625
1589380767.4058356,-1.26,-3.9,8.85,0.5422222222222223,0.12,-0.65,-0.125,0.3125,-0.0625
1589380767.4170465,-1.26,-3.91,8.91,0.5277777777777778,0.10111111111111112,-0.6433333333333333,0.125,0.25,-0.0625
1589380767.4229114,-1.23,-3.89,8.84,0.5277777777777778,0.10111111111111112,-0.6433333333333333,0.25,0.0625,0.0
1589380767.4368358,-1.25,-3.86,8.81,0.5277777777777778,0.10111111111111112,-0.6433333333333333,0.1875,0.1875,-0.0625
1589380767.442789,-1.26,-3.86,8.84,0.5277777777777778,0.10111111111111112,-0.6433333333333333,0.0625,0.25,-0.0625
1589380767.4555693,-1.24,-3.88,8.88,0.5277777777777778,0.10111111111111112,-0.6433333333333333,-0.1875,0.25,-0.0625
1589380767.4633124,-1.27,-3.89,8.89,0.5344444444444445,0.12,-0.6355555555555555,-0.1875,0.1875,-0.125
1589380767.4734645,-1.27,-3.89,8.9,0.5344444444444445,0.12,-0.6355555555555555,0.3125,0.1875,-0.1875
1589380767.4827163,-1.26,-3.91,8.79,0.5344444444444445,0.12,-0.6355555555555555,0.3125,0.0,0.0
1589380767.4949214,-1.27,-3.87,8.85,0.5344444444444445,0.12,-0.6355555555555555,0.1875,0.25,-0.125
1589380767.5080779,-1.27,-3.88,8.89,0.5344444444444445,0.12,-0.6355555555555555,0.125,0.3125,-0.1875
1589380767.515317,-1.25,-3.91,8.91,0.5422222222222223,0.12,-0.6577777777777778,0.0,0.1875,-0.0625
1589380767.5240202,-1.26,-3.89,8.88,0.5422222222222223,0.12,-0.6577777777777778,0.125,0.125,-0.0625
1589380767.5354106,-1.25,-3.9,8.79,0.5422222222222223,0.12,-0.6577777777777778,0.1875,0.25,-0.1875
1589380767.5435095,-1.26,-3.9,8.85,0.5422222222222223,0.12,-0.6577777777777778,0.0625,0.25,-0.0625
1589380767.5558727,-1.26,-3.88,8.91,0.5422222222222223,0.12,-0.6577777777777778,-0.0625,0.1875,-0.125
1589380767.5650814,-1.25,-3.91,8.89,0.5422222222222223,0.12,-0.6577777777777778,-0.125,0.1875,0.0
1589380767.573051,-1.26,-3.9,8.89,0.5422222222222223,0.12,-0.6577777777777778,0.0625,0.1875,-0.0625
1589380767.5877912,-1.25,-3.91,8.78,0.5422222222222223,0.12,-0.6577777777777778,0.25,0.125,-0.125
1589380767.5939002,-1.25,-3.88,8.84,0.5422222222222223,0.12,-0.6577777777777778,0.3125,0.0625,-0.0625
1589380767.6066875,-1.27,-3.89,8.88,0.5422222222222223,0.12,-0.6577777777777778,0.125,0.25,-0.0625
1589380767.6132185,-1.26,-3.9,8.91,0.5222222222222223,0.12777777777777774,-0.6433333333333333,0.0,0.125,-0.1875
1589380767.6233215,-1.26,-3.91,8.87,0.5222222222222223,0.12777777777777774,-0.6433333333333333,-0.0625,0.125,0.0
1589380767.6335487,-1.26,-3.89,8.81,0.5222222222222223,0.12777777777777774,-0.6433333333333333,0.125,0.125,-0.1875
1589380767.643859,-1.24,-3.88,8.88,0.5222222222222223,0.12777777777777774,-0.6433333333333333,0.25,0.0625,-0.0625
1589380767.6582901,-1.24,-3.89,8.87,0.5222222222222223,0.12777777777777774,-0.6433333333333333,0.0625,0.3125,-0.1875
1589380767.6653242,-1.26,-3.9,8.89,0.5488888888888889,0.10777777777777778,-0.6711111111111111,0.0,0.1875,-0.0625
1589380767.6739526,-1.28,-3.89,8.82,0.5488888888888889,0.10777777777777778,-0.6711111111111111,-0.0625,0.0625,-0.0625
1589380767.6848927,-1.26,-3.87,8.77,0.5488888888888889,0.10777777777777778,-0.6711111111111111,0.3125,0.1875,-0.125
1589380767.6942894,-1.26,-3.89,8.84,0.5488888888888889,0.10777777777777778,-0.6711111111111111,0.25,0.1875,0.0
1589380767.7061384,-1.26,-3.88,8.87,0.5488888888888889,0.10777777777777778,-0.6711111111111111,0.3125,0.1875,-0.125
1589380767.7161682,-1.26,-3.88,8.91,0.5155555555555555,0.11555555555555555,-0.6433333333333333,-0.125,0.25,-0.125
1589380767.7245364,-1.28,-3.9,8.88,0.5155555555555555,0.11555555555555555,-0.6433333333333333,-0.0625,0.25,-0.25
1589380767.7391744,-1.26,-3.89,8.79,0.5155555555555555,0.11555555555555555,-0.6433333333333333,-0.0625,0.125,-0.1875
1589380767.7454016,-1.28,-3.9,8.86,0.5155555555555555,0.11555555555555555,-0.6433333333333333,0.25,0.25,-0.125
1589380767.7608194,-1.25,-3.9,8.88,0.5155555555555555,0.11555555555555555,-0.6433333333333333,0.125,0.125,-0.0625
1589380767.7672248,-1.25,-3.9,8.89,0.5344444444444445,0.10111111111111112,-0.6577777777777778,0.0,0.25,-0.125
1589380767.778174,-1.24,-3.88,8.91,0.5344444444444445,0.10111111111111112,-0.6577777777777778,0.0,0.0625,-0.25
1589380767.7848349,-1.26,-3.88,8.79,0.5344444444444445,0.10111111111111112,-0.6577777777777778,0.0625,0.3125,-0.0625
1589380767.7976673,-1.25,-3.89,8.84,0.5344444444444445,0.10111111111111112,-0.6577777777777778,0.0625,0.4375,-0.1875
1589380767.8070366,-1.25,-3.89,8.85,0.5344444444444445,0.10111111111111112,-0.6577777777777778,0.25,0.3125,-0.125
1589380767.8183286,-1.25,-3.89,8.91,0.5344444444444445,0.12777777777777774,-0.6644444444444444,0.125,0.3125,-0.0625
1589380767.8249016,-1.27,-3.89,8.86,0.5344444444444445,0.12777777777777774,-0.6644444444444444,-0.0625,-0.0625,-0.125
1589380767.8341887,-1.26,-3.9,8.79,0.5344444444444445,0.12777777777777774,-0.6644444444444444,0.0,0.0625,-0.0625
1589380767.844218,-1.26,-3.91,8.82,0.5344444444444445,0.12777777777777774,-0.6644444444444444,0.0625,0.1875,0.0625
1589380767.8567753,-1.26,-3.9,8.9,0.5344444444444445,0.12777777777777774,-0.6644444444444444,0.25,0.1875,-0.125
1589380767.8641605,-1.26,-3.9,8.92,0.5488888888888889,0.12,-0.6433333333333333,0.125,0.0625,-0.25
1589380767.8749876,-1.26,-3.88,8.9,0.5488888888888889,0.12,-0.6433333333333333,0.0625,0.1875,-0.0625
1589380767.8941185,-1.26,-3.9,8.8,0.5488888888888889,0.12,-0.6433333333333333,-0.0625,0.0625,-0.0625
1589380767.9102988,-1.26,-3.89,8.89,0.5488888888888889,0.12,-0.6433333333333333,0.1875,0.3125,-0.125
1589380767.91648,-1.26,-3.89,8.9,0.5155555555555555,0.11555555555555555,-0.6433333333333333,0.0,0.375,-0.25
1589380767.9263284,-1.25,-3.9,8.85,0.5155555555555555,0.11555555555555555,-0.6433333333333333,-0.0625,0.0,0.0
1589380767.9347074,-1.26,-3.9,8.76,0.5155555555555555,0.11555555555555555,-0.6433333333333333,-0.125,-0.0625,-0.0625
1589380767.9489625,-1.25,-3.91,8.81,0.5155555555555555,0.11555555555555555,-0.6433333333333333,0.0625,0.125,0.0625
1589380767.9575038,-1.24,-3.87,8.88,0.5155555555555555,0.11555555555555555,-0.6433333333333333,0.1875,0.0625,0.0625
1589380767.9686801,-1.25,-3.9,8.93,0.5344444444444445,0.12,-0.6433333333333333,0.1875,0.0,-0.0625
1589380767.976465,-1.26,-3.87,8.89,0.5344444444444445,0.12,-0.6433333333333333,0.0625,0.125,0.0625
1589380767.9859293,-1.26,-3.9,8.79,0.5344444444444445,0.12,-0.6433333333333333,-0.125,0.3125,-0.0625
1589380767.9949872,-1.25,-3.9,8.85,0.5344444444444445,0.12,-0.6433333333333333,-0.25,-0.1875,0.0625
1589380768.0089915,-1.25,-3.89,8.9,0.5344444444444445,0.12,-0.6433333333333333,0.0625,-0.125,-0.0625
1589380768.0150266,-1.26,-3.91,8.92,0.5155555555555555,0.12,-0.6577777777777778,-0.0625,-0.0625,0.0
1589380768.0248554,-1.25,-3.89,8.92,0.5155555555555555,0.12,-0.6577777777777778,0.0625,-0.0625,0.0
1589380768.036048,-1.26,-3.89,8.79,0.5155555555555555,0.12,-0.6577777777777778,0.125,-0.0625,0.0625
1589380768.0486689,-1.26,-3.87,8.83,0.5155555555555555,0.12,-0.6577777777777778,-0.125,0.0,0.0
1589380768.0631282,-1.26,-3.87,8.88,0.5155555555555555,0.12,-0.6577777777777778,0.0625,0.125,0.0
1589380768.0691512,-1.25,-3.89,8.89,0.5155555555555555,0.11555555555555555,-0.65,0.1875,-0.0625,-0.0625
1589380768.0808403,-1.25,-3.89,8.89,0.5155555555555555,0.11555555555555555,-0.65,-0.0625,-0.125,-0.0625
1589380768.0869913,-1.25,-3.89,8.78,0.5155555555555555,0.11555555555555555,-0.65,-0.1875,0.0625,0.125
1589380768.100591,-1.24,-3.89,8.81,0.5155555555555555,0.11555555555555555,-0.65,-0.1875,0.0,0.0
1589380768.1083946,-1.26,-3.9,8.88,0.5155555555555555,0.11555555555555555,-0.65,-0.0625,0.0,0.125
1589380768.1207092,-1.24,-3.89,8.91,0.5344444444444445,0.11555555555555555,-0.6433333333333333,0.0625,-0.0625,-0.125
1589380768.1271572,-1.24,-3.9,8.91,0.5344444444444445,0.11555555555555555,-0.6433333333333333,0.1875,-0.125,-0.0625
1589380768.1361592,-1.27,-3.9,8.8,0.5344444444444445,0.11555555555555555,-0.6433333333333333,0.125,0.0,0.0625
1589380768.1462464,-1.25,-3.88,8.85,0.5344444444444445,0.11555555555555555,-0.6433333333333333,0.0625,0.0625,-0.0625
1589380768.1601214,-1.28,-3.9,8.87,0.5344444444444445,0.11555555555555555,-0.6433333333333333,-0.0625,0.0625,-0.0625
1589380768.1669135,-1.26,-3.91,8.9,0.5344444444444445,0.09333333333333334,-0.6711111111111111,0.0,0.125,0.0
1589380768.179062,-1.26,-3.9,8.87,0.5344444444444445,0.09333333333333334,-0.6711111111111111,0.0625,0.125,0.125
1589380768.185589,-1.24,-3.89,8.77,0.5344444444444445,0.09333333333333334,-0.6711111111111111,0.0625,0.0625,0.125
1589380768.1968713,-1.26,-3.89,8.82,0.5344444444444445,0.09333333333333334,-0.6711111111111111,0.0,0.125,0.0625
