time,acc_x,acc_y,acc_z,mag_x,mag_y,mag_z,gyr_x,gyr_y,gyr_z
1589380799.1319366,-0.28,-4.04,8.75,0.5155555555555555,0.08666666666666667,-0.7922222222222223,-0.25,-0.125,-0.0625
1589380799.1381867,-0.29,-4.04,8.81,0.5155555555555555,0.08666666666666667,-0.7922222222222223,-0.1875,-0.125,0.125
1589380799.1548288,-0.28,-4.06,8.87,0.5155555555555555,0.08666666666666667,-0.8,-0.125,-0.0625,0.4375
1589380799.164974,-0.27,-4.05,8.89,0.5155555555555555,0.08666666666666667,-0.8,-0.0625,0.0625,0.5
1589380799.1752884,-0.27,-4.04,8.8,0.5155555555555555,0.08666666666666667,-0.8,0.0,0.0625,0.3125
1589380799.1849744,-0.27,-4.05,8.85,0.5155555555555555,0.08666666666666667,-0.8,0.0625,-0.125,0.25
1589380799.1975405,-0.27,-4.03,8.87,0.5155555555555555,0.08666666666666667,-0.8,-0.0625,0.0,0.1875
1589380799.2055974,-0.29,-4.03,8.88,0.5011111111111111,0.08,-0.8,-0.0625,0.125,0.125
1589380799.2152214,-0.29,-4.04,8.87,0.5011111111111111,0.08,-0.8,0.0625,0.5,0.0625
1589380799.224958,-0.27,-4.06,8.75,0.5011111111111111,0.08,-0.8,0.1875,0.3125,0.0
1589380799.2398589,-0.28,-4.04,8.83,0.5011111111111111,0.08,-0.8,0.25,0.3125,0.125
1589380799.2477233,-0.27,-4.04,8.85,0.5011111111111111,0.08,-0.8,0.1875,0.0625,0.0
1589380799.2547405,-0.29,-4.04,8.88,0.5011111111111111,0.08666666666666667,-0.7922222222222223,0.3125,-0.3125,0.125
1589380799.2645926,-0.29,-4.06,8.83,0.5011111111111111,0.08666666666666667,-0.7922222222222223,0.125,-0.125,0.0
1589380799.2751696,-0.27,-4.07,8.8,0.5011111111111111,0.08666666666666667,-0.7922222222222223,0.0625,-0.125,0.125
1589380799.284817,-0.25,-4.05,8.83,0.5011111111111111,0.08666666666666667,-0.7922222222222223,0.0625,-0.125,-0.0625
1589380799.3003151,-0.26,-4.03,8.9,0.5011111111111111,0.08666666666666667,-0.7922222222222223,0.25,-0.125,0.0
1589380799.3067822,-0.29,-4.04,8.89,0.5011111111111111,0.08,-0.8,0.25,0.1875,0.0
1589380799.3190513,-0.27,-4.06,8.86,0.5011111111111111,0.08,-0.8,0.3125,0.3125,0.25
1589380799.3257873,-0.3,-4.04,8.73,0.5011111111111111,0.08,-0.8,0.375,0.6875,0.1875
1589380799.3380387,-0.29,-4.05,8.77,0.5011111111111111,0.08,-0.8,0.1875,0.5,0.0625
1589380799.348135,-0.27,-4.04,8.87,0.5011111111111111,0.08,-0.8,0.125,0.3125,0.0
1589380799.357914,-0.28,-4.02,8.85,0.4811111111111111,0.08666666666666667,-0.8,0.0625,-0.1875,-0.0625
1589380799.36559,-0.27,-4.05,8.86,0.4811111111111111,0.08666666666666667,-0.8,-0.25,-0.375,0.125
1589380799.3761911,-0.27,-4.06,8.78,0.4811111111111111,0.08666666666666667,-0.8,-0.25,-0.4375,-0.0625
1589380799.3861663,-0.3,-4.05,8.82,0.4811111111111111,0.08666666666666667,-0.8,-0.25,-0.5625,-0.0625
1589380799.3981216,-0.27,-4.05,8.87,0.4811111111111111,0.08666666666666667,-0.8,-0.4375,-0.5625,-0.0625
1589380799.4065225,-0.26,-4.05,8.9,0.5277777777777778,0.08666666666666667,-0.7777777777777778,-0.4375,-0.5625,-0.0625
1589380799.4185884,-0.33,-3.97,8.87,0.5277777777777778,0.08666666666666667,-0.7777777777777778,-0.5,-0.625,-0.25
1589380799.4269571,-0.5,-3.94,8.79,0.5277777777777778,0.08666666666666667,-0.7777777777777778,-0.625,-0.75,-0.25
1589380799.438436,-0.7,-3.91,8.84,0.5277777777777778,0.08666666666666667,-0.7777777777777778,-0.6875,-1.0625,-0.0625
1589380799.4479196,-0.97,-3.83,8.89,0.5277777777777778,0.08666666666666667,-0.7777777777777778,-0.6875,-1.125,1.25
1589380799.4554455,-0.93,-3.68,8.89,0.5077777777777778,0.09888888888888887,-0.7855555555555556,-0.6875,-1.25,2.9375
1589380799.4693635,-0.9,-3.65,8.9,0.5077777777777778,0.09888888888888887,-0.7855555555555556,-0.4375,-0.9375,3.25
1589380799.4762118,-1.0,-3.72,8.79,0.5077777777777778,0.09888888888888887,-0.7855555555555556,-0.3125,-0.625,2.875
1589380799.488859,-1.14,-3.87,8.82,0.5077777777777778,0.09888888888888887,-0.7855555555555556,-0.25,-0.625,4.5
1589380799.4973052,-1.08,-3.97,8.91,0.5077777777777778,0.09888888888888887,-0.7855555555555556,-0.25,-1.0,8.5625
1589380799.508666,-1.12,-4.15,8.91,0.5222222222222223,0.08,-0.7855555555555556,-0.25,-1.3125,12.125
1589380799.5153422,-1.41,-4.35,8.86,0.5222222222222223,0.08,-0.7855555555555556,-0.375,-1.4375,14.375
1589380799.5294704,-1.33,-4.24,8.78,0.5222222222222223,0.08,-0.7855555555555556,-0.375,-1.6875,17.375
1589380799.5358407,-1.2,-4.17,8.81,0.5222222222222223,0.08,-0.7855555555555556,-0.6875,-2.0,21.6875
1589380799.5479715,-1.13,-4.07,8.86,0.5222222222222223,0.08,-0.7855555555555556,-0.9375,-2.1875,24.4375
1589380799.55597,-1.0,-3.89,8.84,0.5155555555555555,0.07444444444444444,-0.7711111111111111,-0.625,-2.4375,26.3125
1589380799.566894,-0.88,-3.72,8.83,0.5155555555555555,0.07444444444444444,-0.7711111111111111,-0.75,-2.5,28.1875
1589380799.5760884,-0.75,-3.61,8.73,0.5155555555555555,0.07444444444444444,-0.7711111111111111,-1.0,-2.6875,30.9375
1589380799.5880234,-0.21,-3.2,8.88,0.5155555555555555,0.07444444444444444,-0.7711111111111111,-1.0,-2.875,32.3125
1589380799.6027234,-0.78,-3.93,8.94,0.5155555555555555,0.07444444444444444,-0.7711111111111111,-0.8125,-3.1875,31.0625
1589380799.6081398,-0.48,-3.79,8.91,0.5155555555555555,0.07444444444444444,-0.7922222222222223,-0.875,-3.5,32.625
1589380799.6207488,-0.47,-3.89,8.96,0.5155555555555555,0.07444444444444444,-0.7922222222222223,-0.9375,-3.375,32.8125
1589380799.6264582,-0.49,-4.06,8.86,0.5155555555555555,0.07444444444444444,-0.7922222222222223,-0.875,-3.25,32.4375
1589380799.6405122,-0.32,-4.0,8.82,0.5155555555555555,0.07444444444444444,-0.7922222222222223,-0.75,-3.1875,34.75
1589380799.6484632,-0.01,-4.0,8.87,0.5155555555555555,0.07444444444444444,-0.7922222222222223,-1.0,-3.5,37.5625
1589380799.6593995,0.2,-4.02,8.87,0.5222222222222223,0.07444444444444444,-0.7855555555555556,-1.0,-3.4375,37.5625
1589380799.6661475,0.35,-4.13,8.79,0.5222222222222223,0.07444444444444444,-0.7855555555555556,-0.875,-2.9375,34.8125
1589380799.6770515,0.42,-4.24,8.71,0.5222222222222223,0.07444444444444444,-0.7855555555555556,-0.8125,-2.875,32.25
1589380799.686455,0.45,-4.36,8.7,0.5222222222222223,0.07444444444444444,-0.7855555555555556,-0.625,-2.5625,29.125
1589380799.6986618,0.57,-4.59,8.8,0.5222222222222223,0.07444444444444444,-0.7855555555555556,-0.6875,-2.5625,26.375
1589380799.7062802,0.63,-4.65,8.85,0.5277777777777778,0.06222222222222223,-0.7855555555555556,-0.5625,-2.5,23.5625
1589380799.7166474,0.61,-4.68,8.84,0.5277777777777778,0.06222222222222223,-0.7855555555555556,-0.5,-2.3125,19.6875
1589380799.7272985,0.66,-4.67,8.74,0.5277777777777778,0.06222222222222223,-0.7855555555555556,-0.4375,-1.9375,15.125
1589380799.7369606,0.49,-4.56,8.8,0.5277777777777778,0.06222222222222223,-0.7855555555555556,-0.125,-1.0,9.5
1589380799.748978,0.26,-4.45,8.87,0.5277777777777778,0.06222222222222223,-0.7855555555555556,-0.0625,-0.375,3.8125
1589380799.760108,-0.48,-4.24,8.91,0.5277777777777778,0.06222222222222223,-0.7922222222222223,0.25,0.75,-0.375
1589380799.7668881,-0.69,-4.02,8.89,0.5277777777777778,0.06222222222222223,-0.7922222222222223,0.3125,0.9375,-1.375
1589380799.7787602,-0.66,-4.04,8.77,0.5277777777777778,0.06222222222222223,-0.7922222222222223,0.125,0.8125,-0.5625
1589380799.7871382,-0.64,-4.03,8.8,0.5277777777777778,0.06222222222222223,-0.7922222222222223,0.1875,0.6875,-0.25
1589380799.7986867,-0.64,-4.02,8.86,0.5277777777777778,0.06222222222222223,-0.7922222222222223,0.25,0.9375,0.0625
1589380799.8066168,-0.61,-4.01,8.88,0.5466666666666666,0.06222222222222223,-0.7777777777777778,0.375,0.625,-0.125
1589380799.8173518,-0.64,-4.04,8.86,0.5466666666666666,0.06222222222222223,-0.7777777777777778,0.3125,0.625,-0.0625
1589380799.8316321,-0.62,-4.02,8.77,0.5466666666666666,0.06222222222222223,-0.7777777777777778,0.1875,0.4375,0.125
1589380799.8379366,-0.66,-3.99,8.78,0.5466666666666666,0.06222222222222223,-0.7777777777777778,0.25,0.6875,0.0
1589380799.8532596,-0.65,-4.02,8.9,0.5466666666666666,0.06222222222222223,-0.7777777777777778,0.1875,0.4375,0.0
1589380799.8593216,-0.67,-4.03,8.89,0.5344444444444445,0.06222222222222223,-0.8,-0.0625,0.375,0.0625
1589380799.8684447,-0.65,-4.02,8.88,0.5344444444444445,0.06222222222222223,-0.8,-0.0625,0.5625,0.125
1589380799.8783448,-0.63,-4.0,8.79,0.5344444444444445,0.06222222222222223,-0.8,-0.375,0.375,-0.1875
1589380799.8884392,-0.66,-4.0,8.83,0.5344444444444445,0.06222222222222223,-0.8,-0.375,0.125,0.0
1589380799.9007154,-0.65,-4.01,8.87,0.5344444444444445,0.06222222222222223,-0.8,-0.625,-0.0625,0.0
1589380799.9124105,-0.66,-3.94,8.92,0.5333333333333333,0.054444444444444434,-0.8066666666666666,-0.75,-0.375,0.125
1589380799.9227006,-0.71,-3.66,8.87,0.5333333333333333,0.054444444444444434,-0.8066666666666666,-1.125,-0.125,0.4375
1589380799.9290323,-0.72,-3.49,8.8,0.5333333333333333,0.054444444444444434,-0.8066666666666666,-1.5625,0.0625,1.8125
1589380799.9385588,-0.75,-3.42,8.85,0.5333333333333333,0.054444444444444434,-0.8066666666666666,-2.1875,-0.125,3.875
1589380799.94976,-1.11,-2.68,9.11,0.5333333333333333,0.054444444444444434,-0.8066666666666666,-2.6875,-0.8125,5.4375
1589380799.9575126,-1.0,-2.02,8.83,0.54,0.03555555555555556,-0.8066666666666666,-0.8125,-0.875,10.0625
1589380799.965726,-1.0,-2.02,8.83,0.54,0.03555555555555556,-0.8066666666666666,-0.8125,-0.875,10.0625
1589380799.9720929,-0.85,-2.2,8.9,0.54,0.03555555555555556,-0.8066666666666666,1.375,-0.625,26.0625
1589380799.9833784,-0.63,-2.37,8.97,0.54,0.03555555555555556,-0.8066666666666666,-1.0,-3.75,39.625
1589380799.9890904,-0.46,-2.56,8.99,0.54,0.03555555555555556,-0.8066666666666666,-1.1875,-4.3125,47.125
1589380800.0038116,-0.44,-2.62,8.98,0.54,0.03555555555555556,-0.8066666666666666,-1.5,-5.1875,48.8125
1589380800.0090427,-0.49,-2.63,9.0,0.5544444444444444,0.042222222222222223,-0.7944444444444444,-1.3125,-5.125,48.75
1589380800.0217302,-0.57,-2.65,9.05,0.5544444444444444,0.042222222222222223,-0.7944444444444444,-1.375,-5.125,48.3125
1589380800.029364,-0.74,-2.66,8.98,0.5544444444444444,0.042222222222222223,-0.7944444444444444,-1.375,-4.875,49.0
1589380800.041285,-0.82,-2.7,9.01,0.5544444444444444,0.042222222222222223,-0.7944444444444444,-1.3125,-4.5,51.6875
1589380800.0509393,-0.84,-2.64,8.97,0.5544444444444444,0.042222222222222223,-0.7944444444444444,-1.4375,-4.5625,56.1875
1589380800.0614574,-0.69,-2.68,8.94,0.5522222222222222,0.027777777777777776,-0.7922222222222223,-1.5625,-4.75,62.125
1589380800.0700555,-0.66,-2.73,8.95,0.5522222222222222,0.027777777777777776,-0.7922222222222223,-1.6875,-5.5,66.625
1589380800.0805998,-0.57,-2.75,8.87,0.5522222222222222,0.027777777777777776,-0.7922222222222223,-1.6875,-6.0625,69.1875
1589380800.089015,-0.6,-2.74,8.93,0.5522222222222222,0.027777777777777776,-0.7922222222222223,-1.8125,-6.5,69.4375
1589380800.10122,-0.69,-2.75,8.97,0.5522222222222222,0.027777777777777776,-0.7922222222222223,-1.8125,-6.625,68.9375
1589380800.109831,-0.75,-2.77,9.01,0.5455555555555556,0.01,-0.8,-2.0625,-7.0,68.9375
1589380800.1219285,-0.75,-2.83,8.97,0.5455555555555556,0.01,-0.8,-2.0625,-6.8125,69.3125
1589380800.133215,-0.77,-2.85,8.95,0.5455555555555556,0.01,-0.8,-1.9375,-6.8125,70.0625
1589380800.1391175,-0.81,-2.83,9.02,0.5455555555555556,0.01,-0.8,-1.8125,-6.4375,70.3125
1589380800.1516328,-0.85,-2.78,9.03,0.5455555555555556,0.01,-0.8,-1.875,-6.1875,70.5
1589380800.1597812,-0.8,-2.75,8.98,0.5255555555555556,-0.0011111111111111113,-0.8355555555555556,-1.6875,-5.875,70.75
1589380800.1727624,-0.92,-2.71,8.79,0.5255555555555556,-0.0011111111111111113,-0.8355555555555556,-1.75,-5.8125,71.25
1589380800.1800785,-0.97,-2.77,8.8,0.5255555555555556,-0.0011111111111111113,-0.8355555555555556,-1.625,-6.1875,72.75
1589380800.1933074,-0.94,-2.84,8.86,0.5255555555555556,-0.0011111111111111113,-0.8355555555555556,-2.0625,-6.8125,75.5625
1589380800.2017136,-0.92,-2.89,8.97,0.5255555555555556,-0.0011111111111111113,-0.8355555555555556,-2.1875,-7.3125,77.875
1589380800.2115948,-0.94,-2.9,8.95,0.52,-0.027777777777777776,-0.9066666666666666,-2.3125,-7.6875,78.4375
1589380800.2189991,-0.96,-2.91,8.98,0.52,-0.027777777777777776,-0.9066666666666666,-2.1875,-7.6875,78.1875
1589380800.2322822,-0.97,-2.87,8.91,0.52,-0.027777777777777776,-0.9066666666666666,-2.25,-7.5,77.875
1589380800.240883,-0.98,-2.88,8.99,0.52,-0.027777777777777776,-0.9066666666666666,-2.1875,-7.25,77.25
1589380800.2532015,-0.96,-2.84,9.08,0.52,-0.027777777777777776,-0.9066666666666666,-2.0,-6.8125,76.4375
1589380800.2589474,-0.97,-2.89,9.0,0.4577777777777778,-0.054444444444444434,-0.9133333333333332,-1.9375,-6.4375,74.75
1589380800.2693415,-0.96,-2.84,8.97,0.4577777777777778,-0.054444444444444434,-0.9133333333333332,-1.875,-6.125,72.0625
1589380800.280449,-1.02,-2.84,8.82,0.4577777777777778,-0.054444444444444434,-0.9133333333333332,-1.875,-6.0625,69.1875
1589380800.290142,-1.03,-2.87,8.86,0.4577777777777778,-0.054444444444444434,-0.9133333333333332,-1.875,-5.75,66.3125
1589380800.3064106,-1.03,-2.87,8.92,0.4577777777777778,-0.054444444444444434,-0.9133333333333332,-1.75,-5.6875,62.4375
1589380800.3126686,-1.07,-2.82,8.95,0.37333333333333335,-0.11666666666666667,-0.9722222222222222,-1.6875,-5.125,54.6875
1589380800.3203256,-1.08,-2.86,8.96,0.37333333333333335,-0.11666666666666667,-0.9722222222222222,-1.6875,-5.125,54.6875
1589380800.3320534,-1.13,-2.86,8.88,0.37333333333333335,-0.11666666666666667,-0.9722222222222222,-1.6875,-4.75,50.75
1589380800.3412335,-1.15,-2.9,8.96,0.37333333333333335,-0.11666666666666667,-0.9722222222222222,-1.375,-3.6875,43.125
1589380800.352279,-1.19,-2.91,8.99,0.37333333333333335,-0.11666666666666667,-0.9722222222222222,-1.3125,-3.1875,39.3125
1589380800.3639884,-1.18,-2.94,9.01,0.29444444444444445,-0.19333333333333333,-0.9222222222222224,-1.1875,-2.8125,35.4375
1589380800.3699212,-1.18,-2.89,8.99,0.29444444444444445,-0.19333333333333333,-0.9222222222222224,-1.125,-2.3125,31.375
1589380800.3807163,-1.2,-2.81,8.81,0.29444444444444445,-0.19333333333333333,-0.9222222222222224,-1.1875,-1.9375,27.0
1589380800.3904116,-1.24,-2.88,8.9,0.29444444444444445,-0.19333333333333333,-0.9222222222222224,-1.1875,-1.5,23.5625
1589380800.4025006,-1.25,-2.92,8.87,0.29444444444444445,-0.19333333333333333,-0.9222222222222224,-1.125,-1.3125,20.0
1589380800.4098706,-1.33,-3.01,8.91,0.2788888888888889,-0.2933333333333333,-0.8511111111111112,-1.125,-0.8125,16.4375
1589380800.420031,-1.35,-2.97,8.88,0.2788888888888889,-0.2933333333333333,-0.8511111111111112,-1.25,-0.625,13.0625
1589380800.431735,-1.34,-2.97,8.89,0.2788888888888889,-0.2933333333333333,-0.8511111111111112,-1.1875,-0.5625,10.4375
1589380800.4406323,-1.36,-2.95,8.91,0.2788888888888889,-0.2933333333333333,-0.8511111111111112,-1.25,-0.0625,7.5625
1589380800.4552267,-1.36,-2.94,8.96,0.2788888888888889,-0.2933333333333333,-0.8511111111111112,-1.1875,0.125,5.1875
1589380800.4612696,-1.38,-3.0,8.99,0.3466666666666667,-0.3233333333333333,-0.7588888888888888,-0.875,0.75,2.8125
1589380800.4713874,-1.38,-2.96,8.98,0.3466666666666667,-0.3233333333333333,-0.7588888888888888,-1.0,0.875,0.25
1589380800.4827619,-1.4,-2.95,8.85,0.3466666666666667,-0.3233333333333333,-0.7588888888888888,-0.875,1.1875,-2.0625
1589380800.490709,-1.33,-2.88,8.88,0.3466666666666667,-0.3233333333333333,-0.7588888888888888,-0.8125,1.375,-4.1875
1589380800.5028946,-1.3,-2.86,8.88,0.3466666666666667,-0.3233333333333333,-0.7588888888888888,-0.625,1.875,-6.625
1589380800.5150445,-1.34,-2.91,8.94,0.4088888888888889,-0.33555555555555555,-0.7022222222222222,-0.625,2.0625,-8.875
1589380800.5203846,-1.35,-2.9,8.96,0.4088888888888889,-0.33555555555555555,-0.7022222222222222,-0.6875,2.3125,-11.75
1589380800.5350964,-1.42,-3.0,8.86,0.4088888888888889,-0.33555555555555555,-0.7022222222222222,-0.625,2.625,-14.5625
1589380800.5415895,-1.47,-2.98,8.93,0.4088888888888889,-0.33555555555555555,-0.7022222222222222,-0.5625,2.75,-16.8125
1589380800.553211,-1.48,-3.0,8.97,0.4088888888888889,-0.33555555555555555,-0.7022222222222222,-0.3125,2.9375,-17.8125
1589380800.5600162,-1.37,-3.37,9.02,0.4622222222222222,-0.3233333333333333,-0.6944444444444444,-0.0625,2.8125,-19.0
1589380800.5737393,-1.34,-3.05,8.77,0.4622222222222222,-0.3233333333333333,-0.6944444444444444,0.125,3.3125,-24.0
1589380800.5811744,-1.39,-2.94,8.97,0.4622222222222222,-0.3233333333333333,-0.6944444444444444,-0.1875,3.0625,-28.9375
1589380800.5915434,-1.37,-2.87,8.83,0.4622222222222222,-0.3233333333333333,-0.6944444444444444,0.875,3.875,-30.375
1589380800.606774,-1.4,-3.0,8.91,0.4622222222222222,-0.3233333333333333,-0.6944444444444444,0.6875,3.8125,-31.3125
1589380800.6140075,-1.4,-3.01,8.93,0.5044444444444445,-0.28,-0.6944444444444444,0.5625,3.8125,-32.6875
1589380800.621952,-1.4,-3.02,8.94,0.5044444444444445,-0.28,-0.6944444444444444,0.625,3.875,-33.6875
1589380800.6337302,-1.38,-3.04,8.87,0.5044444444444445,-0.28,-0.6944444444444444,0.5,3.8125,-34.5625
1589380800.6420655,-1.36,-3.08,8.91,0.5044444444444445,-0.28,-0.6944444444444444,0.6875,3.6875,-35.3125
1589380800.6542337,-1.2,-3.02,8.95,0.5044444444444445,-0.28,-0.6944444444444444,0.6875,3.3125,-36.375
1589380800.6642895,-1.46,-3.08,9.0,0.5633333333333334,-0.2344444444444445,-0.7022222222222222,0.9375,4.125,-38.125
1589380800.6717858,-1.26,-3.05,8.95,0.5633333333333334,-0.2344444444444445,-0.7022222222222222,0.875,3.6875,-36.6875
1589380800.685885,-1.36,-3.05,8.87,0.5633333333333334,-0.2344444444444445,-0.7022222222222222,1.0,3.6875,-37.125
1589380800.69193,-1.43,-3.03,8.89,0.5633333333333334,-0.2344444444444445,-0.7022222222222222,1.125,4.0625,-37.1875
1589380800.7039893,-1.37,-3.05,8.91,0.5633333333333334,-0.2344444444444445,-0.7022222222222222,1.1875,3.5625,-36.3125
1589380800.7116866,-1.36,-3.05,8.92,0.6288888888888889,-0.23222222222222225,-0.73,1.25,3.5,-35.8125
1589380800.7217305,-1.36,-3.04,8.93,0.6288888888888889,-0.23222222222222225,-0.73,1.4375,3.375,-34.1875
1589380800.7316597,-1.34,-3.1,8.85,0.6288888888888889,-0.23222222222222225,-0.73,1.25,3.0,-32.9375
1589380800.7459161,-1.26,-3.04,8.88,0.6288888888888889,-0.23222222222222225,-0.73,1.125,2.5625,-32.0625
1589380800.7540689,-1.28,-3.1,8.96,0.6288888888888889,-0.23222222222222225,-0.73,1.125,2.875,-31.5
1589380800.76158,-1.26,-3.06,8.97,0.5877777777777777,-0.3033333333333333,-0.7444444444444445,1.25,2.875,-30.6875
1589380800.7713351,-1.25,-3.06,8.98,0.5877777777777777,-0.3033333333333333,-0.7444444444444445,1.1875,2.8125,-29.8125
1589380800.7828176,-1.2,-3.1,8.87,0.5877777777777777,-0.3033333333333333,-0.7444444444444445,1.3125,2.6875,-28.875
1589380800.7922823,-1.21,-3.09,8.92,0.5877777777777777,-0.3033333333333333,-0.7444444444444445,1.25,2.6875,-28.3125
1589380800.8045847,-1.27,-3.16,8.91,0.5877777777777777,-0.3033333333333333,-0.7444444444444445,1.25,2.8125,-27.4375
1589380800.816027,-1.25,-3.22,8.93,0.5366666666666666,-0.24444444444444444,-0.6944444444444444,1.25,2.5625,-26.0
1589380800.8221688,-1.3,-3.31,8.88,0.5366666666666666,-0.24444444444444444,-0.6944444444444444,1.125,2.4375,-24.5625
1589380800.8364134,-1.29,-3.35,8.81,0.5366666666666666,-0.24444444444444444,-0.6944444444444444,1.0,2.1875,-22.0
1589380800.8424213,-1.21,-3.32,8.83,0.5366666666666666,-0.24444444444444444,-0.6944444444444444,1.0625,2.0,-19.6875
1589380800.8553483,-1.34,-3.53,8.92,0.5366666666666666,-0.24444444444444444,-0.6944444444444444,0.8125,1.8125,-17.875
1589380800.8617914,-1.23,-3.44,8.9,0.5288888888888889,-0.19111111111111112,-0.6588888888888889,0.875,1.625,-15.375
1589380800.8732598,-1.31,-3.52,8.95,0.5288888888888889,-0.19111111111111112,-0.6588888888888889,0.8125,1.6875,-12.875
1589380800.8824859,-1.35,-3.6,8.79,0.5288888888888889,-0.19111111111111112,-0.6588888888888889,0.75,1.1875,-9.375
1589380800.8928704,-1.31,-3.65,8.88,0.5288888888888889,-0.19111111111111112,-0.6588888888888889,0.4375,0.6875,-5.625
1589380800.9050796,-1.3,-3.66,8.88,0.5288888888888889,-0.19111111111111112,-0.6588888888888889,0.6875,0.6875,-2.5625
1589380800.9138653,-1.3,-3.68,8.93,0.5288888888888889,-0.15222222222222226,-0.6666666666666666,0.3125,0.25,0.9375
1589380800.9225485,-1.3,-3.66,8.85,0.5288888888888889,-0.15222222222222226,-0.6666666666666666,0.25,-0.25,4.8125
1589380800.9328847,-1.32,-3.76,8.75,0.5288888888888889,-0.15222222222222226,-0.6666666666666666,0.1875,-0.5,8.75
1589380800.9434447,-1.25,-3.73,8.81,0.5288888888888889,-0.15222222222222226,-0.6666666666666666,-0.0625,-1.0625,12.3125
1589380800.955039,-1.21,-3.7,8.9,0.5288888888888889,-0.15222222222222226,-0.6666666666666666,-0.125,-1.25,14.3125
1589380800.9625902,-1.24,-3.78,8.91,0.5366666666666666,-0.14,-0.6733333333333333,0.0625,-1.3125,15.8125
1589380800.9732685,-1.25,-3.73,8.96,0.5366666666666666,-0.14,-0.6733333333333333,-0.0625,-1.4375,17.5
1589380800.9834607,-1.14,-3.67,8.8,0.5366666666666666,-0.14,-0.6733333333333333,0.25,-1.4375,18.8125
1589380800.9949355,-1.11,-3.69,8.91,0.5366666666666666,-0.14,-0.6733333333333333,0.3125,-1.8125,19.4375
1589380801.020473,-1.11,-3.68,8.89,0.5366666666666666,-0.14,-0.6733333333333333,0.4375,-1.5625,19.1875
1589380801.030199,-1.02,-3.57,8.93,0.5311111111111111,-0.12555555555555556,-0.6733333333333333,0.4375,-1.4375,15.625
1589380801.0418506,-0.92,-3.42,8.78,0.5311111111111111,-0.12555555555555556,-0.6733333333333333,0.5625,-1.1875,11.9375
1589380801.0615315,-0.91,-3.34,8.85,0.5311111111111111,-0.12555555555555556,-0.6733333333333333,0.625,-0.75,7.375
1589380801.080966,-0.92,-3.27,8.94,0.5377777777777778,-0.12,-0.6944444444444444,0.75,0.1875,-5.125
1589380801.0903964,-0.92,-3.12,8.88,0.5377777777777778,-0.12,-0.6944444444444444,1.125,1.1875,-18.625
1589380801.1116743,-0.92,-2.97,8.91,0.5377777777777778,-0.12,-0.6944444444444444,1.125,2.0625,-26.125
1589380801.1208994,-0.94,-2.89,8.98,0.5555555555555556,-0.13333333333333333,-0.68,1.5,3.5625,-40.1875
1589380801.1441998,-0.99,-2.9,9.01,0.5555555555555556,-0.13333333333333333,-0.68,1.875,4.25,-46.5
1589380801.1558511,-1.2,-3.09,8.91,0.5555555555555556,-0.13333333333333333,-0.68,2.375,5.625,-59.4375
1589380801.1846356,-1.26,-3.14,8.96,0.59,-0.11333333333333333,-0.6877777777777778,2.25,5.625,-61.125
1589380801.2016954,-1.5,-3.28,8.98,0.59,-0.11333333333333333,-0.6877777777777778,1.9375,5.4375,-58.5625
1589380801.2078226,-0.87,-3.02,8.97,0.59,-0.11333333333333333,-0.6877777777777778,1.4375,4.625,-53.4375
1589380801.2212238,-1.39,-3.2,8.87,0.7022222222222222,-0.10666666666666667,-0.6877777777777778,1.6875,4.9375,-54.4375
1589380801.2292054,-0.91,-3.28,8.91,0.7022222222222222,-0.10666666666666667,-0.6877777777777778,2.1875,6.25,-50.75
1589380801.2358403,-0.54,-3.0,8.91,0.7022222222222222,-0.10666666666666667,-0.6877777777777778,1.0,4.0,-49.6875
1589380801.2432053,-1.0,-3.03,8.88,0.7022222222222222,-0.10666666666666667,-0.6877777777777778,1.5,5.0625,-55.0625
1589380801.2562006,-1.14,-3.07,8.94,0.7022222222222222,-0.10666666666666667,-0.6877777777777778,2.125,6.1875,-57.375
1589380801.2629135,-1.16,-3.17,8.99,1.0644444444444443,-0.08888888888888889,-0.7588888888888888,1.4375,5.0625,-55.375
1589380801.2749426,-1.16,-3.17,8.99,1.0644444444444443,-0.08888888888888889,-0.7588888888888888,1.4375,5.0625,-55.375
1589380801.283551,-1.28,-3.63,8.83,1.0644444444444443,-0.08888888888888889,-0.7588888888888888,1.6875,4.75,-43.1875
1589380801.2934024,-0.91,-3.48,8.86,1.0644444444444443,-0.08888888888888889,-0.7588888888888888,0.9375,3.0,-32.625
1589380801.2992013,-0.91,-3.48,8.86,1.0644444444444443,-0.08888888888888889,-0.7588888888888888,0.9375,3.0,-32.625
1589380801.3052745,-0.76,-3.34,8.88,1.0644444444444443,-0.08888888888888889,-0.7588888888888888,1.0,2.6875,-26.5625
1589380801.3169575,-0.67,-3.1,8.96,1.6833333333333331,-0.4922222222222222,-1.3255555555555556,0.625,2.25,-26.1875
1589380801.3243284,-0.92,-2.83,8.98,1.6833333333333331,-0.4922222222222222,-1.3255555555555556,0.375,2.25,-28.625
1589380801.333433,-0.99,-2.81,8.91,1.6833333333333331,-0.4922222222222222,-1.3255555555555556,0.5625,2.5625,-29.0
1589380801.3396564,-0.99,-2.81,8.91,1.6833333333333331,-0.4922222222222222,-1.3255555555555556,0.5625,2.5625,-29.0
1589380801.3509588,-1.03,-2.86,8.94,1.6833333333333331,-0.4922222222222222,-1.3255555555555556,0.9375,3.0,-27.0625
1589380801.3565152,-0.96,-3.04,8.93,1.6833333333333331,-0.4922222222222222,-1.3255555555555556,1.0,2.875,-23.6875
1589380801.3690352,-1.07,-3.06,9.01,0.7855555555555556,-0.29444444444444445,-0.7888888888888889,1.0,2.5,-20.1875
1589380801.3757634,-1.27,-3.07,8.99,0.7855555555555556,-0.29444444444444445,-0.7888888888888889,1.0,2.25,-15.0625
1589380801.3837664,-1.33,-2.91,8.89,0.7855555555555556,-0.29444444444444445,-0.7888888888888889,0.5625,1.0625,-6.0
1589380801.3945234,-1.37,-2.92,8.98,0.7855555555555556,-0.29444444444444445,-0.7888888888888889,0.3125,-0.375,5.0625
1589380801.406416,-1.36,-2.97,8.96,0.7855555555555556,-0.29444444444444445,-0.7888888888888889,0.125,-1.0,16.6875
1589380801.414088,-1.25,-2.97,8.96,0.6077777777777778,-0.07777777777777778,-0.7322222222222222,-0.375,-2.3125,28.6875
1589380801.4259171,-1.06,-3.08,8.93,0.6077777777777778,-0.07777777777777778,-0.7322222222222222,-0.5625,-3.25,39.125
1589380801.4341793,-1.03,-3.0,8.82,0.6077777777777778,-0.07777777777777778,-0.7322222222222222,-0.6875,-4.0,47.5
1589380801.4473267,-0.95,-3.03,8.91,0.6077777777777778,-0.07777777777777778,-0.7322222222222222,-1.0625,-4.8125,54.5
1589380801.4564354,-0.93,-3.11,8.96,0.6077777777777778,-0.07777777777777778,-0.7322222222222222,-1.1875,-5.4375,59.8125
1589380801.4680314,-0.86,-3.23,8.94,0.5488888888888889,-0.031111111111111114,-0.7388888888888889,-1.3125,-5.625,64.5
1589380801.4744668,-0.74,-3.19,8.96,0.5488888888888889,-0.031111111111111114,-0.7388888888888889,-1.4375,-6.125,68.6875
1589380801.4851036,-0.65,-3.2,8.89,0.5488888888888889,-0.031111111111111114,-0.7388888888888889,-1.4375,-6.375,70.25
1589380801.499217,-0.82,-3.35,8.92,0.5488888888888889,-0.031111111111111114,-0.7388888888888889,-1.5,-6.1875,69.75
1589380801.5077553,-0.85,-3.37,8.94,0.5488888888888889,-0.031111111111111114,-0.7388888888888889,-1.375,-6.0,69.875
1589380801.5206356,-0.87,-3.39,8.94,0.5644444444444444,-0.06222222222222223,-0.7177777777777777,-1.5,-6.0625,71.375
1589380801.5276866,-0.74,-3.32,8.94,0.5644444444444444,-0.06222222222222223,-0.7177777777777777,-1.625,-6.375,73.375
1589380801.5358787,-0.62,-3.38,8.99,0.5644444444444444,-0.06222222222222223,-0.7177777777777777,-1.625,-6.8125,73.0625
1589380801.5463068,-0.47,-3.23,8.87,0.5644444444444444,-0.06222222222222223,-0.7177777777777777,-1.375,-6.3125,69.5
1589380801.56025,-0.3,-3.15,8.92,0.5644444444444444,-0.06222222222222223,-0.7177777777777777,-1.25,-5.8125,63.75
1589380801.565957,-0.18,-3.15,8.95,0.5377777777777778,-0.09333333333333334,-0.7177777777777777,-1.0,-4.8125,53.625
1589380801.5786994,0.0,-3.06,8.94,0.5377777777777778,-0.09333333333333334,-0.7177777777777777,-0.5,-3.4375,40.375
1589380801.5846105,-0.03,-3.06,8.89,0.5377777777777778,-0.09333333333333334,-0.7177777777777777,0.0,-2.3125,24.5
1589380801.5982056,-0.44,-3.57,8.78,0.5377777777777778,-0.09333333333333334,-0.7177777777777777,0.4375,-0.3125,7.875
1589380801.6065884,12.39,24.4,3.11,0.5377777777777778,-0.09333333333333334,-0.7177777777777777,-15.4375,19.6875,-11.75
1589380801.6176288,-0.71,-1.61,-0.73,0.5111111111111111,-0.08333333333333333,-0.6611111111111111,-52.375,77.5625,-93.9375
1589380801.624585,-3.9,-0.64,14.8,0.5111111111111111,-0.08333333333333333,-0.6611111111111111,-23.25,39.6875,-158.125
1589380801.6386054,-1.04,-0.72,11.19,0.5111111111111111,-0.08333333333333333,-0.6611111111111111,25.6875,-58.625,-151.375
1589380801.6452312,-1.4,0.08,9.01,0.5111111111111111,-0.08333333333333333,-0.6611111111111111,46.75,-44.5625,-131.375
1589380801.6568475,-0.78,-0.37,9.31,0.5111111111111111,-0.08333333333333333,-0.6611111111111111,3.6875,25.9375,-108.375
1589380801.6646686,-1.06,0.4,9.16,0.5244444444444445,-0.022222222222222227,-0.6677777777777778,-0.625,4.8125,-94.3125
1589380801.6752868,-0.92,0.99,8.79,0.5244444444444445,-0.022222222222222227,-0.6677777777777778,4.1875,9.5625,-72.25
1589380801.685633,-0.61,1.32,9.54,0.5244444444444445,-0.022222222222222227,-0.6677777777777778,1.1875,5.125,-49.625
1589380801.6954422,-0.95,1.32,9.47,0.5244444444444445,-0.022222222222222227,-0.6677777777777778,1.875,3.875,-34.5
1589380801.7071714,-1.35,1.15,9.48,0.5244444444444445,-0.022222222222222227,-0.6677777777777778,0.4375,2.375,-22.3125
1589380801.7176545,-1.3,-1.81,8.29,0.5044444444444445,0.0011111111111111113,-0.6755555555555556,-0.1875,2.25,-6.5625
1589380801.7296915,-0.63,-2.29,9.25,0.5044444444444445,0.0011111111111111113,-0.6755555555555556,-1.9375,-0.5625,2.9375
1589380801.7364225,-0.82,-2.65,8.9,0.5044444444444445,0.0011111111111111113,-0.6755555555555556,-0.5625,-1.8125,1.125
1589380801.749462,-0.73,-2.73,9.38,0.5044444444444445,0.0011111111111111113,-0.6755555555555556,-0.0625,-0.1875,3.5
1589380801.757482,-0.68,-2.53,8.92,0.5044444444444445,0.0011111111111111113,-0.6755555555555556,-0.1875,-1.1875,7.4375
1589380801.7655373,-0.44,-2.42,9.03,0.4922222222222222,0.0033333333333333327,-0.6611111111111111,-0.25,-0.75,9.4375
1589380801.7754345,-0.64,-2.52,9.06,0.4922222222222222,0.0033333333333333327,-0.6611111111111111,-0.0625,-0.1875,7.125
1589380801.7890947,-0.76,-2.71,8.98,0.4922222222222222,0.0033333333333333327,-0.6611111111111111,-0.1875,-0.3125,5.4375
1589380801.7955654,-0.84,-2.75,8.77,0.4922222222222222,0.0033333333333333327,-0.6611111111111111,0.25,-0.625,8.0
1589380801.808583,-0.74,-2.85,9.17,0.4922222222222222,0.0033333333333333327,-0.6611111111111111,-0.375,-1.0625,11.5
1589380801.815531,-0.56,-2.82,8.97,0.5066666666666667,0.03,-0.6522222222222223,0.3125,-0.8125,14.75
1589380801.8255873,-0.61,-2.94,8.97,0.5066666666666667,0.03,-0.6522222222222223,-1.0625,-1.5,13.375
1589380801.8313482,-0.61,-2.94,8.97,0.5066666666666667,0.03,-0.6522222222222223,-1.0625,-1.5,13.375
1589380801.8378954,-0.64,-2.96,8.68,0.5066666666666667,0.03,-0.6522222222222223,-0.375,-1.0625,11.625
1589380801.8496096,-0.63,-2.99,8.99,0.5066666666666667,0.03,-0.6522222222222223,0.3125,-0.8125,10.625
1589380801.8586946,-0.6,-2.87,8.91,0.5066666666666667,0.03,-0.6522222222222223,0.25,-0.625,9.125
1589380801.8702338,-0.71,-3.06,9.15,0.5077777777777778,0.01,-0.6966666666666667,0.1875,-0.625,6.25
1589380801.8823788,-0.72,-2.99,8.78,0.5077777777777778,0.01,-0.6966666666666667,0.1875,0.5625,4.0
1589380801.8889432,-0.76,-3.08,8.85,0.5077777777777778,0.01,-0.6966666666666667,-0.625,-0.25,4.1875
1589380801.902193,-0.67,-3.18,8.85,0.5077777777777778,0.01,-0.6966666666666667,0.0,-0.125,5.8125
1589380801.9079626,-0.72,-3.21,8.97,0.5077777777777778,0.01,-0.6966666666666667,0.3125,-0.5625,5.8125
1589380801.9184964,-2.79,-7.07,9.71,0.5133333333333333,-0.0011111111111111113,-0.6677777777777778,0.0625,-0.375,4.125
1589380801.9266098,1.92,0.38,8.72,0.5133333333333333,-0.0011111111111111113,-0.6677777777777778,12.125,-4.375,-12.625
1589380801.9404428,0.11,-0.83,8.91,0.5133333333333333,-0.0011111111111111113,-0.6677777777777778,18.625,4.125,-47.6875
1589380801.9470198,-1.02,-3.0,9.1,0.5133333333333333,-0.0011111111111111113,-0.6677777777777778,5.3125,11.5625,-37.9375
1589380801.958965,-1.59,-5.21,8.92,0.5133333333333333,-0.0011111111111111113,-0.6677777777777778,-0.625,0.8125,-24.3125
1589380801.965722,-0.55,-2.99,8.91,0.4933333333333334,-0.008888888888888889,-0.6677777777777778,0.875,1.25,-13.5
1589380801.9751346,-0.55,-2.99,8.91,0.4933333333333334,-0.008888888888888889,-0.6677777777777778,0.875,1.25,-13.5
1589380801.9810755,-1.16,-4.33,8.96,0.4933333333333334,-0.008888888888888889,-0.6677777777777778,0.0625,-0.8125,-8.8125
1589380801.9870086,-1.09,-3.99,8.69,0.4933333333333334,-0.008888888888888889,-0.6677777777777778,-0.25,0.9375,-1.5
1589380801.9963415,-1.03,-3.93,8.74,0.4933333333333334,-0.008888888888888889,-0.6677777777777778,0.0625,0.75,0.125
1589380802.0020578,-1.03,-3.93,8.74,0.4933333333333334,-0.008888888888888889,-0.6677777777777778,0.0625,0.75,0.125
1589380802.0091038,-1.07,-3.93,8.81,0.4933333333333334,-0.008888888888888889,-0.6677777777777778,0.5,0.0625,-0.0625
1589380802.018333,-1.01,-3.97,8.96,0.4866666666666667,0.017777777777777778,-0.6522222222222223,0.625,0.3125,0.0
1589380802.0319052,-1.05,-3.96,8.85,0.4866666666666667,0.017777777777777778,-0.6522222222222223,0.25,0.0625,-0.1875
1589380802.0376885,-1.03,-3.97,8.85,0.4866666666666667,0.017777777777777778,-0.6522222222222223,-0.375,0.0,0.0
1589380802.0480757,-1.08,-3.97,8.73,0.4866666666666667,0.017777777777777778,-0.6522222222222223,0.0625,0.1875,0.0625
1589380802.0598714,-0.99,-3.95,8.94,0.4866666666666667,0.017777777777777778,-0.6522222222222223,-0.0625,-0.0625,-0.0625
1589380802.0675027,-1.09,-3.94,8.96,0.52,0.017777777777777778,-0.6522222222222223,0.25,0.0,-0.0625
1589380802.0781481,-1.05,-3.98,8.91,0.52,0.017777777777777778,-0.6522222222222223,-0.125,0.0625,0.0
1589380802.09169,-1.06,-3.97,8.72,0.52,0.017777777777777778,-0.6522222222222223,-0.375,0.0,-0.1875
1589380802.0976956,-1.01,-3.99,8.84,0.52,0.017777777777777778,-0.6522222222222223,-0.25,0.125,0.0
1589380802.1102505,-1.03,-3.96,8.85,0.52,0.017777777777777778,-0.6522222222222223,0.125,-0.0625,0.0
1589380802.1183884,-1.0,-3.94,8.98,0.5011111111111111,0.01,-0.6677777777777778,0.375,-0.0625,-0.0625
1589380802.1282165,-1.08,-3.93,8.87,0.5011111111111111,0.01,-0.6677777777777778,0.625,0.125,-0.0625
1589380802.1381454,-1.02,-3.97,8.83,0.5011111111111111,0.01,-0.6677777777777778,-0.0625,0.0,-0.125
1589380802.148383,-1.07,-3.97,8.82,0.5011111111111111,0.01,-0.6677777777777778,-0.25,0.1875,0.0
1589380802.1612813,-1.03,-3.95,8.92,0.5011111111111111,0.01,-0.6677777777777778,-0.0625,0.25,-0.0625
1589380802.172717,-1.06,-3.94,8.84,0.52,0.017777777777777778,-0.6677777777777778,0.25,0.0625,0.0
1589380802.1856625,-1.05,-3.97,8.81,0.52,0.017777777777777778,-0.6677777777777778,0.1875,0.1875,-0.0625
1589380802.1917145,-1.04,-3.96,8.75,0.52,0.017777777777777778,-0.6677777777777778,0.0,0.25,-0.0625
1589380802.1981206,-1.04,-3.97,8.82,0.52,0.017777777777777778,-0.6677777777777778,-0.25,0.0,0.0
1589380802.211057,-1.06,-3.97,8.83,0.52,0.017777777777777778,-0.6677777777777778,0.0625,-0.0625,0.0
1589380802.218293,-1.04,-3.95,8.91,0.52,0.01,-0.6611111111111111,0.375,0.0,-0.125
1589380802.2282572,-1.04,-3.91,8.86,0.52,0.01,-0.6611111111111111,0.375,0.0,-0.125
1589380802.2414706,-1.04,-3.94,8.84,0.52,0.01,-0.6611111111111111,-0.0625,0.25,0.0
1589380802.2482774,-1.04,-3.97,8.76,0.52,0.01,-0.6611111111111111,-0.1875,0.125,-0.125
1589380802.2647107,-1.05,-3.97,8.89,0.52,0.01,-0.6611111111111111,0.0,0.25,-0.0625
1589380802.2713628,-1.04,-3.95,8.85,0.5133333333333333,0.01,-0.6522222222222223,0.125,0.1875,0.0
1589380802.282795,-1.03,-3.96,8.92,0.5133333333333333,0.01,-0.6522222222222223,0.125,0.0625,-0.0625
1589380802.2887561,-1.05,-3.96,8.78,0.5133333333333333,0.01,-0.6522222222222223,-0.125,0.1875,0.0
1589380802.2988524,-1.04,-3.98,8.81,0.5133333333333333,0.01,-0.6522222222222223,0.1875,0.25,0.125
1589380802.3110945,-1.05,-3.96,8.84,0.5133333333333333,0.01,-0.6522222222222223,0.0,0.0,0.0
1589380802.3225346,-1.03,-3.97,8.89,0.5133333333333333,0.01,-0.6677777777777778,0.1875,0.0,0.0
1589380802.3286235,-1.03,-3.94,8.87,0.5133333333333333,0.01,-0.6677777777777778,0.0,-0.25,-0.0625
1589380802.3420718,-1.05,-3.95,8.77,0.5133333333333333,0.01,-0.6677777777777778,-0.1875,0.125,0.0
1589380802.348628,-1.05,-3.97,8.79,0.5133333333333333,0.01,-0.6677777777777778,-0.25,0.0625,-0.1875
1589380802.3616862,-1.05,-3.97,8.87,0.5133333333333333,0.01,-0.6677777777777778,-0.125,0.0625,-0.1875
1589380802.3687232,-1.03,-3.97,8.89,0.5077777777777778,0.024444444444444446,-0.6611111111111111,0.1875,0.125,-0.0625
1589380802.3790927,-1.03,-3.95,8.93,0.5077777777777778,0.024444444444444446,-0.6611111111111111,0.25,0.0625,-0.25
1589380802.3925624,-1.02,-3.95,8.83,0.5077777777777778,0.024444444444444446,-0.6611111111111111,0.0,0.125,-0.125
1589380802.3990235,-1.04,-3.96,8.87,0.5077777777777778,0.024444444444444446,-0.6611111111111111,-0.125,0.0625,-0.1875
1589380802.4120634,-1.08,-3.94,8.86,0.5077777777777778,0.024444444444444446,-0.6611111111111111,-0.0625,0.0,0.0
1589380802.419745,-1.03,-3.96,8.9,0.5011111111111111,0.017777777777777778,-0.6522222222222223,0.0625,0.125,-0.0625
1589380802.4311373,-1.04,-3.97,8.9,0.5011111111111111,0.017777777777777778,-0.6522222222222223,-0.0625,0.125,-0.0625
1589380802.4400175,-1.06,-3.96,8.78,0.5011111111111111,0.017777777777777778,-0.6522222222222223,0.0625,0.1875,-0.125
1589380802.4532495,-1.06,-3.97,8.81,0.5011111111111111,0.017777777777777778,-0.6522222222222223,-0.1875,0.0625,-0.0625
1589380802.4619446,-1.04,-3.97,8.86,0.5011111111111111,0.017777777777777778,-0.6522222222222223,-0.125,0.125,0.0
1589380802.469442,-1.02,-3.96,8.91,0.5133333333333333,0.004444444444444445,-0.6677777777777778,0.0,0.1875,0.0
1589380802.4792929,-1.04,-3.94,8.9,0.5133333333333333,0.004444444444444445,-0.6677777777777778,0.1875,0.1875,-0.0625
1589380802.4924872,-1.03,-3.93,8.8,0.5133333333333333,0.004444444444444445,-0.6677777777777778,0.3125,-0.0625,0.0
1589380802.4998946,-1.05,-3.97,8.84,0.5133333333333333,0.004444444444444445,-0.6677777777777778,-0.0625,0.0625,0.0625
1589380802.5119185,-1.05,-3.98,8.85,0.5133333333333333,0.004444444444444445,-0.6677777777777778,-0.25,0.0,0.0
1589380802.5201151,-1.05,-3.98,8.87,0.5077777777777778,0.017777777777777778,-0.6677777777777778,-0.125,0.0625,-0.0625
1589380802.5294886,-1.05,-3.98,8.91,0.5077777777777778,0.017777777777777778,-0.6677777777777778,0.0625,0.125,-0.0625
1589380802.540668,-1.05,-3.95,8.8,0.5077777777777778,0.017777777777777778,-0.6677777777777778,0.125,0.0,-0.0625
1589380802.550764,-1.04,-3.96,8.84,0.5077777777777778,0.017777777777777778,-0.6677777777777778,0.0,0.0625,-0.0625
1589380802.5667312,-1.03,-3.95,8.87,0.5077777777777778,0.017777777777777778,-0.6677777777777778,0.0625,0.1875,0.0
1589380802.5729322,-1.04,-3.95,8.89,0.5011111111111111,0.024444444444444446,-0.6533333333333333,0.0625,0.125,0.0
1589380802.5805616,-1.05,-3.94,8.84,0.5011111111111111,0.024444444444444446,-0.6533333333333333,0.125,0.0625,-0.0625
1589380802.5921845,-1.04,-3.96,8.78,0.5011111111111111,0.024444444444444446,-0.6533333333333333,-0.0625,0.0625,0.0
1589380802.6019926,-1.03,-3.95,8.84,0.5011111111111111,0.024444444444444446,-0.6533333333333333,-0.0625,0.0,0.0625
1589380802.612685,-1.04,-3.98,8.87,0.5011111111111111,0.024444444444444446,-0.6533333333333333,-0.1875,0.125,-0.1875
1589380802.6241422,-1.04,-3.97,8.91,0.5277777777777778,0.01,-0.6822222222222222,-0.1875,0.25,-0.0625
1589380802.6310241,-1.05,-3.97,8.87,0.5277777777777778,0.01,-0.6822222222222222,-0.125,-0.0625,-0.0625
1589380802.6432464,-1.03,-3.95,8.79,0.5277777777777778,0.01,-0.6822222222222222,0.1875,0.0,-0.0625
1589380802.6506267,-1.04,-3.95,8.87,0.5277777777777778,0.01,-0.6822222222222222,0.1875,0.125,0.0
1589380802.6638124,-1.04,-3.96,8.9,0.5277777777777778,0.01,-0.6822222222222222,0.1875,0.25,0.125
1589380802.6704347,-1.03,-3.96,8.89,0.5133333333333333,0.017777777777777778,-0.6677777777777778,0.125,-0.0625,-0.1875
1589380802.6807294,-1.04,-3.95,8.9,0.5133333333333333,0.017777777777777778,-0.6677777777777778,0.0625,-0.0625,0.0625
1589380802.6918142,-1.05,-3.95,8.79,0.5133333333333333,0.017777777777777778,-0.6677777777777778,-0.0625,0.1875,-0.0625
1589380802.7018282,-1.06,-3.96,8.85,0.5133333333333333,0.017777777777777778,-0.6677777777777778,0.0,0.125,-0.0625
1589380802.7154806,-1.05,-3.96,8.85,0.5133333333333333,0.017777777777777778,-0.6677777777777778,0.0,0.25,-0.0625
1589380802.7227256,-1.06,-3.96,8.88,0.5077777777777778,0.01,-0.6755555555555556,-0.0625,0.0625,-0.0625
1589380802.7307775,-1.05,-3.98,8.87,0.5077777777777778,0.01,-0.6755555555555556,0.125,0.0625,-0.0625
1589380802.742697,-1.04,-3.97,8.78,0.5077777777777778,0.01,-0.6755555555555556,0.1875,0.0625,-0.0625
1589380802.750304,-1.04,-3.95,8.81,0.5077777777777778,0.01,-0.6755555555555556,0.25,0.125,-0.0625
1589380802.7638671,-1.04,-3.93,8.88,0.5077777777777778,0.01,-0.6755555555555556,0.0625,0.0,-0.125
1589380802.7747846,-1.05,-3.96,8.9,0.5133333333333333,0.017777777777777778,-0.6755555555555556,-0.0625,0.0625,-0.125
1589380802.7816455,-1.06,-3.94,8.9,0.5133333333333333,0.017777777777777778,-0.6755555555555556,-0.1875,0.125,0.0
1589380802.7956414,-1.06,-3.96,8.77,0.5133333333333333,0.017777777777777778,-0.6755555555555556,-0.1875,0.0,0.125
1589380802.8015938,-1.05,-3.96,8.85,0.5133333333333333,0.017777777777777778,-0.6755555555555556,0.0,0.125,0.0
1589380802.8133938,-1.05,-3.94,8.88,0.5133333333333333,0.017777777777777778,-0.6755555555555556,0.0625,0.125,0.0
1589380802.8208132,-1.03,-3.95,8.9,0.5077777777777778,0.024444444444444446,-0.6611111111111111,-0.125,-0.0625,0.0
1589380802.8313622,-1.05,-3.97,8.83,0.5077777777777778,0.024444444444444446,-0.6611111111111111,-0.1875,0.0,-0.0625
1589380802.8414714,-1.03,-3.95,8.78,0.5077777777777778,0.024444444444444446,-0.6611111111111111,-0.0625,0.0,0.0
1589380802.8539035,-1.02,-3.96,8.84,0.5077777777777778,0.024444444444444446,-0.6611111111111111,0.1875,-0.125,0.0
1589380802.8639088,-1.04,-3.95,8.89,0.5077777777777778,0.024444444444444446,-0.6611111111111111,0.125,0.0625,0.0625
1589380802.873491,-1.05,-3.96,8.91,0.5277777777777778,0.017777777777777778,-0.6677777777777778,-0.1875,0.0625,-0.0625
1589380802.8812852,-1.03,-3.97,8.89,0.5277777777777778,0.017777777777777778,-0.6677777777777778,-0.0625,-0.125,0.125
1589380802.8922722,-1.03,-3.96,8.79,0.5277777777777778,0.017777777777777778,-0.6677777777777778,0.0625,0.1875,0.0625
1589380802.9014482,-1.04,-3.96,8.85,0.5277777777777778,0.017777777777777778,-0.6677777777777778,-0.0625,-0.125,0.0
1589380802.9137087,-1.03,-3.96,8.88,0.5277777777777778,0.017777777777777778,-0.6677777777777778,-0.0625,0.0625,0.0
1589380802.9268498,-1.04,-3.96,8.91,0.4933333333333334,0.03,-0.6677777777777778,0.0,-0.125,-0.0625
1589380802.9328597,-1.04,-3.94,8.9,0.4933333333333334,0.03,-0.6677777777777778,0.0,0.0625,0.0625
1589380802.9460778,-1.05,-3.95,8.79,0.4933333333333334,0.03,-0.6677777777777778,-0.125,-0.125,0.0
1589380802.952051,-1.03,-3.95,8.82,0.4933333333333334,0.03,-0.6677777777777778,0.0,-0.0625,0.0625
1589380802.9668393,-1.05,-3.97,8.87,0.4933333333333334,0.03,-0.6677777777777778,0.0,0.0625,0.125
1589380802.9736075,-1.04,-3.96,8.89,0.5277777777777778,0.024444444444444446,-0.6677777777777778,-0.125,-0.1875,0.0
1589380802.9853404,-1.04,-3.96,8.86,0.5277777777777778,0.024444444444444446,-0.6677777777777778,-0.1875,-0.1875,0.0625
1589380802.9921696,-1.05,-3.95,8.8,0.5277777777777778,0.024444444444444446,-0.6677777777777778,-0.125,0.0,0.0625
1589380803.002172,-1.03,-3.96,8.81,0.5277777777777778,0.024444444444444446,-0.6677777777777778,0.0,-0.0625,0.1875
1589380803.0140939,-1.03,-3.95,8.9,0.5277777777777778,0.024444444444444446,-0.6677777777777778,0.125,0.0,0.0625
1589380803.025021,-1.04,-3.95,8.9,0.5011111111111111,0.03,-0.6677777777777778,0.125,0.0,0.0
1589380803.0324373,-1.03,-3.95,8.92,0.5011111111111111,0.03,-0.6677777777777778,0.0625,0.125,0.0
1589380803.0420606,-1.03,-3.95,8.79,0.5011111111111111,0.03,-0.6677777777777778,-0.125,0.0,-0.0625
1589380803.0518155,-1.05,-3.96,8.86,0.5011111111111111,0.03,-0.6677777777777778,-0.0625,0.0,0.0625
1589380803.0643847,-1.03,-3.98,8.86,0.5011111111111111,0.03,-0.6677777777777778,-0.125,0.0,0.0625
1589380803.0721998,-1.04,-3.96,8.9,0.5277777777777778,0.024444444444444446,-0.6533333333333333,-0.125,-0.0625,0.0625
1589380803.085168,-1.04,-3.97,8.84,0.5277777777777778,0.024444444444444446,-0.6533333333333333,-0.0625,0.1875,0.0625
1589380803.092814,-1.05,-3.97,8.79,0.5277777777777778,0.024444444444444446,-0.6533333333333333,0.0,0.0,0.0
1589380803.1046145,-1.04,-3.95,8.81,0.5277777777777778,0.024444444444444446,-0.6533333333333333,0.0625,0.0,0.125
1589380803.1184163,-1.03,-3.96,8.86,0.5277777777777778,0.024444444444444446,-0.6533333333333333,0.0,0.125,0.0625
1589380803.1247652,-1.04,-3.96,8.91,0.5277777777777778,0.017777777777777778,-0.6755555555555556,0.0625,0.0,-0.125
1589380803.1368804,-1.04,-3.97,8.89,0.5277777777777778,0.017777777777777778,-0.6755555555555556,-0.25,0.125,0.0625
1589380803.1436439,-1.04,-3.96,8.79,0.5277777777777778,0.017777777777777778,-0.6755555555555556,-0.0625,0.0,-0.125
1589380803.156217,-1.03,-3.98,8.85,0.5277777777777778,0.017777777777777778,-0.6755555555555556,-0.1875,-0.125,-0.0625
1589380803.1647046,-1.03,-3.97,8.87,0.5277777777777778,0.017777777777777778,-0.6755555555555556,0.0,-0.125,0.0
1589380803.1761947,-1.04,-3.96,8.89,0.5077777777777778,0.024444444444444446,-0.6677777777777778,0.0625,-0.125,0.0
1589380803.1823947,-1.02,-3.95,8.93,0.5077777777777778,0.024444444444444446,-0.6677777777777778,0.0,-0.125,0.0625
1589380803.1933484,-1.03,-3.95,8.79,0.5077777777777778,0.024444444444444446,-0.6677777777777778,-0.0625,0.0625,0.0
1589380803.2025359,-1.05,-3.95,8.82,0.5077777777777778,0.024444444444444446,-0.6677777777777778,-0.0625,-0.0625,0.0
1589380803.215326,-1.04,-3.97,8.86,0.5077777777777778,0.024444444444444446,-0.6677777777777778,-0.125,0.0,0.0625
1589380803.2233253,-1.04,-3.94,8.9,0.5133333333333333,0.017777777777777778,-0.6677777777777778,-0.0625,0.125,0.0625
1589380803.2327592,-1.05,-3.94,8.88,0.5133333333333333,0.017777777777777778,-0.6677777777777778,-0.0625,0.0,0.0
1589380803.2437296,-1.05,-3.93,8.78,0.5133333333333333,0.017777777777777778,-0.6677777777777778,-0.125,0.0,0.0625
