time,acc_x,acc_y,acc_z,mag_x,mag_y,mag_z,gyr_x,gyr_y,gyr_z
1589380812.1560338,-0.29,-4.04,8.88,0.5522222222222222,0.09888888888888887,-0.7588888888888888,-0.0625,-0.0625,0.0625
1589380812.162689,-0.28,-4.04,8.89,0.5522222222222222,0.09888888888888887,-0.7511111111111111,-0.125,0.1875,0.0
1589380812.1763792,-0.28,-4.06,8.88,0.5522222222222222,0.09888888888888887,-0.7511111111111111,0.125,-0.125,0.0
1589380812.1835105,-0.28,-4.04,8.77,0.5522222222222222,0.09888888888888887,-0.7511111111111111,0.0,-0.125,0.0625
1589380812.1985395,-0.26,-4.04,8.79,0.5522222222222222,0.09888888888888887,-0.7511111111111111,-0.0625,0.125,0.125
1589380812.2063036,-0.27,-4.05,8.87,0.5522222222222222,0.09888888888888887,-0.7511111111111111,-0.0625,0.0,-0.1875
1589380812.2184649,-0.28,-4.06,8.91,0.5522222222222222,0.09222222222222222,-0.78,0.0,-0.125,-0.0625
1589380812.224561,-0.27,-4.04,8.86,0.5522222222222222,0.09222222222222222,-0.78,0.0,-0.0625,-0.0625
1589380812.237568,-0.27,-4.04,8.78,0.5522222222222222,0.09222222222222222,-0.78,0.0,-0.0625,0.0
1589380812.2436302,-0.28,-4.05,8.81,0.5522222222222222,0.09222222222222222,-0.78,0.0625,0.0,0.0
1589380812.2580454,-0.26,-4.05,8.89,0.5522222222222222,0.09222222222222222,-0.78,0.1875,0.0,-0.125
1589380812.2648823,-0.26,-4.04,8.9,0.5577777777777778,0.09222222222222222,-0.7655555555555555,0.0625,-0.0625,0.125
1589380812.2773266,-0.27,-4.05,8.89,0.5577777777777778,0.09222222222222222,-0.7655555555555555,-0.125,0.0625,-0.125
1589380812.2841728,-0.27,-4.07,8.78,0.5577777777777778,0.09222222222222222,-0.7655555555555555,-0.0625,0.0625,-0.0625
1589380812.293725,-0.28,-4.06,8.83,0.5577777777777778,0.09222222222222222,-0.7655555555555555,0.0,0.25,0.0625
1589380812.3063312,-0.27,-4.03,8.84,0.5577777777777778,0.09222222222222222,-0.7655555555555555,0.0625,0.125,0.1875
1589380812.3171432,-0.26,-4.05,8.86,0.5455555555555556,0.10666666666666667,-0.7511111111111111,0.0625,-0.0625,0.0
1589380812.3238072,-0.27,-4.04,8.82,0.5455555555555556,0.10666666666666667,-0.7511111111111111,0.1875,0.125,0.125
1589380812.3344467,-0.27,-4.04,8.75,0.5455555555555556,0.10666666666666667,-0.7511111111111111,-0.125,-0.1875,0.0
1589380812.3437805,-0.26,-4.07,8.81,0.5455555555555556,0.10666666666666667,-0.7511111111111111,0.125,0.0,-0.0625
1589380812.3567019,-0.27,-4.05,8.85,0.5455555555555556,0.10666666666666667,-0.7511111111111111,-0.0625,-0.125,-0.0625
1589380812.364108,-0.27,-4.04,8.89,0.5377777777777778,0.09222222222222222,-0.7733333333333333,0.0,0.125,-0.0625
1589380812.374967,-0.28,-4.03,8.87,0.5377777777777778,0.09222222222222222,-0.7733333333333333,0.0,0.0625,0.0
1589380812.385575,-0.25,-4.03,8.79,0.5377777777777778,0.09222222222222222,-0.7733333333333333,-0.125,0.125,0.0
1589380812.3942134,-0.27,-4.06,8.84,0.5377777777777778,0.09222222222222222,-0.7733333333333333,0.0,0.125,0.0
1589380812.4073994,-0.26,-4.05,8.86,0.5377777777777778,0.09222222222222222,-0.7733333333333333,-0.0625,0.25,0.0625
1589380812.4141989,-0.25,-4.06,8.88,0.5644444444444444,0.08,-0.7511111111111111,-0.125,0.25,0.0
1589380812.428631,-0.27,-4.04,8.89,0.5644444444444444,0.08,-0.7511111111111111,0.0,0.0625,0.0
1589380812.434446,-0.26,-4.06,8.76,0.5644444444444444,0.08,-0.7511111111111111,-0.0625,-0.25,0.0
1589380812.4447322,-0.29,-4.05,8.81,0.5644444444444444,0.08,-0.7511111111111111,0.0,-0.125,0.0
1589380812.4566693,-0.28,-4.04,8.86,0.5644444444444444,0.08,-0.7511111111111111,-0.0625,0.0,0.0625
1589380812.4679995,-0.29,-4.05,8.88,0.5644444444444444,0.09222222222222222,-0.7733333333333333,-0.0625,-0.1875,-0.0625
1589380812.4740868,-0.29,-4.04,8.87,0.5644444444444444,0.09222222222222222,-0.7733333333333333,-0.0625,-0.0625,0.125
1589380812.4853218,-0.27,-4.05,8.78,0.5644444444444444,0.09222222222222222,-0.7733333333333333,-0.0625,-0.125,0.0
1589380812.4945052,-0.27,-4.04,8.81,0.5644444444444444,0.09222222222222222,-0.7733333333333333,0.0,-0.0625,0.0625
1589380812.506795,-0.27,-4.05,8.88,0.5644444444444444,0.09222222222222222,-0.7733333333333333,0.0625,-0.125,-0.0625
1589380812.5146265,-0.28,-4.05,8.88,0.5577777777777778,0.08444444444444445,-0.7733333333333333,-0.125,0.0,0.0625
1589380812.5260124,-0.3,-4.04,8.9,0.5577777777777778,0.08444444444444445,-0.7733333333333333,0.0,0.0,0.0625
1589380812.5345356,-0.26,-4.06,8.77,0.5577777777777778,0.08444444444444445,-0.7733333333333333,-0.0625,0.1875,0.0625
1589380812.5468676,-0.26,-4.04,8.82,0.5577777777777778,0.08444444444444445,-0.7733333333333333,-0.125,0.0625,0.0625
1589380812.560582,-0.27,-4.04,8.83,0.5577777777777778,0.08444444444444445,-0.7733333333333333,0.0625,-0.125,-0.0625
1589380812.566816,-0.26,-4.07,8.87,0.5455555555555556,0.08444444444444445,-0.78,0.0,0.0625,-0.0625
1589380812.5800126,-0.26,-4.05,8.84,0.5455555555555556,0.08444444444444445,-0.78,0.0625,0.0,0.0625
1589380812.5860415,-0.26,-4.06,8.76,0.5455555555555556,0.08444444444444445,-0.78,-0.0625,0.0,0.0
1589380812.5958226,-0.28,-4.06,8.83,0.5455555555555556,0.08444444444444445,-0.78,0.0625,0.1875,-0.0625
1589380812.6080427,-0.27,-4.06,8.87,0.5455555555555556,0.08444444444444445,-0.78,-0.125,-0.125,0.0625
1589380812.6187778,-0.27,-4.07,8.89,0.5788888888888889,0.08,-0.78,-0.0625,0.0,0.0
1589380812.625525,-0.28,-4.04,8.88,0.5788888888888889,0.08,-0.78,-0.125,0.1875,0.0
1589380812.6389492,-0.29,-4.05,8.77,0.5788888888888889,0.08,-0.78,-0.125,-0.0625,0.0
1589380812.6456332,-0.29,-4.06,8.81,0.5788888888888889,0.08,-0.78,0.0625,0.0625,-0.0625
1589380812.6580575,-0.28,-4.06,8.82,0.5788888888888889,0.08,-0.78,-0.0625,0.125,-0.0625
1589380812.6660154,-0.29,-4.05,8.89,0.5644444444444444,0.08444444444444445,-0.7866666666666666,-0.1875,0.125,0.0
1589380812.6752396,-0.29,-4.07,8.89,0.5644444444444444,0.08444444444444445,-0.7866666666666666,0.1875,0.0,0.0
1589380812.6854415,-0.25,-4.04,8.77,0.5644444444444444,0.08444444444444445,-0.7866666666666666,0.1875,-0.1875,0.0625
1589380812.6960616,-0.25,-4.04,8.8,0.5644444444444444,0.08444444444444445,-0.7866666666666666,0.0625,-0.125,0.0
1589380812.7104745,-0.25,-4.06,8.85,0.5644444444444444,0.08444444444444445,-0.7866666666666666,0.0,-0.375,0.0
1589380812.7181952,-0.27,-4.06,8.93,0.5788888888888889,0.09222222222222222,-0.7511111111111111,0.1875,-0.125,0.0625
1589380812.7304163,-0.28,-4.05,8.89,0.5788888888888889,0.09222222222222222,-0.7511111111111111,0.0625,-0.0625,0.0
1589380812.7361064,-0.29,-4.05,8.77,0.5788888888888889,0.09222222222222222,-0.7511111111111111,0.125,-0.0625,0.125
1589380812.7520466,-0.27,-4.05,8.79,0.5788888888888889,0.09222222222222222,-0.7511111111111111,0.0625,0.125,-0.0625
1589380812.7587721,-0.25,-4.04,8.84,0.5788888888888889,0.09222222222222222,-0.7511111111111111,0.0,0.0,0.0
1589380812.7698581,-0.26,-4.06,8.86,0.5311111111111111,0.08,-0.7588888888888888,-0.0625,0.125,-0.0625
1589380812.7764952,-0.26,-4.04,8.86,0.5311111111111111,0.08,-0.7588888888888888,0.1875,0.0625,0.0
1589380812.7900093,-0.27,-4.06,8.79,0.5311111111111111,0.08,-0.7588888888888888,0.125,0.0,0.125
1589380812.7957346,-0.27,-4.07,8.84,0.5311111111111111,0.08,-0.7588888888888888,0.0625,-0.125,0.125
1589380812.8092427,-0.28,-4.06,8.86,0.5311111111111111,0.08,-0.7588888888888888,0.0,-0.125,0.0
1589380812.8156798,-0.27,-4.06,8.9,0.5577777777777778,0.09222222222222222,-0.7733333333333333,0.125,0.0,0.125
1589380812.825858,-0.27,-4.06,8.86,0.5577777777777778,0.09222222222222222,-0.7733333333333333,0.0,-0.0625,0.0
1589380812.8369472,-0.28,-4.07,8.78,0.5577777777777778,0.09222222222222222,-0.7733333333333333,0.0,-0.1875,-0.0625
1589380812.8464286,-0.28,-4.05,8.82,0.5577777777777778,0.09222222222222222,-0.7733333333333333,-0.0625,-0.0625,0.0
1589380812.8581526,-0.27,-4.04,8.84,0.5577777777777778,0.09222222222222222,-0.7733333333333333,0.0,0.1875,-0.0625
1589380812.8658755,-0.26,-4.04,8.85,0.5377777777777778,0.09222222222222222,-0.7511111111111111,-0.125,0.0,0.0625
1589380812.8760328,-0.28,-4.05,8.85,0.5377777777777778,0.09222222222222222,-0.7511111111111111,-0.125,-0.0625,0.0625
1589380812.88864,-0.26,-4.06,8.76,0.5377777777777778,0.09222222222222222,-0.7511111111111111,-0.25,-0.125,0.0
1589380812.896091,-0.26,-4.06,8.84,0.5377777777777778,0.09222222222222222,-0.7511111111111111,-0.1875,-0.1875,0.1875
1589380812.908536,-0.26,-4.05,8.87,0.5377777777777778,0.09222222222222222,-0.7511111111111111,-0.1875,-0.375,-0.125
1589380812.9179206,-0.26,-4.04,8.89,0.5644444444444444,0.09222222222222222,-0.7444444444444445,-0.125,-0.4375,-0.0625
1589380812.9260945,-0.27,-4.03,8.92,0.5644444444444444,0.09222222222222222,-0.7444444444444445,-0.0625,-0.1875,0.0
1589380812.9403355,-0.27,-4.05,8.8,0.5644444444444444,0.09222222222222222,-0.7444444444444445,-0.125,-0.25,0.0
1589380812.9464571,-0.3,-4.04,8.79,0.5644444444444444,0.09222222222222222,-0.7444444444444445,-0.3125,-0.125,-0.0625
1589380812.963074,-0.29,-4.05,8.84,0.5644444444444444,0.09222222222222222,-0.7444444444444445,-0.625,-0.5,-0.1875
1589380812.9690619,-0.25,-4.03,8.9,0.5455555555555556,0.08444444444444445,-0.7655555555555555,-0.8125,-1.25,-0.25
1589380812.9797332,-0.21,-4.0,8.79,0.5455555555555556,0.08444444444444445,-0.7655555555555555,-1.25,-1.5625,-0.75
1589380812.9866164,-0.16,-4.0,8.78,0.5455555555555556,0.08444444444444445,-0.7655555555555555,-1.375,-1.9375,-2.375
1589380812.9999135,-0.12,-3.92,8.78,0.5455555555555556,0.08444444444444445,-0.7655555555555555,-1.8125,-1.6875,-5.5
1589380813.0081427,-0.93,-2.15,9.35,0.5455555555555556,0.08444444444444445,-0.7655555555555555,-2.125,-0.9375,-9.625
1589380813.017149,-0.67,-2.33,8.86,0.5722222222222222,0.09888888888888887,-0.7733333333333333,-1.1875,1.6875,-1.0625
1589380813.026272,-0.58,-2.5,8.94,0.5722222222222222,0.09888888888888887,-0.7733333333333333,-0.125,-0.125,14.875
1589380813.036292,-0.52,-2.55,8.9,0.5722222222222222,0.09888888888888887,-0.7733333333333333,-0.75,-2.125,25.125
1589380813.0461302,-0.41,-2.73,8.93,0.5722222222222222,0.09888888888888887,-0.7733333333333333,-0.625,-2.875,32.5
1589380813.0586236,-0.34,-2.77,8.99,0.5722222222222222,0.09888888888888887,-0.7733333333333333,-0.9375,-3.5625,37.1875
1589380813.0691473,-0.31,-2.84,8.99,0.5522222222222222,0.09333333333333334,-0.7733333333333333,-1.0,-4.0625,40.0
1589380813.077742,-0.31,-2.9,8.91,0.5522222222222222,0.09333333333333334,-0.7733333333333333,-1.125,-4.0625,41.1875
1589380813.0924554,-0.3,-2.92,8.89,0.5522222222222222,0.09333333333333334,-0.7733333333333333,-0.9375,-4.1875,41.375
1589380813.098582,-0.36,-2.91,8.91,0.5522222222222222,0.09333333333333334,-0.7733333333333333,-1.0,-4.0625,41.5625
1589380813.1144214,-0.36,-2.98,8.96,0.5522222222222222,0.09333333333333334,-0.7733333333333333,-1.0,-3.8125,42.0
1589380813.1199315,-0.45,-2.91,8.94,0.5522222222222222,0.08666666666666667,-0.7588888888888888,-1.0,-3.9375,42.625
1589380813.1290665,-0.51,-2.9,8.91,0.5522222222222222,0.08666666666666667,-0.7588888888888888,-0.9375,-3.8125,43.75
1589380813.1377206,-0.53,-2.89,8.86,0.5522222222222222,0.08666666666666667,-0.7588888888888888,-1.0625,-3.9375,46.0
1589380813.151711,-0.53,-2.86,8.93,0.5522222222222222,0.08666666666666667,-0.7588888888888888,-1.0625,-4.375,48.8125
1589380813.1600618,-0.57,-2.87,8.96,0.5522222222222222,0.08666666666666667,-0.7588888888888888,-1.1875,-4.8125,51.875
1589380813.1704822,-0.55,-2.95,9.02,0.5577777777777778,0.06666666666666668,-0.78,-1.3125,-5.0625,54.9375
1589380813.1776464,-0.56,-2.95,8.99,0.5577777777777778,0.06666666666666668,-0.78,-1.6875,-5.4375,58.3125
1589380813.1878355,-0.61,-2.96,8.87,0.5577777777777778,0.06666666666666668,-0.78,-1.5625,-5.75,61.4375
1589380813.1979694,-0.64,-2.96,8.97,0.5577777777777778,0.06666666666666668,-0.78,-1.625,-5.9375,64.1875
1589380813.2102256,-0.58,-2.94,8.93,0.5577777777777778,0.06666666666666668,-0.78,-1.5625,-6.1875,67.5
1589380813.21765,-0.69,-3.0,8.97,0.5722222222222222,0.06666666666666668,-0.8088888888888889,-1.625,-6.3125,70.25
1589380813.22963,-0.76,-3.03,8.91,0.5722222222222222,0.06666666666666668,-0.8088888888888889,-2.0,-6.5625,73.4375
1589380813.2437725,-0.75,-3.04,8.84,0.5722222222222222,0.06666666666666668,-0.8088888888888889,-1.9375,-6.75,77.3125
1589380813.2505505,-0.82,-3.1,8.86,0.5722222222222222,0.06666666666666668,-0.8088888888888889,-2.0,-7.3125,81.75
1589380813.2650554,-0.89,-3.12,8.98,0.5722222222222222,0.06666666666666668,-0.8088888888888889,-2.25,-7.875,86.125
1589380813.2710135,-0.94,-3.16,8.97,0.5844444444444444,0.054444444444444434,-0.83,-2.25,-8.6875,91.625
1589380813.288341,-0.96,-3.22,8.84,0.5844444444444444,0.054444444444444434,-0.83,-2.5,-9.5,101.75
1589380813.3024552,-0.9,-3.22,8.93,0.5844444444444444,0.054444444444444434,-0.83,-2.5625,-9.875,106.5625
1589380813.3101664,-0.88,-3.24,8.95,0.5844444444444444,0.054444444444444434,-0.83,-2.6875,-10.1875,109.875
1589380813.3224704,-0.92,-3.23,8.99,0.5822222222222222,0.04,-0.9166666666666666,-3.0,-10.1875,112.0
1589380813.3293805,-1.02,-3.19,8.88,0.5822222222222222,0.04,-0.9166666666666666,-2.8125,-10.5,113.5625
1589380813.3404715,-1.04,-3.12,8.81,0.5822222222222222,0.04,-0.9166666666666666,-2.9375,-10.6875,115.3125
1589380813.3487964,-1.1,-3.16,8.88,0.5822222222222222,0.04,-0.9166666666666666,-3.0625,-10.875,117.875
1589380813.361197,-1.01,-3.2,8.91,0.5822222222222222,0.04,-0.9166666666666666,-3.25,-11.1875,120.1875
1589380813.3680632,-0.98,-3.15,8.94,0.5688888888888889,0.008888888888888889,-1.0166666666666666,-3.125,-11.375,121.1875
1589380813.3784866,-1.04,-3.17,8.97,0.5688888888888889,0.008888888888888889,-1.0166666666666666,-3.0625,-11.1875,120.5625
1589380813.3894565,-1.13,-3.15,8.83,0.5688888888888889,0.008888888888888889,-1.0166666666666666,-3.1875,-11.0,118.625
1589380813.4009836,-1.27,-3.2,8.91,0.5688888888888889,0.008888888888888889,-1.0166666666666666,-3.125,-10.875,117.0
1589380813.4159148,-1.26,-3.14,8.92,0.5688888888888889,0.008888888888888889,-1.0166666666666666,-2.875,-10.5,115.875
1589380813.422386,-1.27,-3.15,9.03,0.4666666666666667,-0.05666666666666665,-1.1655555555555557,-3.25,-10.8125,113.8125
1589380813.4299262,-1.3,-3.13,8.94,0.4666666666666667,-0.05666666666666665,-1.1655555555555557,-3.25,-10.8125,113.8125
1589380813.4401805,-1.34,-3.06,8.8,0.4666666666666667,-0.05666666666666665,-1.1655555555555557,-3.125,-10.3125,112.5
1589380813.4531894,-1.36,-3.04,8.91,0.4666666666666667,-0.05666666666666665,-1.1655555555555557,-3.125,-10.125,109.625
1589380813.4612145,-1.36,-3.1,8.86,0.4666666666666667,-0.05666666666666665,-1.1655555555555557,-3.1875,-10.25,107.4375
1589380813.4734387,-1.43,-3.07,8.96,0.3033333333333333,-0.2255555555555556,-1.1511111111111112,-3.125,-9.75,104.25
1589380813.480156,-1.49,-3.08,8.94,0.3033333333333333,-0.2255555555555556,-1.1511111111111112,-3.0,-9.25,101.625
1589380813.491476,-1.52,-3.01,8.81,0.3033333333333333,-0.2255555555555556,-1.1511111111111112,-2.875,-9.0,98.6875
1589380813.4990273,-1.56,-3.02,8.89,0.3033333333333333,-0.2255555555555556,-1.1511111111111112,-2.75,-8.4375,95.5625
1589380813.5115232,-1.57,-3.04,8.97,0.3033333333333333,-0.2255555555555556,-1.1511111111111112,-2.875,-8.0625,90.875
1589380813.5193365,-1.62,-3.02,8.97,0.22666666666666666,-0.3888888888888889,-1.002222222222222,-2.75,-7.4375,85.75
1589380813.5299144,-1.65,-3.02,8.99,0.22666666666666666,-0.3888888888888889,-1.002222222222222,-2.6875,-6.875,80.625
1589380813.5405624,-1.71,-3.03,8.88,0.22666666666666666,-0.3888888888888889,-1.002222222222222,-2.375,-6.0,75.375
1589380813.552353,-1.74,-2.95,8.92,0.22666666666666666,-0.3888888888888889,-1.002222222222222,-2.1875,-5.6875,70.0
1589380813.566364,-1.75,-2.89,8.92,0.22666666666666666,-0.3888888888888889,-1.002222222222222,-2.25,-5.0625,65.0625
1589380813.5721042,-1.78,-2.87,8.95,0.2677777777777778,-0.4655555555555556,-0.8444444444444444,-2.0625,-4.5625,59.625
1589380813.5799193,-1.91,-2.85,8.87,0.2677777777777778,-0.4655555555555556,-0.8444444444444444,-1.9375,-3.875,54.875
1589380813.5919995,-1.72,-2.78,8.85,0.2677777777777778,-0.4655555555555556,-0.8444444444444444,-1.9375,-3.625,49.6875
1589380813.6021347,-2.01,-2.77,8.92,0.2677777777777778,-0.4655555555555556,-0.8444444444444444,-1.375,-2.1875,43.625
1589380813.6122007,-2.08,-2.76,8.93,0.2677777777777778,-0.4655555555555556,-0.8444444444444444,-1.625,-2.625,40.75
1589380813.624682,-1.94,-2.74,8.99,0.3477777777777778,-0.4744444444444445,-0.7444444444444445,-1.25,-2.4375,38.5625
1589380813.6317186,-2.06,-2.72,9.02,0.3477777777777778,-0.4744444444444445,-0.7444444444444445,-1.1875,-1.75,34.625
1589380813.6448267,-2.23,-2.7,8.88,0.3477777777777778,-0.4744444444444445,-0.7444444444444445,-1.1875,-1.5,31.9375
1589380813.6507106,-2.04,-2.64,8.95,0.3477777777777778,-0.4744444444444445,-0.7444444444444445,-1.3125,-1.875,29.375
1589380813.6620545,-2.1,-2.57,8.97,0.3477777777777778,-0.4744444444444445,-0.7444444444444445,-1.0,-1.125,26.0625
1589380813.6694655,-2.14,-2.54,8.98,0.3922222222222223,-0.46,-0.6944444444444444,-0.625,-0.8125,22.8125
1589380813.684148,-2.12,-2.5,8.96,0.3922222222222223,-0.46,-0.6944444444444444,-0.6875,-1.0625,20.0
1589380813.690729,-1.89,-2.5,8.9,0.3922222222222223,-0.46,-0.6944444444444444,-0.5625,-0.8125,15.875
1589380813.7005742,-1.96,-2.53,8.95,0.3922222222222223,-0.46,-0.6944444444444444,-0.1875,0.0,10.375
1589380813.7179446,-2.03,-2.55,8.97,0.3922222222222223,-0.46,-0.6944444444444444,-0.125,0.5,5.0
1589380813.7239347,-2.0,-2.59,8.98,0.4355555555555555,-0.44222222222222224,-0.6877777777777778,-0.25,0.75,0.125
1589380813.7316315,-1.97,-2.63,8.96,0.4355555555555555,-0.44222222222222224,-0.6877777777777778,0.125,1.125,-5.6875
1589380813.7430458,-1.98,-2.67,8.91,0.4355555555555555,-0.44222222222222224,-0.6877777777777778,0.5625,1.9375,-11.6875
1589380813.7534132,-1.97,-2.66,8.91,0.4355555555555555,-0.44222222222222224,-0.6877777777777778,0.5,2.3125,-17.5
1589380813.762399,-2.05,-2.84,8.97,0.4355555555555555,-0.44222222222222224,-0.6877777777777778,0.625,2.8125,-22.5
1589380813.7701433,-2.09,-2.9,8.97,0.5011111111111111,-0.44222222222222224,-0.68,0.9375,3.25,-27.25
1589380813.7815325,-2.05,-2.97,8.96,0.5011111111111111,-0.44222222222222224,-0.68,1.0,3.5625,-31.9375
1589380813.7953625,-1.95,-3.01,8.86,0.5011111111111111,-0.44222222222222224,-0.68,1.25,3.875,-37.0
1589380813.8013597,-2.0,-3.12,8.91,0.5011111111111111,-0.44222222222222224,-0.68,1.4375,4.3125,-42.25
1589380813.8119216,-1.94,-3.16,8.93,0.5011111111111111,-0.44222222222222224,-0.68,1.5625,4.625,-47.875
1589380813.819453,-1.99,-3.18,8.95,0.5066666666666667,-0.3744444444444445,-0.6855555555555556,1.75,5.3125,-54.1875
1589380813.8315682,-1.96,-3.12,8.88,0.5066666666666667,-0.3744444444444445,-0.6855555555555556,2.0,6.0,-60.125
1589380813.8409572,-2.04,-3.14,8.87,0.5066666666666667,-0.3744444444444445,-0.6855555555555556,2.0,6.125,-65.4375
1589380813.8550177,-2.02,-3.15,8.88,0.5066666666666667,-0.3744444444444445,-0.6855555555555556,2.375,6.6875,-69.875
1589380813.8630257,-1.97,-3.12,8.92,0.5066666666666667,-0.3744444444444445,-0.6855555555555556,2.5,7.125,-73.375
1589380813.8750749,-1.98,-3.2,8.95,0.5166666666666667,-0.3655555555555556,-0.6944444444444444,2.625,7.375,-76.0
1589380813.88177,-1.93,-3.22,8.92,0.5166666666666667,-0.3655555555555556,-0.6944444444444444,2.5,7.25,-77.75
1589380813.8932474,-1.97,-3.24,8.81,0.5166666666666667,-0.3655555555555556,-0.6944444444444444,2.5,7.4375,-79.0625
1589380813.9034982,-1.97,-3.24,8.86,0.5166666666666667,-0.3655555555555556,-0.6944444444444444,2.5625,7.5625,-79.5
1589380813.9129686,-2.04,-3.35,8.95,0.5166666666666667,-0.3655555555555556,-0.6944444444444444,2.4375,7.4375,-79.3125
1589380813.9269366,-1.99,-3.39,8.94,0.5077777777777778,-0.3688888888888889,-0.6966666666666667,2.625,7.25,-78.0625
1589380813.9332135,-2.0,-3.44,8.94,0.5077777777777778,-0.3688888888888889,-0.6966666666666667,2.25,7.25,-76.8125
1589380813.9412878,-2.09,-3.51,8.81,0.5077777777777778,-0.3688888888888889,-0.6966666666666667,2.375,7.125,-74.625
1589380813.9537196,-2.08,-3.5,8.87,0.5077777777777778,-0.3688888888888889,-0.6966666666666667,2.3125,6.6875,-71.25
1589380813.966222,-2.0,-3.51,8.9,0.5077777777777778,-0.3688888888888889,-0.6966666666666667,2.0,6.25,-67.1875
1589380813.9718554,-2.06,-3.57,8.87,0.5288888888888889,-0.3377777777777778,-0.6888888888888889,2.1875,5.875,-62.875
1589380813.9841075,-2.1,-3.67,8.88,0.5288888888888889,-0.3377777777777778,-0.6888888888888889,1.875,5.625,-58.0
1589380813.9916105,-2.15,-3.7,8.77,0.5288888888888889,-0.3377777777777778,-0.6888888888888889,1.9375,5.25,-53.25
1589380814.0057607,-2.24,-3.82,8.85,0.5288888888888889,-0.3377777777777778,-0.6888888888888889,1.5625,4.5,-47.4375
1589380814.0129495,-2.27,-3.91,8.9,0.5288888888888889,-0.3377777777777778,-0.6888888888888889,1.5625,3.9375,-41.4375
1589380814.0244699,-2.21,-3.86,8.89,0.5422222222222223,-0.2888888888888889,-0.6822222222222222,1.25,3.5625,-35.625
1589380814.0316002,-2.27,-3.96,8.88,0.5422222222222223,-0.2888888888888889,-0.6822222222222222,1.1875,2.9375,-29.25
1589380814.0411613,-2.28,-4.02,8.78,0.5422222222222223,-0.2888888888888889,-0.6822222222222222,0.9375,2.375,-23.0
1589380814.0523195,-2.14,-3.98,8.85,0.5422222222222223,-0.2888888888888889,-0.6822222222222222,0.8125,1.625,-16.5625
1589380814.0638835,-2.05,-4.02,8.87,0.5422222222222223,-0.2888888888888889,-0.6822222222222222,0.5625,1.0625,-11.5
1589380814.0714474,-1.99,-3.98,8.86,0.5488888888888889,-0.23777777777777775,-0.6822222222222222,0.625,0.8125,-7.8125
1589380814.0831401,-1.96,-3.97,8.91,0.5488888888888889,-0.23777777777777775,-0.6822222222222222,0.375,0.5,-5.75
1589380814.0924652,-2.03,-3.97,8.75,0.5488888888888889,-0.23777777777777775,-0.6822222222222222,0.5,0.5,-4.5625
1589380814.104242,-2.04,-3.97,8.79,0.5488888888888889,-0.23777777777777775,-0.6822222222222222,0.375,0.375,-3.0
1589380814.1179204,-2.06,-4.0,8.83,0.5488888888888889,-0.23777777777777775,-0.6822222222222222,0.375,0.375,-1.625
1589380814.1244154,-2.0,-3.95,8.88,0.5166666666666667,-0.2111111111111111,-0.6611111111111111,0.4375,0.0625,-0.5
1589380814.1368468,-1.94,-3.9,8.88,0.5166666666666667,-0.2111111111111111,-0.6611111111111111,0.1875,-0.0625,-1.0
1589380814.1434867,-1.99,-3.97,8.78,0.5166666666666667,-0.2111111111111111,-0.6611111111111111,0.5,0.4375,-3.6875
1589380814.1569998,-1.96,-3.97,8.81,0.5166666666666667,-0.2111111111111111,-0.6611111111111111,0.5,0.6875,-8.1875
1589380814.164304,-1.99,-3.87,8.89,0.5166666666666667,-0.2111111111111111,-0.6611111111111111,0.6875,1.125,-13.3125
1589380814.1727002,-1.92,-3.76,8.91,0.5633333333333334,-0.19666666666666666,-0.6888888888888889,0.875,1.6875,-18.3125
1589380814.1821046,-1.78,-3.58,8.91,0.5633333333333334,-0.19666666666666666,-0.6888888888888889,1.0625,1.875,-24.125
1589380814.1951196,-1.81,-3.61,8.79,0.5633333333333334,-0.19666666666666666,-0.6888888888888889,1.3125,2.75,-29.75
1589380814.2015288,-1.79,-3.61,8.86,0.5633333333333334,-0.19666666666666666,-0.6888888888888889,1.4375,3.0625,-35.625
1589380814.213921,-1.7,-3.57,8.9,0.5633333333333334,-0.19666666666666666,-0.6888888888888889,1.625,3.625,-41.25
1589380814.222006,-1.71,-3.61,8.92,0.5366666666666666,-0.19111111111111112,-0.6755555555555556,1.75,4.0625,-46.8125
1589380814.235088,-1.54,-3.54,8.91,0.5366666666666666,-0.19111111111111112,-0.6755555555555556,1.9375,4.5625,-52.1875
1589380814.2432046,-1.57,-3.52,8.82,0.5366666666666666,-0.19111111111111112,-0.6755555555555556,2.1875,5.0625,-58.0625
1589380814.2526705,-1.58,-3.47,8.85,0.5366666666666666,-0.19111111111111112,-0.6755555555555556,2.25,5.9375,-63.625
1589380814.2647247,-1.6,-3.47,8.94,0.5366666666666666,-0.19111111111111112,-0.6755555555555556,2.25,6.0625,-68.625
1589380814.275378,-1.63,-3.49,8.96,0.5633333333333334,-0.17222222222222222,-0.6888888888888889,2.625,6.4375,-73.0
1589380814.2879832,-1.61,-3.45,8.92,0.5633333333333334,-0.17222222222222222,-0.6888888888888889,2.625,7.0625,-76.4375
1589380814.294315,-1.62,-3.53,8.83,0.5633333333333334,-0.17222222222222222,-0.6888888888888889,2.5625,7.0625,-79.375
1589380814.3085635,-1.66,-3.47,8.89,0.5633333333333334,-0.17222222222222222,-0.6888888888888889,2.6875,7.25,-81.9375
1589380814.3150554,-1.68,-3.48,8.91,0.5633333333333334,-0.17222222222222222,-0.6888888888888889,2.75,7.3125,-83.625
1589380814.3220625,-1.61,-3.45,8.93,0.5644444444444444,-0.13777777777777778,-0.6822222222222222,2.6875,7.5,-84.0625
1589380814.3340626,-1.61,-3.47,8.92,0.5644444444444444,-0.13777777777777778,-0.6822222222222222,2.625,7.5625,-84.5625
1589380814.347173,-1.63,-3.51,8.8,0.5644444444444444,-0.13777777777777778,-0.6822222222222222,2.6875,7.6875,-84.75
1589380814.3529801,-1.63,-3.52,8.84,0.5644444444444444,-0.13777777777777778,-0.6822222222222222,2.5625,7.6875,-83.9375
1589380814.3682013,-1.6,-3.54,8.93,0.5644444444444444,-0.13777777777777778,-0.6822222222222222,2.5625,7.4375,-82.4375
1589380814.3741012,-1.62,-3.62,8.88,0.5911111111111111,-0.10666666666666667,-0.6888888888888889,2.5,7.375,-79.75
1589380814.3857105,-1.68,-3.67,8.9,0.5911111111111111,-0.10666666666666667,-0.6888888888888889,2.3125,7.0625,-75.75
1589380814.3931596,-1.69,-3.68,8.78,0.5911111111111111,-0.10666666666666667,-0.6888888888888889,2.375,6.5625,-71.0625
1589380814.4034178,-1.62,-3.68,8.82,0.5911111111111111,-0.10666666666666667,-0.6888888888888889,2.0625,6.3125,-65.4375
1589380814.415912,-1.32,-3.48,8.98,0.5911111111111111,-0.10666666666666667,-0.6888888888888889,1.9375,5.3125,-59.375
1589380814.4272358,-1.42,-3.54,8.92,0.5933333333333334,-0.08666666666666667,-0.7033333333333334,1.625,4.8125,-57.0
1589380814.4356782,-1.38,-3.57,8.92,0.5933333333333334,-0.08666666666666667,-0.7033333333333334,1.6875,5.0625,-55.0625
1589380814.4440234,-1.41,-3.57,8.81,0.5933333333333334,-0.08666666666666667,-0.7033333333333334,1.75,4.875,-52.8125
1589380814.4540687,-1.41,-3.61,8.85,0.5933333333333334,-0.08666666666666667,-0.7033333333333334,1.75,4.8125,-50.0625
1589380814.4654865,-1.46,-3.68,8.87,0.5933333333333334,-0.08666666666666667,-0.7033333333333334,1.75,4.4375,-46.5
1589380814.4729881,-1.41,-3.64,8.91,0.64,-0.05333333333333334,-0.6755555555555556,1.25,3.9375,-42.0
1589380814.4851892,-1.37,-3.54,8.9,0.64,-0.05333333333333334,-0.6755555555555556,1.1875,3.5,-37.8125
1589380814.495148,-1.37,-3.54,8.83,0.64,-0.05333333333333334,-0.6755555555555556,1.25,3.125,-33.375
1589380814.5047624,-1.56,-3.68,8.89,0.64,-0.05333333333333334,-0.6755555555555556,1.0625,2.625,-27.5
1589380814.5189354,-1.33,-3.91,8.88,0.64,-0.05333333333333334,-0.6755555555555556,0.6875,1.875,-18.0
1589380814.5258384,-1.19,-3.98,8.82,0.7177777777777777,-0.054444444444444434,-0.6677777777777778,0.3125,0.375,-8.375
1589380814.537607,-1.09,-3.97,8.89,0.7177777777777777,-0.054444444444444434,-0.6677777777777778,0.4375,0.5,-1.8125
1589380814.543742,-1.26,-3.74,8.79,0.7177777777777777,-0.054444444444444434,-0.6677777777777778,0.5625,0.4375,0.6875
1589380814.553823,-0.94,-3.52,8.89,0.7177777777777777,-0.054444444444444434,-0.6677777777777778,0.1875,-0.125,5.1875
1589380814.5648792,-1.05,-3.42,8.96,0.7177777777777777,-0.054444444444444434,-0.6677777777777778,-0.5,-1.8125,8.375
1589380814.5730712,-1.24,-3.4,8.93,0.9277777777777778,-0.01888888888888889,-0.7244444444444444,0.125,-0.4375,9.5
1589380814.5798926,-1.24,-3.4,8.93,0.9277777777777778,-0.01888888888888889,-0.7244444444444444,0.125,-0.4375,9.5
1589380814.5877454,-1.2,-3.47,8.91,0.9277777777777778,-0.01888888888888889,-0.7244444444444444,0.25,-0.6875,13.75
1589380814.5978436,-1.11,-3.59,8.82,0.9277777777777778,-0.01888888888888889,-0.7244444444444444,-0.3125,-1.6875,19.1875
1589380814.605456,-1.3,-3.58,8.88,0.9277777777777778,-0.01888888888888889,-0.7244444444444444,-0.375,-2.0625,24.5625
1589380814.616459,-1.3,-3.49,8.9,0.9277777777777778,-0.01888888888888889,-0.7244444444444444,-0.375,-2.3125,31.0625
1589380814.623929,-1.19,-3.37,8.96,1.4344444444444444,-0.027777777777777776,-0.8566666666666667,-1.125,-3.9375,38.375
1589380814.6342757,-1.27,-3.47,8.92,1.4344444444444444,-0.027777777777777776,-0.8566666666666667,-1.0,-4.1875,44.4375
1589380814.6453006,-1.19,-3.48,8.77,1.4344444444444444,-0.027777777777777776,-0.8566666666666667,-0.8125,-4.0,51.0
1589380814.654909,-1.11,-3.53,8.87,1.4344444444444444,-0.027777777777777776,-0.8566666666666667,-1.3125,-5.125,57.25
1589380814.6668508,-1.04,-3.51,8.91,1.4344444444444444,-0.027777777777777776,-0.8566666666666667,-1.25,-5.8125,61.375
1589380814.6744478,-1.0,-3.49,8.94,1.6922222222222223,-0.4744444444444445,-1.0855555555555556,-1.375,-5.5625,63.8125
1589380814.6900866,-0.94,-3.45,8.93,1.6922222222222223,-0.4744444444444445,-1.0855555555555556,-1.625,-6.0,65.75
1589380814.6967616,-0.84,-3.43,8.87,1.6922222222222223,-0.4744444444444445,-1.0855555555555556,-1.5625,-6.0,66.8125
1589380814.7079866,-0.83,-3.47,8.86,1.6922222222222223,-0.4744444444444445,-1.0855555555555556,-1.375,-6.0,66.4375
1589380814.7168615,-0.79,-3.46,8.93,1.6922222222222223,-0.4744444444444445,-1.0855555555555556,-1.3125,-5.8125,64.3125
1589380814.7276855,-0.79,-3.41,8.96,0.9822222222222222,-0.4,-0.7855555555555556,-1.125,-5.375,60.875
1589380814.7348454,-0.81,-3.39,8.91,0.9822222222222222,-0.4,-0.7855555555555556,-1.125,-5.0,57.0
1589380814.7455175,-0.82,-3.31,8.82,0.9822222222222222,-0.4,-0.7855555555555556,-1.125,-4.5,53.125
1589380814.75512,-0.82,-3.29,8.88,0.9822222222222222,-0.4,-0.7855555555555556,-0.8125,-4.25,49.0625
1589380814.7669349,-0.81,-3.36,8.92,0.9822222222222222,-0.4,-0.7855555555555556,-0.75,-4.0,45.0625
1589380814.7747133,-0.76,-3.32,8.94,0.7122222222222222,-0.2344444444444445,-0.7355555555555555,-0.625,-3.5,41.0625
1589380814.7848794,-0.73,-3.34,8.96,0.7122222222222222,-0.2344444444444445,-0.7355555555555555,-0.4375,-3.5,36.875
1589380814.7969267,-0.71,-3.31,8.86,0.7122222222222222,-0.2344444444444445,-0.7355555555555555,-0.3125,-2.6875,31.625
1589380814.8049786,-0.7,-3.25,8.92,0.7122222222222222,-0.2344444444444445,-0.7355555555555555,-0.0625,-2.125,25.5625
1589380814.82067,-0.69,-3.22,8.94,0.7122222222222222,-0.2344444444444445,-0.7355555555555555,0.0625,-1.5625,18.875
1589380814.8272002,-0.7,-3.16,8.94,0.6055555555555555,-0.17777777777777778,-0.7422222222222222,0.1875,-1.0625,11.625
1589380814.8400452,-0.71,-3.13,8.99,0.6055555555555555,-0.17777777777777778,-0.7422222222222222,0.1875,-0.25,4.125
1589380814.8459466,-0.8,-3.14,8.83,0.6055555555555555,-0.17777777777777778,-0.7422222222222222,0.4375,0.1875,-2.875
1589380814.8558588,-0.79,-3.12,8.91,0.6055555555555555,-0.17777777777777778,-0.7422222222222222,0.5,0.875,-9.5625
1589380814.867586,-0.8,-3.12,8.91,0.6055555555555555,-0.17777777777777778,-0.7422222222222222,0.6875,1.6875,-15.4375
1589380814.878995,-0.89,-3.19,8.99,0.5788888888888889,-0.16666666666666666,-0.7211111111111111,0.875,2.0625,-20.875
1589380814.884804,-0.94,-3.23,8.94,0.5788888888888889,-0.16666666666666666,-0.7211111111111111,0.875,2.375,-25.875
1589380814.8994913,-0.93,-3.21,8.88,0.5788888888888889,-0.16666666666666666,-0.7211111111111111,1.0,2.75,-30.0625
1589380814.9058087,-0.99,-3.29,8.84,0.5788888888888889,-0.16666666666666666,-0.7211111111111111,1.1875,3.25,-33.125
1589380814.9177506,-0.95,-3.35,8.91,0.5788888888888889,-0.16666666666666666,-0.7211111111111111,1.0625,3.5,-34.3125
1589380814.9249403,-0.89,-3.35,9.0,0.5644444444444444,-0.16111111111111112,-0.7211111111111111,1.125,3.3125,-34.5
1589380814.937085,-0.88,-3.38,8.97,0.5644444444444444,-0.16111111111111112,-0.7211111111111111,1.0,3.3125,-35.5
1589380814.9463518,-0.92,-3.38,8.83,0.5644444444444444,-0.16111111111111112,-0.7211111111111111,1.375,3.625,-37.0625
1589380814.958372,-1.01,-3.38,8.94,0.5644444444444444,-0.16111111111111112,-0.7211111111111111,1.25,3.625,-38.0625
1589380814.9680495,-0.98,-3.35,8.89,0.5644444444444444,-0.16111111111111112,-0.7211111111111111,1.25,3.5,-38.0625
1589380814.9758914,-1.03,-3.41,8.94,0.5522222222222222,-0.1511111111111111,-0.7144444444444444,1.375,3.5625,-37.375
1589380814.9854946,-1.04,-3.3,8.92,0.5522222222222222,-0.1511111111111111,-0.7144444444444444,1.375,3.4375,-35.75
1589380814.9965775,-1.05,-3.33,8.83,0.5522222222222222,-0.1511111111111111,-0.7144444444444444,1.4375,3.5,-33.1875
1589380815.0058048,-1.22,-3.55,8.86,0.5522222222222222,-0.1511111111111111,-0.7144444444444444,1.375,3.1875,-29.8125
1589380815.017278,-1.43,-3.9,8.9,0.5522222222222222,-0.1511111111111111,-0.7144444444444444,1.125,2.6875,-23.75
1589380815.0298493,-1.49,-4.39,8.89,0.5455555555555556,-0.1511111111111111,-0.6933333333333334,1.125,2.1875,-12.8125
1589380815.0358465,-1.23,-4.41,8.8,0.5455555555555556,-0.1511111111111111,-0.6933333333333334,0.8125,0.625,2.3125
1589380815.0505946,-0.83,-4.25,8.79,0.5455555555555556,-0.1511111111111111,-0.6933333333333334,0.0625,-1.375,16.8125
1589380815.0571337,-0.62,-4.07,8.86,0.5455555555555556,-0.1511111111111111,-0.6933333333333334,-0.25,-2.375,23.125
1589380815.0705838,-0.6,-4.15,8.88,0.5455555555555556,-0.1511111111111111,-0.6933333333333334,-0.25,-1.625,23.0625
1589380815.076274,-0.52,-4.27,8.86,0.5277777777777778,-0.09777777777777777,-0.6788888888888889,-0.125,-1.6875,19.0
1589380815.088953,-0.41,-4.54,8.77,0.5277777777777778,-0.09777777777777777,-0.6788888888888889,0.6875,-0.6875,13.625
1589380815.0954616,-10.77,-9.07,-0.32,0.5277777777777778,-0.09777777777777777,-0.6788888888888889,0.0625,-1.25,8.5
1589380815.1093345,3.46,3.99,1.61,0.5277777777777778,-0.09777777777777777,-0.6788888888888889,-17.9375,20.1875,-46.9375
1589380815.1206875,-1.75,-1.33,17.71,0.5277777777777778,-0.09777777777777777,-0.6788888888888889,-11.4375,22.9375,-129.6875
1589380815.1290455,-0.54,0.41,9.16,0.52,-0.07111111111111111,-0.6855555555555556,11.875,-12.0,-139.5625
1589380815.1357384,-0.57,0.37,10.49,0.52,-0.07111111111111111,-0.6855555555555556,3.125,11.5625,-129.4375
1589380815.147203,-0.92,0.13,8.52,0.52,-0.07111111111111111,-0.6855555555555556,5.25,12.5,-118.625
1589380815.156376,-0.81,0.2,9.31,0.52,-0.07111111111111111,-0.6855555555555556,3.3125,11.75,-100.1875
1589380815.1678774,-1.35,0.7,9.0,0.52,-0.07111111111111111,-0.6855555555555556,1.6875,6.5625,-77.625
1589380815.1780055,-2.32,-0.6,9.31,0.4955555555555556,-0.045555555555555564,-0.6555555555555556,1.5625,5.4375,-50.9375
1589380815.1879976,-0.71,-2.77,8.82,0.4955555555555556,-0.045555555555555564,-0.6555555555555556,0.125,2.0,-19.0625
1589380815.2019384,-0.88,-2.87,9.19,0.4955555555555556,-0.045555555555555564,-0.6555555555555556,-0.4375,-0.1875,3.0625
1589380815.2078464,-0.51,-2.78,8.8,0.4955555555555556,-0.045555555555555564,-0.6555555555555556,0.0,-0.5,9.75
1589380815.2229862,-0.59,-2.91,9.15,0.4955555555555556,-0.045555555555555564,-0.6555555555555556,-0.875,-1.625,13.0625
1589380815.2293446,-0.68,-3.03,8.82,0.5222222222222223,-0.015555555555555557,-0.6788888888888889,-0.4375,-1.25,12.6875
1589380815.2401125,-0.9,-3.21,9.02,0.5222222222222223,-0.015555555555555557,-0.6788888888888889,-0.0625,-0.9375,14.0
1589380815.2467635,-0.87,-3.24,8.74,0.5222222222222223,-0.015555555555555557,-0.6788888888888889,0.125,-1.3125,17.9375
1589380815.2608235,-0.94,-3.28,8.93,0.5222222222222223,-0.015555555555555557,-0.6788888888888889,-0.4375,-1.75,23.5625
1589380815.2683327,-1.17,-3.48,8.86,0.5222222222222223,-0.015555555555555557,-0.6788888888888889,-0.9375,-2.6875,29.3125
1589380815.2790358,-0.92,-3.3,8.99,0.5044444444444445,-0.021111111111111112,-0.6555555555555556,-1.0625,-5.0,48.1875
1589380815.286468,-0.33,-2.99,8.8,0.5044444444444445,-0.021111111111111112,-0.6555555555555556,-1.0625,-5.0,48.1875
1589380815.2962484,-0.2,-2.98,9.0,0.5044444444444445,-0.021111111111111112,-0.6555555555555556,-1.5,-5.875,50.5
1589380815.3022757,-0.2,-2.98,9.0,0.5044444444444445,-0.021111111111111112,-0.6555555555555556,-1.5,-5.875,50.5
1589380815.3094144,-0.65,-3.15,8.69,0.5044444444444445,-0.021111111111111112,-0.6555555555555556,-0.5625,-1.9375,33.875
1589380815.3211114,-0.67,-3.05,9.0,0.5044444444444445,-0.021111111111111112,-0.6555555555555556,-1.125,-3.3125,29.75
1589380815.328729,-0.73,-3.0,8.89,0.5255555555555556,-0.031111111111111114,-0.6788888888888889,-0.5625,-2.3125,27.5
1589380815.3377607,-0.75,-3.02,9.01,0.5255555555555556,-0.031111111111111114,-0.6788888888888889,-0.1875,-2.5625,25.8125
1589380815.352486,-8.16,-22.66,6.2,0.5255555555555556,-0.031111111111111114,-0.6788888888888889,1.6875,-3.6875,11.0
1589380815.3590965,1.15,2.31,9.76,0.5255555555555556,-0.031111111111111114,-0.6788888888888889,3.9375,-0.875,-20.6875
1589380815.3744085,-0.3,0.24,8.79,0.5255555555555556,-0.031111111111111114,-0.6788888888888889,1.0625,3.3125,-10.75
1589380815.3803403,-0.74,-2.96,8.99,0.5333333333333333,-0.03888888888888889,-0.6711111111111111,-1.0,-0.3125,0.4375
1589380815.3920858,-0.84,-2.95,8.91,0.5333333333333333,-0.03888888888888889,-0.6711111111111111,0.75,0.625,4.3125
1589380815.3987026,-1.98,-7.51,8.55,0.5333333333333333,-0.03888888888888889,-0.6711111111111111,-0.3125,-1.125,4.3125
1589380815.410487,-1.54,-4.98,8.69,0.5333333333333333,-0.03888888888888889,-0.6711111111111111,0.9375,-1.25,-2.125
1589380815.4191492,-1.15,-4.14,8.87,0.5333333333333333,-0.03888888888888889,-0.6711111111111111,0.0,0.1875,-0.1875
1589380815.4319782,-1.11,-3.94,8.88,0.54,-0.024444444444444446,-0.6644444444444444,0.1875,0.1875,-0.0625
1589380815.4385266,-1.1,-3.94,8.8,0.54,-0.024444444444444446,-0.6644444444444444,0.4375,0.1875,0.0
1589380815.4478116,-1.07,-3.94,8.88,0.54,-0.024444444444444446,-0.6644444444444444,0.3125,0.5,-0.0625
1589380815.4573634,-1.06,-3.9,8.87,0.54,-0.024444444444444446,-0.6644444444444444,-0.0625,0.0625,0.0625
1589380815.4711475,-1.1,-3.91,8.89,0.54,-0.024444444444444446,-0.6644444444444444,-0.0625,0.125,-0.0625
1589380815.477091,-1.12,-3.94,8.8,0.54,-0.04444444444444445,-0.6788888888888889,0.0,0.125,0.0625
1589380815.487757,-1.12,-3.98,8.76,0.54,-0.04444444444444445,-0.6788888888888889,0.125,0.0,0.0625
1589380815.5038624,-1.07,-3.91,8.81,0.54,-0.04444444444444445,-0.6788888888888889,0.25,0.0,0.0625
1589380815.5113564,-1.1,-3.92,8.83,0.54,-0.04444444444444445,-0.6788888888888889,0.1875,0.0625,-0.125
1589380815.5243628,-1.08,-3.94,8.82,0.54,-0.04444444444444445,-0.6788888888888889,0.0625,0.125,0.0
1589380815.5305474,-1.11,-3.93,8.82,0.5133333333333333,-0.03888888888888889,-0.6788888888888889,0.0,0.3125,0.0625
1589380815.5435588,-1.1,-3.92,8.87,0.5133333333333333,-0.03888888888888889,-0.6788888888888889,0.0,0.0,-0.0625
1589380815.550242,-1.1,-3.91,8.79,0.5133333333333333,-0.03888888888888889,-0.6788888888888889,-0.0625,-0.125,0.0
1589380815.5627234,-1.08,-3.91,8.87,0.5133333333333333,-0.03888888888888889,-0.6788888888888889,0.0,-0.375,-0.0625
1589380815.5706437,-1.12,-3.95,8.84,0.5133333333333333,-0.03888888888888889,-0.6788888888888889,-0.1875,-0.375,0.0
1589380815.5826707,-1.1,-3.96,8.89,0.5255555555555556,-0.04444444444444445,-0.6644444444444444,-0.25,-0.1875,-0.0625
1589380815.5893686,-1.09,-3.93,8.91,0.5255555555555556,-0.04444444444444445,-0.6644444444444444,0.0,0.0,-0.125
1589380815.6013546,-1.08,-3.92,8.79,0.5255555555555556,-0.04444444444444445,-0.6644444444444444,0.4375,-0.0625,0.0
1589380815.60846,-1.09,-3.92,8.81,0.5255555555555556,-0.04444444444444445,-0.6644444444444444,0.1875,0.1875,-0.0625
1589380815.621498,-1.09,-3.93,8.89,0.5255555555555556,-0.04444444444444445,-0.6644444444444444,0.0625,-0.1875,0.0625
1589380815.6287305,-1.09,-3.95,8.85,0.5333333333333333,-0.03888888888888889,-0.6855555555555556,-0.1875,-0.125,0.125
1589380815.6391876,-1.09,-3.92,8.87,0.5333333333333333,-0.03888888888888889,-0.6855555555555556,0.0625,-0.0625,0.0
1589380815.6486745,-1.11,-3.96,8.77,0.5333333333333333,-0.03888888888888889,-0.6855555555555556,0.125,-0.1875,0.0
1589380815.6611207,-1.08,-3.94,8.8,0.5333333333333333,-0.03888888888888889,-0.6855555555555556,0.1875,-0.125,0.1875
1589380815.6716619,-1.08,-3.94,8.87,0.5333333333333333,-0.03888888888888889,-0.6855555555555556,0.0625,0.1875,0.125
1589380815.68264,-1.09,-3.94,8.9,0.5466666666666666,-0.031111111111111114,-0.6711111111111111,0.0,0.125,-0.0625
1589380815.6890864,-1.11,-3.94,8.86,0.5466666666666666,-0.031111111111111114,-0.6711111111111111,0.1875,0.1875,0.0
1589380815.7010806,-1.11,-3.93,8.77,0.5466666666666666,-0.031111111111111114,-0.6711111111111111,0.3125,0.1875,-0.0625
1589380815.7130196,-1.1,-3.93,8.81,0.5466666666666666,-0.031111111111111114,-0.6711111111111111,0.1875,-0.0625,0.0
1589380815.7219155,-1.09,-3.94,8.9,0.5466666666666666,-0.031111111111111114,-0.6711111111111111,0.1875,-0.1875,0.0
1589380815.734057,-1.07,-3.91,8.9,0.5333333333333333,-0.03888888888888889,-0.6711111111111111,0.0625,-0.0625,-0.0625
1589380815.740875,-1.1,-3.94,8.82,0.5333333333333333,-0.03888888888888889,-0.6711111111111111,-0.125,0.125,-0.0625
1589380815.753336,-1.08,-3.96,8.76,0.5333333333333333,-0.03888888888888889,-0.6711111111111111,0.0,-0.0625,0.125
1589380815.7600842,-1.09,-3.94,8.82,0.5333333333333333,-0.03888888888888889,-0.6711111111111111,0.25,0.0,0.0
1589380815.7721565,-1.1,-3.91,8.83,0.5333333333333333,-0.03888888888888889,-0.6711111111111111,0.125,0.0625,0.125
1589380815.7792075,-1.1,-3.9,8.91,0.5255555555555556,-0.04444444444444445,-0.6855555555555556,0.0,0.0,0.0625
1589380815.7935607,-1.1,-3.95,8.84,0.5255555555555556,-0.04444444444444445,-0.6855555555555556,0.0,0.0,0.125
1589380815.8000998,-1.08,-3.96,8.76,0.5255555555555556,-0.04444444444444445,-0.6855555555555556,-0.0625,-0.0625,-0.0625
1589380815.8131359,-1.11,-3.94,8.86,0.5255555555555556,-0.04444444444444445,-0.6855555555555556,0.125,-0.125,0.0
1589380815.8271773,-1.08,-3.94,8.87,0.5255555555555556,-0.04444444444444445,-0.6855555555555556,0.1875,-0.0625,0.0625
1589380815.8329804,-1.09,-3.92,8.88,0.5333333333333333,-0.03888888888888889,-0.6855555555555556,-0.125,0.0,0.0625
1589380815.8406956,-1.09,-3.93,8.89,0.5333333333333333,-0.03888888888888889,-0.6855555555555556,0.0,0.0,0.0
1589380815.8502054,-1.09,-3.95,8.76,0.5333333333333333,-0.03888888888888889,-0.6855555555555556,-0.0625,-0.0625,-0.0625
1589380815.8611958,-1.09,-3.95,8.8,0.5333333333333333,-0.03888888888888889,-0.6855555555555556,0.1875,0.125,0.0
1589380815.872474,-1.1,-3.94,8.85,0.5333333333333333,-0.03888888888888889,-0.6855555555555556,0.25,-0.0625,0.0625
1589380815.8846662,-1.07,-3.93,8.88,0.5333333333333333,-0.04444444444444445,-0.6855555555555556,0.125,0.125,0.0
1589380815.89048,-1.1,-3.94,8.86,0.5333333333333333,-0.04444444444444445,-0.6855555555555556,0.0,0.0625,0.0
1589380815.9006536,-1.08,-3.93,8.76,0.5333333333333333,-0.04444444444444445,-0.6855555555555556,0.125,0.0625,0.0
1589380815.9122345,-1.1,-3.96,8.79,0.5333333333333333,-0.04444444444444445,-0.6855555555555556,0.125,0.0625,0.0
1589380815.9221306,-1.1,-3.93,8.88,0.5333333333333333,-0.04444444444444445,-0.6855555555555556,0.1875,0.0,0.0625
1589380815.9304886,-1.11,-3.94,8.9,0.5133333333333333,-0.024444444444444446,-0.6644444444444444,0.1875,-0.0625,0.0
1589380815.943972,-1.1,-3.95,8.88,0.5133333333333333,-0.024444444444444446,-0.6644444444444444,0.125,0.0,0.125
1589380815.9509768,-1.1,-3.95,8.75,0.5133333333333333,-0.024444444444444446,-0.6644444444444444,0.0,0.125,0.0
1589380815.962505,-1.09,-3.95,8.83,0.5133333333333333,-0.024444444444444446,-0.6644444444444444,0.0625,0.1875,0.0
1589380815.9728045,-1.09,-3.94,8.86,0.5133333333333333,-0.024444444444444446,-0.6644444444444444,0.1875,0.0625,0.0
1589380815.9842348,-1.09,-3.93,8.9,0.5255555555555556,-0.031111111111111114,-0.6711111111111111,0.0,0.0,0.0625
1589380815.990126,-1.09,-3.93,8.81,0.5255555555555556,-0.031111111111111114,-0.6711111111111111,-0.125,0.0625,0.0625
1589380816.0003989,-1.11,-3.93,8.75,0.5255555555555556,-0.031111111111111114,-0.6711111111111111,-0.125,0.1875,0.0625
1589380816.011218,-1.1,-3.93,8.81,0.5255555555555556,-0.031111111111111114,-0.6711111111111111,0.0625,0.0625,0.0625
1589380816.0230262,-1.11,-3.93,8.83,0.5255555555555556,-0.031111111111111114,-0.6711111111111111,0.125,-0.0625,0.0
1589380816.030218,-1.09,-3.94,8.89,0.54,-0.031111111111111114,-0.6644444444444444,0.0625,0.0,-0.125
1589380816.0420775,-1.09,-3.94,8.85,0.54,-0.031111111111111114,-0.6644444444444444,0.1875,0.0,0.0
1589380816.0512118,-1.1,-3.93,8.77,0.54,-0.031111111111111114,-0.6644444444444444,0.25,-0.0625,0.125
1589380816.0636349,-1.11,-3.95,8.84,0.54,-0.031111111111111114,-0.6644444444444444,0.1875,0.375,-0.1875
1589380816.0764134,-1.12,-3.92,8.87,0.54,-0.031111111111111114,-0.6644444444444444,0.0625,0.125,0.0
1589380816.083265,-1.08,-3.93,8.9,0.5255555555555556,-0.024444444444444446,-0.6933333333333334,0.0,-0.0625,0.0
1589380816.094633,-1.13,-3.93,8.9,0.5255555555555556,-0.024444444444444446,-0.6933333333333334,0.0625,-0.125,0.0625
1589380816.1006453,-1.1,-3.94,8.77,0.5255555555555556,-0.024444444444444446,-0.6933333333333334,-0.1875,0.1875,0.125
1589380816.1160836,-1.11,-3.94,8.79,0.5255555555555556,-0.024444444444444446,-0.6933333333333334,0.0625,0.1875,0.0625
1589380816.1230366,-1.1,-3.95,8.85,0.5255555555555556,-0.024444444444444446,-0.6933333333333334,0.0,0.0,-0.125
1589380816.1311328,-1.12,-3.94,8.88,0.5522222222222222,-0.03888888888888889,-0.6711111111111111,0.0625,0.0,0.0625
1589380816.141423,-1.1,-3.94,8.83,0.5522222222222222,-0.03888888888888889,-0.6711111111111111,0.1875,0.125,0.0625
1589380816.151993,-1.09,-3.94,8.77,0.5522222222222222,-0.03888888888888889,-0.6711111111111111,0.0,0.0,0.0625
1589380816.1614952,-1.09,-3.93,8.79,0.5522222222222222,-0.03888888888888889,-0.6711111111111111,0.0625,0.0,0.0625
1589380816.173607,-1.11,-3.93,8.88,0.5522222222222222,-0.03888888888888889,-0.6711111111111111,0.125,0.0,0.0625
1589380816.1812696,-1.09,-3.95,8.91,0.5333333333333333,-0.03888888888888889,-0.6788888888888889,-0.0625,0.0625,0.125
1589380816.1907475,-1.11,-3.92,8.89,0.5333333333333333,-0.03888888888888889,-0.6788888888888889,0.1875,0.0625,0.0
1589380816.200991,-1.07,-3.93,8.78,0.5333333333333333,-0.03888888888888889,-0.6788888888888889,0.0,0.125,0.0625
1589380816.2121544,-1.1,-3.94,8.83,0.5333333333333333,-0.03888888888888889,-0.6788888888888889,0.0625,0.0625,0.0
1589380816.2281113,-1.08,-3.94,8.85,0.5333333333333333,-0.03888888888888889,-0.6788888888888889,0.0,-0.125,0.0625
