time,acc_x,acc_y,acc_z,mag_x,mag_y,mag_z,gyr_x,gyr_y,gyr_z
1588960001.1429875,0.89,-2.28,-9.67,-0.57,0.03,0.6611111111111111,0.0625,0.1875,0.0
1588960001.1529875,0.8786936745709261,-2.2928265813572684,-9.588693674570926,-0.5721984521667643,0.03345471054777259,0.6629954986826234,-0.07200159955121596,-0.7568274683122082,-0.017666133482928014
1588960001.1629875,0.8532567165989448,-2.299185820850264,-9.563256716598945,-0.5771445273279829,0.04122711437254466,0.6672349916779536,0.04723414094244649,-1.194025183455637,-0.05741138031414883
1588960001.1729875,0.85,-2.3071930376634873,-9.61035126364441,-0.5777777777777777,0.042222222222222223,0.6677777777777778,0.0625,-1.0701740584128232,-0.10745648539679417
1588960001.1829875,0.8747143410044955,-2.3017618863318345,-9.588809431659174,-0.5777777777777777,0.042222222222222223,0.6677777777777778,0.16547642085206465,-0.8970235791479353,0.02946463127809701
1588960001.1929874,0.8872230576441102,-2.3,-9.55833082706767,-0.5777777777777777,0.042222222222222223,0.6677777777777778,0.09721177944862155,-1.1458646616541353,-0.11807644110275689
1588960001.2029874,0.8809154701849696,-2.3090845298150304,-9.55,-0.5535523649376967,0.042222222222222223,0.6869562296095086,-0.10783493403181993,-1.7610048020954598,-0.1875
1588960001.2129874,0.88,-2.31,-9.55,-0.5511111111111111,0.042222222222222223,0.6888888888888889,-0.125,-1.8125,-0.1875
1588960001.2229874,0.8714104198925221,-2.318589580107478,-9.67025412150469,-0.5511111111111111,0.042222222222222223,0.6888888888888889,-0.017630248656526085,-1.4367058702978412,-0.24118487567173696
1588960001.2329874,0.8640843275802155,-2.32,-9.654505965481293,-0.5511111111111111,0.042222222222222223,0.6888888888888889,0.03697295262365342,-1.3380270473763465,-0.2130270473763466
1588960001.2429874,0.8514194815201451,-2.3157097407600724,-9.608548703800363,-0.5511111111111111,0.042222222222222223,0.6888888888888889,0.0893141202495464,-1.3125,-0.21431412024954638
1588960001.2529874,0.84,-2.31,-9.56679420841358,-0.5569803518161872,0.0451568425747603,0.6986709567306825,0.06997586838991113,-1.119915539364689,-0.19497586838991113
1588960001.2629874,0.84,-2.3063705438989612,-9.557258912202078,-0.5644444444444444,0.048888888888888885,0.7111111111111111,-0.022684100631493176,-0.7162112955795478,-0.10231589936850682
1588960001.2729874,0.8441247873820937,-2.3082495747641874,-9.60299829905675,-0.5644444444444444,0.048888888888888885,0.7111111111111111,-0.01094015772382867,-0.2570405520334003,-0.0625
1588960001.2829874,0.8420135570950789,-2.312013557095079,-9.594094899665553,-0.5644444444444444,0.048888888888888885,0.7111111111111111,-0.08724580446727187,0.4492374134018156,0.08724580446727187
1588960001.2929873,0.8531311435659261,-2.31,-9.560303284651111,-0.5644444444444444,0.048888888888888885,0.7111111111111111,-0.0018955290694421117,0.6856044709305579,0.125
1588960001.3029873,0.8536532340723957,-2.303653234072396,-9.537306468144791,-0.5510457163750577,0.05241486995978013,0.7061747376118634,0.0625,0.6706654259049468,0.04566542590494686
1588960001.3129873,0.8562704791344667,-2.306270479134467,-9.542540958268933,-0.5433333333333333,0.054444444444444434,0.7033333333333334,0.10169049459041732,0.5858095054095827,0.11757148377125193
1588960001.3229873,0.8648632384058393,-2.31,-9.603495622464234,-0.5433333333333333,0.054444444444444434,0.7033333333333334,0.09460475996350436,0.4409190398540174,0.09631427989051308
1588960001.3329873,0.864563522719292,-2.304563522719292,-9.643690568157878,-0.5433333333333333,0.054444444444444434,0.7033333333333334,0.02852201699557553,0.24454403399115104,-0.03397798300442447
1588960001.3429873,0.8541409950208476,-2.305859004979152,-9.60070497510424,-0.5433333333333333,0.054444444444444434,0.7033333333333334,0.03661878111970206,0.11426243776059589,-0.025881218880297943
1588960001.3529873,0.8566151430242941,-2.31,-9.546924284878529,-0.5352481585258627,0.050769364986503265,0.698923237983804,0.0625,-0.10287857560735292,0.04134464390183823
1588960001.3629873,0.86,-2.3040218651008266,-9.56586880939504,-0.5311111111111111,0.048888888888888885,0.6966666666666667,0.025136656880166884,-0.44904340183883185,-0.012226686239666232
1588960001.3729873,0.86,-2.2928995495192632,-9.618401801922948,-0.5311111111111111,0.048888888888888885,0.6966666666666667,0.04437781550460566,-0.5806221844953944,-0.018122184495394343
1588960001.3829873,0.8525961645296771,-2.29,-9.63,-0.5311111111111111,0.048888888888888885,0.6966666666666667,0.0625,-0.37740411324192796,0.138821915068554
1588960001.3929873,0.8441507355073163,-2.301698528985367,-9.600753677536582,-0.5311111111111111,0.048888888888888885,0.6966666666666667,0.09905790307927242,-0.05659467844509308,0.07782629076218275
1588960001.4029872,0.8465453731534182,-2.3034546268465816,-9.566909253693163,-0.552929021622505,0.05252520730745453,0.6966666666666667,0.08409141779113641,0.1659085822088636,0.04090858220886359
1588960001.4129872,0.85,-2.3155780679373654,-9.544421932062633,-0.5644444444444444,0.054444444444444434,0.6966666666666667,-0.0348629246085347,-0.007225849217069397,0.11118146230426734
1588960001.4229872,0.8425862223416644,-2.3051724446833286,-9.621551554241691,-0.5644444444444444,0.054444444444444434,0.6966666666666667,-0.01616388963540267,0.21551666218758397,0.125
1588960001.4329872,0.8470774926652075,-2.3070774926652073,-9.607535044008754,-0.5644444444444444,0.054444444444444434,0.6966666666666667,-0.04423432915754669,1.1087179248358403,0.2577029874726401
1588960001.4429872,0.8668871014076415,-2.31,-9.573112898592358,-0.5644444444444444,0.054444444444444434,0.6966666666666667,-0.027318538734080244,1.578225845063679,0.3125
1588960001.4529872,0.8647442751136998,-2.31,-9.565085241628767,-0.5508838001010665,0.05839963237792967,0.7000568277525112,0.0,1.3378896380222878,0.28071723982020796
1588960001.4629872,0.8663645240032547,-2.31,-9.586364524003255,-0.5377777777777778,0.06222222222222223,0.7033333333333334,0.03409275834011392,0.7272579332790887,0.2159072416598861
1588960001.4729872,0.875887905388034,-2.3017758107760677,-9.637008851507694,-0.5377777777777778,0.06222222222222223,0.7033333333333334,0.0367994086752121,0.3971976347008484,0.11039822602563631
1588960001.4829872,0.8663700819220455,-2.2936299180779547,-9.671850409610228,-0.5377777777777778,0.06222222222222223,0.7033333333333334,-0.06806096396164725,0.02313012012784249,-0.022686987987215752
1588960001.4929872,0.855148007178496,-2.295148007178496,-9.620592028713984,-0.5377777777777778,0.06222222222222223,0.7033333333333334,-0.06620017946240164,-0.3143500897312008,-0.0018500897312008213
1588960001.5029871,0.8549845795568982,-2.2949845795568984,-9.590030840886204,-0.5477469368915744,0.052253063108425646,0.7138563346201187,0.0936536222306143,-0.1565391333081571,0.00019275553877139834
1588960001.5129871,0.8667962890369789,-2.3,-9.58,-0.5577777777777778,0.042222222222222223,0.7244444444444444,-0.002430419443355536,-0.0625,-0.020023193518881488
1588960001.5229871,0.8644192517390487,-2.2944192517390487,-9.607903741304757,-0.5577777777777778,0.042222222222222223,0.7244444444444444,-0.09737967663094566,-0.167139029892837,0.03487967663094566
1588960001.532987,0.8559779668411868,-2.2980440663176265,-9.609889834205934,-0.5577777777777778,0.042222222222222223,0.7244444444444444,-0.125,-0.14944917102966843,0.0625
1588960001.542987,0.8538496160974318,-2.31,-9.564601535610272,-0.5577777777777778,0.042222222222222223,0.7244444444444444,-0.052819698173153296,0.2646611066984379,0.0625
1588960001.552987,0.8708802837374265,-2.2991197162625734,-9.545440141868713,-0.5644268400617607,0.038595460976413365,0.7208176831986356,0.0625,0.993507980115123,0.16450266003837433
1588960001.562987,0.8936550612340415,-2.3036550612340414,-9.543172469382979,-0.57,0.03555555555555556,0.7177777777777777,0.0625,0.993967601861723,0.20732793364362048
1588960001.572987,0.8886628039948159,-2.3043314019974077,-9.62502897003888,-0.57,0.03555555555555556,0.7177777777777777,0.1333574750324007,0.20185398719219327,0.08121378745139894
1588960001.582987,0.8632721100278551,-2.3,-9.645392293407614,-0.57,0.03555555555555556,0.7177777777777777,0.11780045844939648,-0.6958474785283194,-0.1045493123259053
1588960001.592987,0.85,-2.305233688833124,-9.59953262233375,-0.57,0.03555555555555556,0.7177777777777777,0.0625,-0.7710261135508156,-0.1220788895859473
1588960001.602987,0.8661796824814169,-2.3046067725061943,-9.557640635037165,-0.5670037625034413,0.04993749553903726,0.7063920752908548,0.0625,-0.25913095347343307,0.03862301550885565
1588960001.612987,0.8731208577496865,-2.3068791422503137,-9.557516569001255,-0.5644444444444444,0.06222222222222223,0.6966666666666667,0.01950536093554083,0.04299463906445917,0.125
1588960001.622987,0.87,-2.3028771879414793,-9.626982496468166,-0.5644444444444444,0.06222222222222223,0.6966666666666667,0.04451757536575438,-0.07105272609726312,0.08048242463424563
1588960001.632987,0.857849124017946,-2.306075437991027,-9.619622810044865,-0.5644444444444444,0.06222222222222223,0.6966666666666667,0.10047148744391887,-0.2768859497756755,0.02452851255608112
1588960001.642987,0.8588488406222483,-2.301151159377752,-9.582302318755504,-0.5644444444444444,0.06222222222222223,0.6966666666666667,0.125,-0.2643894922218961,0.055305253889051956
1588960001.652987,0.8603939145030535,-2.294803042748473,-9.555196957251527,-0.5543046875310008,0.04941410822629351,0.7068064235801103,0.09498098282204206,-0.03494294846612621,0.004923931288168287
1588960001.662987,0.8541974041099039,-2.304197404109904,-9.554197404109905,-0.5433333333333333,0.03555555555555556,0.7177777777777777,-0.016201327060698476,0.2986039811820954,-0.046298672939301524
1588960001.672987,0.8585683182919549,-2.3085683182919547,-9.571453453664361,-0.5433333333333333,0.03555555555555556,0.7177777777777777,-0.125,0.6786880640516908,0.07144801067528181
1588960001.682987,0.8534876046201865,-2.296512395379813,-9.622561976899068,-0.5433333333333333,0.03555555555555556,0.7177777777777777,-0.125,1.2615703465139858,0.16859505775233097
1588960001.692987,0.86,-2.2929101451112097,-9.584179709777581,-0.5433333333333333,0.03555555555555556,0.7177777777777777,-0.10681159305493948,1.9136956625055446,0.30456522083518156
1588960001.702987,0.8711684456875393,-2.2888315543124604,-9.56255436954164,-0.5433333333333333,0.04051930919446189,0.7152959009583246,-0.015964809635253152,2.3590351903647466,0.39096480963525315
1588960001.712987,0.9007937783851132,-2.280793778385113,-9.567989630641856,-0.5433333333333333,0.048888888888888885,0.7111111111111111,0.04001296169768096,2.257603693581448,0.334987038302319
1588960001.722987,0.924433272550657,-2.308866545101314,-9.635466180405256,-0.5433333333333333,0.048888888888888885,0.7111111111111111,0.0,1.3002170708430614,0.23646023279196987
1588960001.732987,0.9272683644928603,-2.311805093478581,-9.67726836449286,-0.5433333333333333,0.048888888888888885,0.7111111111111111,0.0,0.021963786250552064,0.011281834241130578
1588960001.742987,0.9002147907510033,-2.2867024651251673,-9.643619721001338,-0.5433333333333333,0.048888888888888885,0.7111111111111111,0.0412191859354099,-1.7240206382572139,-0.20743837187081982
1588960001.752987,0.8540684771814688,-2.285931522818531,-9.58406847718147,-0.5512420304247082,0.05053653411625865,0.7045205302016321,0.125,-2.798716052847459,-0.4120720176158197
1588960001.762987,0.8461291247520967,-2.2877417504958064,-9.563870875247904,-0.57,0.054444444444444434,0.6888888888888889,0.08669297029939547,-2.64112267329335,-0.3850789108981864
1588960001.772987,0.85,-2.2943319229484467,-9.593441153546376,-0.57,0.054444444444444434,0.6888888888888889,0.032641827190735995,-1.92712740786104,-0.22292548157220798
1588960001.7829869,0.8469614901908976,-2.3069614901908975,-9.611768941145387,-0.57,0.054444444444444434,0.6888888888888889,0.037981372613778985,-1.209611764317326,-0.10600931369311051
1588960001.7929869,0.8454591593973037,-2.3018197197991013,-9.566360560401797,-0.57,0.054444444444444434,0.6888888888888889,0.11362675125561723,-0.6078872587893207,-0.051126751255617234
1588960001.8029869,0.8676336241078509,-2.30921120803595,-9.5515775839281,-0.57,0.054444444444444434,0.6888888888888889,0.06742994977531061,-0.2845096484271742,-0.004929949775310603
1588960001.8129869,0.87,-2.3015712013490983,-9.531571201349097,-0.5433333333333333,0.048888888888888885,0.6888888888888889,-0.009820008431864783,0.46338007588678304,0.13482000843186479
1588960001.8229868,0.87,-2.3096088764540177,-9.539608876454016,-0.5433333333333333,0.048888888888888885,0.6888888888888889,-0.06005547783760995,0.9154993005384896,0.18505547783760995
1588960001.8329868,0.8856863147104049,-2.3178431573552025,-9.637843157355203,-0.5433333333333333,0.048888888888888885,0.6888888888888889,0.04044079958995387,0.4362762685802153,0.14705920041004614
1588960001.8429868,0.87,-2.3078844113007313,-9.62259543955256,-0.5433333333333333,0.048888888888888885,0.6888888888888889,0.1808887853147856,-0.349168220278216,-0.013222429370428796
1588960001.8529868,0.8675392562455715,-2.2924607437544284,-9.555078512491143,-0.5452472451423332,0.04424081735274622,0.6908028006978888,0.10962035153482207,-1.202879648465178,-0.125
1588960001.8629868,0.8567657146983427,-2.303234285301657,-9.546468570603315,-0.5511111111111111,0.03,0.6966666666666667,0.0625,-1.2904285662707153,-0.10478571686464239
1588960001.8729868,0.8627405834767012,-2.3057531388410997,-9.602468611589005,-0.5511111111111111,0.03,0.6966666666666667,0.11558576448625499,-1.428085764486255,-0.16867152897250998
1588960001.8829868,0.869606711940397,-2.303464429353201,-9.642677853233995,-0.5511111111111111,0.03,0.6966666666666667,0.1875,-1.5216526834575064,-0.3125
1588960001.8929868,0.8460162821274833,-2.306016282127483,-9.594065128509932,-0.5511111111111111,0.03,0.6966666666666667,0.1626017632967706,-1.438008816483853,-0.23780528989031177
1588960001.9029868,0.84,-2.3,-9.566822207337948,-0.5553481679938478,0.03388396880917533,0.7016098996965262,0.08527759172434324,-0.9719431420704026,-0.10513879586217162
1588960001.9129868,0.8362804657098294,-2.3,-9.548841397129488,-0.5644444444444444,0.042222222222222223,0.7122222222222222,-0.0232470893135664,-0.2820116427457344,-0.0625
1588960001.9229867,0.8313259351382378,-2.3,-9.537955610829426,-0.5644444444444444,0.042222222222222223,0.7122222222222222,-0.05421290538601359,-0.1291435473069932,-0.05421290538601359
1588960001.9329867,0.85,-2.3034875650665123,-9.629074609600925,-0.5644444444444444,0.042222222222222223,0.7122222222222222,0.10609456333140543,-0.16570271833429728,0.08429728166570272
1588960001.9429867,0.8526542395009792,-2.307345760499021,-9.584691520998042,-0.5644444444444444,0.042222222222222223,0.7122222222222222,0.1875,-0.008877021832160728,0.1084110031188801
1588960001.9529867,0.8587386668600856,-2.301261333139914,-9.572522666279829,-0.5644444444444444,0.042222222222222223,0.7122222222222222,0.1875,0.2573166751287445,0.07038333212446507
1588960001.9629867,0.8514790315212426,-2.3,-9.548874189127455,-0.5511111111111111,0.06222222222222223,0.6966666666666667,0.1875,1.1272076290543627,0.2407560529922339
1588960001.9729867,0.8591433531292828,-2.3,-9.594860118775696,-0.5511111111111111,0.06222222222222223,0.6966666666666667,0.1875,1.4625216994061216,0.19285404294198266
1588960001.9829867,0.8730870676435508,-2.296912932356449,-9.667651729425797,-0.5511111111111111,0.06222222222222223,0.6966666666666667,0.0,1.283146617822457,0.31711748168342135
1588960001.9929867,0.872370400380476,-2.259481601521904,-9.624740800760952,-0.5511111111111111,0.06222222222222223,0.6966666666666667,0.0,0.6752325130788608,0.09213000475594933
1588960002.0029867,0.8510302101576183,-2.2010302101576182,-9.585050350262696,-0.5531043977427516,0.06105947168709866,0.6976633099824868,0.0,0.13787762697022765,-0.1092176554290718
1588960002.0129867,0.8047119780554709,-2.1641359341664126,-9.501177994513867,-0.5644444444444444,0.054444444444444434,0.7033333333333334,0.01472493142334654,-0.5588997256933862,-0.4191747942700396
1588960002.0229867,0.8368326196176282,-2.2921716626766027,-9.54800856458846,-0.5644444444444444,0.054444444444444434,0.7033333333333334,0.10520387261017636,-0.7822425987119399,-0.6114271082712345
1588960002.0329866,0.8346097501424269,-2.3405762187678034,-9.626542687393181,-0.5644444444444444,0.054444444444444434,0.7033333333333334,0.05169589810368682,-0.251276755920892,-0.29809453080491577
1588960002.0429866,0.9027419199041787,-2.3536290400479105,-9.57,-0.5644444444444444,0.054444444444444434,0.7033333333333334,-0.05695549910167494,0.6592739988022333,-0.08518150029944169
1588960002.0529866,0.8926455572933574,-2.36,-9.57,-0.560917034719968,0.0565021001170557,0.7015696284710952,0.012895800749549977,0.31811793608168326,-0.15806946616696668
1588960002.0629866,0.8830501892053376,-2.353220075682135,-9.57,-0.5511111111111111,0.06222222222222223,0.6966666666666667,0.002123580959968119,-0.4629344254132643,-0.29237452698665606
1588960002.0729866,0.8474665740579962,-2.3450668518840074,-9.600401111304047,-0.5511111111111111,0.06222222222222223,0.6966666666666667,0.21833217572495225,-1.1108373849626672,-0.3908339121375239
1588960002.0829866,0.84,-2.3457664330115064,-9.661532866023013,-0.5511111111111111,0.06222222222222223,0.6966666666666667,0.125,-1.2373404642243089,-0.4375
1588960002.0929866,0.8420990791775306,-2.3116036832898774,-9.599504604112347,-0.5511111111111111,0.06222222222222223,0.6966666666666667,0.09876151028086735,-0.6913305719660715,-0.3850230205617347
1588960002.1029866,0.8490205947391003,-2.2839176210435985,-9.564897026304498,-0.5511111111111111,0.06222222222222223,0.6966666666666667,0.012242565761246244,-0.08569796032872379,-0.2119851315224925
1588960002.1129866,0.847057811702099,-2.1723468702125945,-9.508826564893702,-0.5644444444444444,0.042222222222222223,0.6822222222222222,0.10661132313811916,0.25361323138119174,-0.13605470744752332
1588960002.1229866,0.8369854298016299,-2.0998542980163,-9.5601457019837,-0.5644444444444444,0.042222222222222223,0.6822222222222222,0.0436589362601876,-0.4701159560971859,-0.3501821274796248
1588960002.1329865,0.8318708255410099,-2.0543207320331285,-9.62064587229495,-0.5644444444444444,0.042222222222222223,0.6822222222222222,-0.035077978893935345,-1.3237752137323002,-0.48427063852524715
1588960002.1429865,0.8465141842002998,-2.1762854605007496,-9.56371453949925,-0.5644444444444444,0.042222222222222223,0.6822222222222222,-0.10607269749625271,-2.391068256259368,-0.6875
1588960002.1529865,0.8627194585782739,-2.214079187867411,-9.535438917156547,-0.5615739048340441,0.04388411357561187,0.6831287084149802,0.07099830805710616,-2.92297800474238,-0.7214932322284247
1588960002.1629865,0.8736001225677953,-2.2378667075225986,-9.563600122567795,-0.5433333333333333,0.054444444444444434,0.6888888888888889,0.125,-3.6516661559675194,-1.0174984679025587
1588960002.1729865,0.85786509611821,-2.22213490388179,-9.56097358964856,-0.5433333333333333,0.054444444444444434,0.6888888888888889,0.19054246765175076,-3.684457532348249,-1.4271993183905638
1588960002.1829865,0.8781408014953512,-2.201859198504649,-9.615042137320936,-0.5433333333333333,0.054444444444444434,0.6888888888888889,0.35950667912792666,-3.515493320872073,-1.7228866884738716
1588960002.1929865,0.838192847699851,-2.315421456900447,-9.55180715230015,-0.5433333333333333,0.054444444444444434,0.6888888888888889,0.17620529812406915,-2.9729006643573137,-2.329062913131516
1588960002.2029865,0.8311739210469066,-2.33647823685928,-9.558826078953095,-0.5433333333333333,0.054444444444444434,0.6888888888888889,0.1323370065431665,-2.1394031243201637,-2.6361409541978347
1588960002.2129865,0.8031857012102106,-2.3827428048408423,-9.569114207261263,-0.5433333333333333,0.06222222222222223,0.7122222222222222,0.2129468371809214,-0.6731255720532899,-2.607857469744737
1588960002.2229865,0.8062112454019968,-2.413788754598003,-9.632732527588018,-0.5433333333333333,0.06222222222222223,0.7122222222222222,-0.023679716237519705,-0.3039608512874409,-2.366460851287441
1588960002.2329865,0.8035964709589329,-2.4092105871232015,-9.65561411616427,-0.5433333333333333,0.06222222222222223,0.7122222222222222,0.004933830479991588,-0.05263233904001682,-2.092654395546686
1588960002.2429864,0.81474679480541,-2.373386218181065,-9.615759615583771,-0.5433333333333333,0.06222222222222223,0.7122222222222222,0.11016626623309377,0.41000600650359353,-1.7234975973985627
1588960002.2529864,0.83,-2.306987525987526,-9.564085239085239,-0.5450420420420421,0.05985631785631786,0.7145881265881265,0.07728690228690228,1.2285083160083161,-1.4005327442827442
1588960002.2629864,0.8275718973171202,-2.21,-9.52,-0.5577777777777778,0.042222222222222223,0.7322222222222222,0.1875,2.0151756417679985,-1.1098243582320015
1588960002.2729864,0.816874662281217,-2.2168746622812168,-9.561247973687301,-0.5577777777777778,0.042222222222222223,0.7322222222222222,0.14453336074239398,1.974616762598379,-1.0
1588960002.2829864,0.8459425072833212,-2.2395655043699927,-9.630434495630007,-0.5577777777777778,0.042222222222222223,0.7322222222222222,0.0625,1.3885779884377276,-0.960143731791697
1588960002.2929864,0.8749247111993411,-2.2726882220016473,-9.60746235559967,-0.5577777777777778,0.042222222222222223,0.7322222222222222,0.030779444995881818,0.4010738949547,-0.9067205550041182
1588960002.3029864,0.8561175848494937,-2.311294138383502,-9.6,-0.556915018855443,0.0413594632998875,0.728339807071716,-0.0625,-0.7867672979377607,-1.032353459587552
1588960002.3129864,0.8314747067233309,-2.3195084310922227,-9.6,-0.5514388237162957,0.03588326816074021,0.7036969289455531,-0.0625,-1.8135538865278784,-1.2377107773055758
1588960002.3229864,0.8343702879742924,-2.3856297120257075,-9.575296007910024,-0.5511111111111111,0.03555555555555556,0.7022222222222222,0.125,-2.119214250401681,-1.0157428006426894
1588960002.3329864,0.8473300580892349,-2.372669941910765,-9.620655203312323,-0.5511111111111111,0.03555555555555556,0.7022222222222222,0.125,-1.9167178423557039,-0.6917485477691261
1588960002.3429863,0.8813613456596469,-2.391361345659647,-9.575915963021059,-0.5511111111111111,0.03555555555555556,0.7022222222222222,0.1335084103727931,-1.0824579481360344,-0.6505252311183793
1588960002.3529863,0.8883604779227714,-2.3983604779227714,-9.554918566231686,-0.5511111111111111,0.03555555555555556,0.7022222222222222,0.17725298701732137,-0.8637350649133932,-0.7817589610519641
1588960002.3629863,0.8826856597504507,-2.405971510374324,-9.544028489625676,-0.5644444444444444,0.054444444444444434,0.7111111111111111,0.17910731327984164,-0.7332146265596833,-1.0503561203209502
1588960002.3729863,0.8975112226503128,-2.383733166024531,-9.566266833975469,-0.5644444444444444,0.054444444444444434,0.7111111111111111,0.13277742921777244,-0.6405548584355449,-1.3283354246933654
1588960002.3829863,0.8615108710468921,-2.3954673868593237,-9.693956515812431,-0.5644444444444444,0.054444444444444434,0.7111111111111111,0.17805705595692475,-1.1061141119138496,-1.4752717761723009
1588960002.3929863,0.868657647219193,-2.374027058342421,-9.665369411123228,-0.5644444444444444,0.054444444444444434,0.7111111111111111,0.13338970488004362,-1.0167794097600873,-1.6539411804798254
1588960002.4029863,0.8289874401139453,-2.3059497604557815,-9.58,-0.5630943645963715,0.05196929805631086,0.712461190959184,0.18117150071215848,-0.9003139971513661,-1.450156998575683
1588960002.4129863,0.8199100381656267,-2.2688304961531474,-9.57946022899376,-0.5511111111111111,0.03,0.7244444444444444,0.125,-1.1266867843944992,-1.5625
1588960002.4229863,0.807853470137968,-2.148586119448128,-9.539318768758289,-0.5511111111111111,0.03,0.7244444444444444,0.11158418836229962,-1.1917576952606965,-1.5893316232754007
1588960002.4329863,0.802144971576769,-2.182144971576769,-9.594985198962616,-0.5511111111111111,0.03,0.7244444444444444,0.0893121447096115,-0.7365939276451943,-1.7009060723548057
1588960002.4429862,0.8123511138200193,-2.192351113820019,-9.53764888617998,-0.5511111111111111,0.03,0.7244444444444444,0.15811107724975915,-0.790361229625843,-1.7793889227502409
1588960002.4529862,0.8207521773555028,-2.2052652414885197,-9.53,-0.5516125626814463,0.03041787630861265,0.7227729392099939,0.06720110847189231,-1.1344022169437846,-1.8797011084718924
1588960002.4629862,0.8288932241178751,-2.278854207056999,-9.535533879410623,-0.5577777777777778,0.03555555555555556,0.7022222222222222,0.10424795221015898,-1.2223306029468786,-1.9444173492632804
1588960002.4729862,0.82,-2.358199223735966,-9.592298835603948,-0.5577777777777778,0.03555555555555556,0.7022222222222222,-0.036877425825106155,-0.9572957097085103,-1.9743774258251061
1588960002.4829862,0.8165107749648104,-2.41348922503519,-9.661276937412026,-0.5577777777777778,0.03555555555555556,0.7022222222222222,0.11409617176503241,-0.6111732023552269,-1.7797885152950972
1588960002.4929862,0.8,-2.4299039791424892,-9.619711937427468,-0.5577777777777778,0.03555555555555556,0.7022222222222222,0.06310013035944231,-0.24579908748390378,-1.6234996741013943
1588960002.5029862,0.8,-2.416568208193568,-9.579704624580703,-0.5577777777777778,0.03555555555555556,0.7022222222222222,0.14644869879020078,0.33764089153140553,-1.415128253024498
1588960002.5129862,0.8481924528301886,-2.329679245283019,-9.51983962264151,-0.5524230607966457,0.0507272536687631,0.6959750524109014,0.1875,1.378007075471698,-1.0112971698113207
1588960002.5229862,0.9019666147818153,-2.198033385218185,-9.530816381299983,-0.5511111111111111,0.054444444444444434,0.6944444444444444,0.125,2.09531493210241,-0.536874027159036
1588960002.5329862,0.9143172338650641,-2.1672137761963945,-9.627158616932533,-0.5511111111111111,0.054444444444444434,0.6944444444444444,0.13387932208583736,1.0280169478540664,-0.9904311871158855
1588960002.5429862,0.8857549498629531,-2.1029486371916444,-9.612877474931476,-0.5511111111111111,0.054444444444444434,0.6944444444444444,0.17850789083913585,-0.08769727097839608,-1.5706025809087658
1588960002.5529861,0.8138364282892138,-2.1561635717107865,-9.591096122368347,-0.5511111111111111,0.054444444444444434,0.6944444444444444,0.1875,-1.5530669695772423,-2.278246175989163
1588960002.5629861,0.8011892070484582,-2.16,-9.581189207048459,-0.567753720019579,0.049549559471365634,0.7012972834067548,0.02229763215859032,-1.8452698237885463,-2.6429047356828193
1588960002.5729861,0.7861903052870057,-2.211429084138983,-9.561429084138984,-0.57,0.048888888888888885,0.7022222222222222,0.0625,-1.6636894080437854,-2.702378816087571
1588960002.582986,0.7684750442846723,-2.2721996457226212,-9.603900177138689,-0.57,0.048888888888888885,0.7022222222222222,0.0625,-1.3528185891424402,-2.385628321350422
1588960002.592986,0.758431179658191,-2.3572570237599,-9.565293538974572,-0.57,0.048888888888888885,0.7022222222222222,0.0723051271363068,-0.2071102542726136,-1.6911692371821592
1588960002.602986,0.7514377657357232,-2.434184576907045,-9.54431329720717,-0.57,0.048888888888888885,0.7022222222222222,0.11601396415172989,-0.29452792830345975,-1.4289162150896206
1588960002.612986,0.8366924770363622,-2.5511154128393936,-9.527807889875756,-0.5511111111111111,0.042222222222222223,0.7155555555555555,0.05552866975378932,0.09735665123105341,-0.6733153672916825
1588960002.622986,0.8867259308956726,-2.5649111036564913,-9.6080073800738,-0.5511111111111111,0.042222222222222223,0.7155555555555555,0.0,0.4159258638040926,-0.03180560214693056
1588960002.632986,0.8627110292138553,-2.587084411685542,-9.694168823371085,-0.5511111111111111,0.042222222222222223,0.7155555555555555,0.0273336404480424,0.8254466966189776,0.1341112134826808
1588960002.642986,0.8203103479521565,-2.5685517095566026,-9.6592758547783,-0.5511111111111111,0.042222222222222223,0.7155555555555555,0.1875,2.0226295381780837,0.1907327911682977
1588960002.652986,0.8393131569409206,-2.4798719342757036,-9.614935967137852,-0.5511111111111111,0.042222222222222223,0.7155555555555555,0.1875,3.408251026942129,0.3886787181345898
1588960002.662986,0.8778179820406926,-2.4021820179593076,-9.576091008979654,-0.5642473804081048,0.033722283265343926,0.7008738428118566,0.1005688061228356,5.143743132648808,0.6738623877543288
1588960002.672986,0.8713628628268738,-2.3159114115193784,-9.559540039788116,-0.57,0.03,0.6944444444444444,0.045464214664078045,5.116588468636897,0.778428429328156
1588960002.682986,0.8780710146110522,-2.2919289853889477,-9.61807101461105,-0.57,0.03,0.6944444444444444,-0.068528079340462,3.7544384131907598,0.538387682638152
1588960002.692986,0.8643764590645662,-2.305623540935434,-9.604376459064566,-0.57,0.03,0.6944444444444444,-0.11132356542323076,2.898528691535385,0.367205738307077
1588960002.702986,0.8512532180948879,-2.31,-9.565012872379551,-0.57,0.03,0.6944444444444444,-0.015665226186097822,1.8049891963957339,0.20316522618609784
1588960002.712986,0.8812230126817198,-2.3021942468295697,-9.56,-0.5552557995669657,0.04474420043303433,0.7005155857992232,-0.24392978657593567,2.516861274358181,0.4802157438911228
1588960002.722986,0.9108630088495575,-2.2908630088495574,-9.592589026548673,-0.5511111111111111,0.048888888888888885,0.7022222222222222,-0.28013716814159295,2.4371592920353984,0.5139557522123894
1588960002.732986,0.9192125503601514,-2.3,-9.617637651080454,-0.5511111111111111,0.048888888888888885,0.7022222222222222,0.07726468074716152,-1.0177252472225613,-0.034450921743376876
1588960002.742986,0.91,-2.3008414556203562,-9.585792721898219,-0.5511111111111111,0.048888888888888885,0.7022222222222222,0.23948180474554606,-2.7979410501717665,-0.44801819525445397
1588960002.752986,0.91,-2.3092186626188385,-9.543906686905807,-0.5511111111111111,0.048888888888888885,0.7022222222222222,0.13476671726452025,-3.897449468722537,-0.5527332827354797
1588960002.762986,0.87,-2.2921588027643813,-9.54107940138219,-0.5511111111111111,0.03555555555555556,0.7111111111111111,0.25,-4.388492517277383,-0.6807537413613086
1588960002.772986,0.87,-2.306061253915378,-9.54803062695769,-0.5511111111111111,0.03555555555555556,0.7111111111111111,0.25,-4.4753828369711135,-0.6373085815144434
1588960002.782986,0.8467138249668572,-2.3083569124834287,-9.665070737450286,-0.5511111111111111,0.03555555555555556,0.7111111111111111,0.1301346484892855,-4.802230703021429,-0.6875
1588960002.792986,0.8135172836819091,-2.2917586418409543,-9.615275925522862,-0.5511111111111111,0.03555555555555556,0.7111111111111111,0.18200424424701717,-4.698491511505965,-0.6875
1588960002.802986,0.7714496776372796,-2.30652156672688,-9.615507188908959,-0.5511111111111111,0.03555555555555556,0.7111111111111111,0.2219199306810004,-3.9991013863799916,-0.5154003465949979
1588960002.812986,0.7882535940639975,-2.2980665481527285,-9.567359715566548,-0.5593970818089693,0.03848001580185844,0.713060751275313,0.195166370381821,-1.9295751855000771,-0.1830822963363735
1588960002.822986,0.8324474248583592,-2.3051051502832816,-9.526328862712461,-0.57,0.042222222222222223,0.7155555555555555,0.125,-0.4936661758586473,-0.04720359463525495
1588960002.8329859,0.8552350059578975,-2.3015883313473675,-9.59729334922106,-0.57,0.042222222222222223,0.7155555555555555,0.23014585815790634,-0.1419165673683746,-0.009927070921046825
1588960002.8429859,0.8479135214109298,-2.31208647858907,-9.603956760705465,-0.57,0.042222222222222223,0.7155555555555555,0.17445950881831146,-0.0625,0.1133107367725328
1588960002.8529859,0.8259100752431638,-2.312955037621582,-9.557730225729491,-0.57,0.042222222222222223,0.7155555555555555,0.125,-0.0625,0.05540695540466142
1588960002.8629858,0.8295352929000207,-2.3,-9.561394121299939,-0.5433333333333333,0.048888888888888885,0.7111111111111111,-0.24709558062512937,0.7354779031256469,0.12790441937487063
1588960002.8729858,0.8208532394949285,-2.3,-9.587440281515214,-0.5433333333333333,0.048888888888888885,0.7111111111111111,-0.19283274684330365,0.46416373421651835,0.18216725315669635
1588960002.8829858,0.8200731436532642,-2.290036571826632,-9.669926856346736,-0.5433333333333333,0.048888888888888885,0.7111111111111111,-0.06272857391645079,0.3747714260835492,0.12522857391645079
1588960002.8929858,0.8383342403726843,-2.299167120186342,-9.651665759627315,-0.5433333333333333,0.048888888888888885,0.7111111111111111,-0.11979450116463852,0.3177054988353615,0.18229450116463852
1588960002.9029858,0.8556966664607655,-2.2921516667696173,-9.587213334156939,-0.5433333333333333,0.048888888888888885,0.7111111111111111,-0.125,0.06723958655053844,0.1875
1588960002.9129858,0.81,-2.3,-9.549205267790201,-0.57,0.03555555555555556,0.6877777777777778,-0.12003292368875705,-0.20985184340059326,0.6572859960230791
1588960002.9229858,0.81,-2.3,-9.535532809596766,-0.57,0.03555555555555556,0.6877777777777778,-0.034580059979789426,-0.5943897300909475,1.212729610131369
1588960002.9329858,0.8000398883127244,-2.3099601116872757,-9.61964100518548,-0.57,0.03555555555555556,0.6877777777777778,-0.18675209413641805,-1.0612534902273634,2.931516753091344
1588960002.9429858,0.8153910948448678,-2.2946089051551324,-9.62,-0.57,0.03555555555555556,0.6877777777777778,-0.0913056572195759,-1.3029858569510602,3.6108603994629687
1588960002.9529858,0.82,-2.29,-9.595927158641386,-0.57,0.03555555555555556,0.6877777777777778,-0.21295525849133817,-1.324848247169554,3.912803505660892
1588960002.9629858,0.8273177983973007,-2.29,-9.560728806410797,-0.565934556445944,0.03555555555555556,0.7081049955480575,-0.11279128005061156,-1.129555040067482,3.8002912800506117
1588960002.9729857,0.8592093953023489,-2.280263534899217,-9.58894586040313,-0.5644444444444444,0.03555555555555556,0.7155555555555555,-0.0016470931201066144,-0.6365296518407463,2.5937947692820256
1588960002.9829857,0.821326942956489,-2.2993365285217555,-9.628673057043512,-0.5644444444444444,0.03555555555555556,0.7155555555555555,0.18127995489145757,-0.26244009021708486,0.7497004510854244
1588960002.9929857,0.82,-2.3,-9.589574779327426,-0.5644444444444444,0.03555555555555556,0.7155555555555555,0.10328079026547202,-0.16578079026547202,0.35062316106188807
1588960003.0029857,0.82,-2.3067917465534555,-9.549624760339633,-0.5644444444444444,0.03555555555555556,0.7155555555555555,0.0625,-0.08255158404090204,0.0601547521227061
1588960003.0129857,0.8103710404464751,-2.300371040446475,-9.54,-0.5441166409425586,0.05374359026776922,0.6952277520536697,-0.057861994419061064,-0.12268099720953053,0.12036199441906106
1588960003.0229857,0.7867836990595611,-2.3,-9.56321630094044,-0.5433333333333333,0.054444444444444434,0.6944444444444444,-0.11086729362591431,-0.028265412748171376,0.22173458725182862
1588960003.0329857,0.7679076601054623,-2.330230849736344,-9.636507869419956,-0.5433333333333333,0.054444444444444434,0.6944444444444444,-0.23836568651129092,0.0,0.2877885621704303
1588960003.0429857,0.6726356619519649,-2.515992242291267,-9.610108529561572,-0.5433333333333333,0.054444444444444434,0.6944444444444444,-0.14869186615993418,-0.2730135564001097,1.349951514320417
1588960003.0529857,0.7393417897907744,-2.4923949261255354,-9.576197463062767,-0.5433333333333333,0.054444444444444434,0.6944444444444444,-0.125,-0.362088618619234,3.73148783786553
1588960003.0629857,0.9,-2.26,-9.52,-0.5577777777777778,0.06888888888888889,0.7022222222222222,0.0625,-0.5625,6.3125
1588960003.0729856,0.8839875430912452,-2.2519937715456226,-9.536012456908754,-0.5577777777777778,0.06888888888888889,0.7022222222222222,0.012461072160141216,-0.5124610721601413,5.345080728429397
1588960003.0829856,0.842077372724699,-2.2310386863623495,-9.577922627275301,-0.5577777777777778,0.06888888888888889,0.7022222222222222,-0.11850821023531569,-0.38149178976468434,2.813007935450564
1588960003.0929856,0.8327271400423265,-2.244545719915347,-9.594545719915347,-0.5577777777777778,0.06888888888888889,0.7022222222222222,-0.17045537473545938,-0.05681237685178425,1.4602048821425966
1588960003.1029856,0.7979394299287411,-2.2692363420427553,-9.587175771971497,-0.5577777777777778,0.06888888888888889,0.7022222222222222,-0.02719714964370548,0.26287856294536815,0.5591671615201901
1588960003.1129856,0.8022136693773667,-2.2855534173443415,-9.557786330622633,-0.5577777777777778,0.05778205420020554,0.7071585931949704,-0.04162657520640635,0.47912657520640634,0.20837342479359366
1588960003.1229856,0.8057074977290196,-2.3114387534064704,-9.56858500454196,-0.5577777777777778,0.048888888888888885,0.7111111111111111,-0.03567186080637272,0.5625,0.16966406959681363
1588960003.1329856,0.8072497209581867,-2.32,-9.608998883832745,-0.5577777777777778,0.048888888888888885,0.7111111111111111,0.04531075598866661,0.6531215119773333,0.09687848802266678
1588960003.1429856,0.81,-2.3112979835698284,-9.602595967139656,-0.5577777777777778,0.048888888888888885,0.7111111111111111,0.17127520537714713,0.8506628080657207,0.11688760268857357
1588960003.1529856,0.8023652682451367,-2.3023652682451363,-9.55419160947082,-0.5577777777777778,0.048888888888888885,0.7111111111111111,0.1397829265321041,1.7339073224221258,0.1727170734678959
1588960003.1629856,0.8299262889311895,-2.3099262889311896,-9.55,-0.5577777777777778,0.03555555555555556,0.6877777777777778,0.06157861163986878,2.869010975659147,0.3759213883601312
1588960003.1729856,0.82143270827427,-2.30143270827427,-9.55,-0.5577777777777778,0.03555555555555556,0.6877777777777778,-0.04459114657162529,2.1789075472844357,0.4820911465716253
1588960003.1829855,0.8025349996243332,-2.3,-9.654790002254002,-0.5577777777777778,0.03555555555555556,0.6877777777777778,-0.0625,1.352984359738536,0.22710936913020613
1588960003.1929855,0.8163581930676601,-2.3,-9.67,-0.5577777777777778,0.03555555555555556,0.6877777777777778,-0.16473870667287605,0.5343290532898676,0.08526129332712395
1588960003.2029855,0.8475796660057642,-2.2862101669971175,-9.621735584489912,-0.5577777777777778,0.03555555555555556,0.6877777777777778,-0.1875,-0.48686456268013,-0.023686456268012995
1588960003.2129855,0.852472706809229,-2.295054586381542,-9.569890827236916,-0.5418868254861502,0.049773776027011815,0.6994869005189771,-0.23454558244231852,-1.9100028137310074,-0.20363674732695555
1588960003.2229855,0.6827164609424272,-2.4135138300747814,-9.577923236327598,-0.5366666666666666,0.054444444444444434,0.7033333333333334,-0.17531984863501215,-3.332862194792324,-0.2873400756824939
1588960003.2329855,0.4930074624201093,-2.6019891455707502,-9.617997286392688,-0.5366666666666666,0.054444444444444434,0.7033333333333334,-0.125,-3.6687881601028316,1.087364319634377
1588960003.2429855,0.6190569823434992,-2.552118780096308,-9.599412118780096,-0.5366666666666666,0.054444444444444434,0.7033333333333334,-0.20146970304975922,-2.352954454253611,4.058060794542536
1588960003.2529855,0.7862062334748818,-2.35207034692733,-9.541379697139652,-0.5366666666666666,0.054444444444444434,0.7033333333333334,-0.07758793365916192,-1.625,6.596972398045029
1588960003.2629855,0.818860007842698,-2.268186656209736,-9.559326648367039,-0.5562407334789834,0.04583185504702506,0.692371855918436,-0.11366660131085093,-1.448833398689149,6.9970834967228726
1588960003.2729855,0.74372009569378,-2.375737639553429,-9.58,-0.5644444444444444,0.042222222222222223,0.6877777777777778,-0.1875,-1.421027711323764,6.398250598086125
1588960003.2829854,0.674087918660287,-2.4712161084529507,-9.664172149122807,-0.5644444444444444,0.042222222222222223,0.6877777777777778,-0.28315016945773525,-1.3418498305422648,6.9195511862041466
1588960003.2929854,0.7758237766222666,-2.435948904242942,-9.643670489351093,-0.5644444444444444,0.042222222222222223,0.6877777777777778,-0.1677202792221668,-1.2159801861481112,8.33149767314861
1588960003.3029854,0.8299948488657203,-2.3800103022685595,-9.59001030226856,-0.5644444444444444,0.042222222222222223,0.6877777777777778,-0.24996780541075142,-1.1875,9.062403416232254
1588960003.3129854,0.8150939564867044,-2.3101879129734084,-9.52848992747784,-0.5469179693795326,0.036687545885934286,0.7071491449547856,-0.26061240934730057,-1.1356124093473006,8.731124093473007
1588960003.3229854,0.7878808652647662,-2.322119134735234,-9.490507820353022,-0.5433333333333333,0.03555555555555556,0.7111111111111111,-0.3421630613968075,-1.2171630613968076,8.118103162317558
1588960003.3329854,0.8341255857544517,-2.175355469272995,-9.595983398045254,-0.5433333333333333,0.03555555555555556,0.7111111111111111,-0.375,-1.25,7.212603762217165
1588960003.3429854,0.85,-2.106321150672011,-9.63,-0.5433333333333333,0.03555555555555556,0.7111111111111111,-0.3256690639000236,-1.1513381278000472,5.61873378920066
1588960003.3529854,0.8372033651889041,-2.106398317405548,-9.610805047783357,-0.5433333333333333,0.03555555555555556,0.7111111111111111,-0.27251051621532557,-1.2449684513540233,4.090304970244441
1588960003.3629854,0.8061694445011118,-2.1624272220975542,-9.566637222301557,-0.5502177160330122,0.03555555555555556,0.7111111111111111,-0.25,-1.2827118056263898,2.7225833350333546
1588960003.3729854,0.7732913191226445,-2.240126042632067,-9.533354340438677,-0.5577777777777778,0.03555555555555556,0.7111111111111111,-0.18710611677479147,-1.1032476058078466,1.685924467099166
1588960003.3829854,0.7564297575556294,-2.28,-9.564991697110594,-0.5577777777777778,0.03555555555555556,0.7111111111111111,-0.0625,-0.6339878777814679,1.0313018930587845
1588960003.3929853,0.75,-2.27582726344452,-9.5891363172226,-0.5577777777777778,0.03555555555555556,0.7111111111111111,0.015738810415248466,-0.18210198264125257,0.6456815861130021
1588960003.4029853,0.7472899366643209,-2.2808402533427166,-9.541029556650246,-0.5577777777777778,0.03555555555555556,0.7111111111111111,0.0741863124560169,0.06775158339197748,0.4322484166080225
1588960003.4129853,0.74,-2.304060777345608,-9.501878445308783,-0.5485389869820573,0.03555555555555556,0.7012124066871248,-0.025379858410051206,0.47272084953969273,0.13863957523015363
1588960003.4229853,0.7467449408640487,-2.3067449408640486,-9.51,-0.5422222222222223,0.03555555555555556,0.6944444444444444,0.0421558804003049,0.7514676412009147,0.10465588040030491
1588960003.4329853,0.7569528884582778,-2.31,-9.621246215332445,-0.5422222222222223,0.03555555555555556,0.6944444444444444,-0.024411105728472812,0.8125,0.03808889427152719
1588960003.4429853,0.76,-2.3030933339605775,-9.663093333960578,-0.5422222222222223,0.03555555555555556,0.6944444444444444,0.023833325492778862,0.7261666745072212,0.0
1588960003.4529853,0.76,-2.3097548745574357,-9.630735376327692,-0.5422222222222223,0.03555555555555556,0.6944444444444444,0.03201601700801274,0.5960480510240382,0.06096796598397452
1588960003.4629853,0.7558327992594175,-2.3158327992594177,-9.587498397778253,-0.5510196460078964,0.04342693473221138,0.7032418682301186,0.07813501388592181,0.39581998148543757,0.07290999074271878
1588960003.4729853,0.7444305479899771,-2.3155694520100227,-9.564430547989977,-0.5633333333333334,0.054444444444444434,0.7155555555555555,0.222309075062643,0.07595462468678504,0.03480907506264299
1588960003.4829853,0.74,-2.3137088040060556,-9.591455979969721,-0.5633333333333334,0.054444444444444434,0.7155555555555555,0.05340012518923953,-0.10181997496215209,0.023180025037847912
1588960003.4929852,0.74,-2.31,-9.591085083874868,-0.5633333333333334,0.054444444444444434,0.7155555555555555,-0.023093924739307846,-0.24321822578207647,0.0
1588960003.5029852,0.7452684293171498,-2.3152684293171495,-9.5589262827314,-0.5633333333333334,0.054444444444444434,0.7155555555555555,0.0,-0.34542768323218603,0.06585536646437211
1588960003.5129852,0.7459874588941767,-2.32,-9.548025082211646,-0.5495123584132755,0.0522152549412093,0.7102055007477912,-0.050156763822790495,-0.24960809044302373,0.04976485426581426
1588960003.5229852,0.7314028001543035,-2.3429258662551904,-9.565731466563799,-0.5288888888888889,0.048888888888888885,0.7022222222222222,-0.17873249903560326,-0.04458916698813224,-0.00876750096439674
1588960003.5329852,0.6551165688560173,-2.5013232574965834,-9.6264398263526,-0.5288888888888889,0.048888888888888885,0.7022222222222222,-0.2597274700538629,-0.07915879491920573,0.3624763847576172
1588960003.5429852,0.6590606970545565,-2.5469874152299337,-9.64814433685347,-0.5288888888888889,0.048888888888888885,0.7022222222222222,-0.10030070177806269,-0.0712342690374169,1.3560279530348527
1588960003.5529852,0.7788443108146199,-2.38231137837076,-9.587180306304614,-0.5288888888888889,0.048888888888888885,0.7022222222222222,0.0,0.10256154279808324,2.4254615709856244
1588960003.5629852,0.8468557207191955,-2.2051542342464363,-9.539432837842414,-0.5471708108067435,0.03974792792996159,0.7083161961948404,-0.042848254494971726,0.05895523651508483,2.8482587275251414
1588960003.5729852,0.8095268193535594,-2.171905363870712,-9.513810727741424,-0.5555555555555556,0.03555555555555556,0.7111111111111111,-0.11309147580805076,-0.25295737904025384,2.0417193386872894
1588960003.5829852,0.7930960908981851,-2.172761563640726,-9.523807818203629,-0.5555555555555556,0.03555555555555556,0.7111111111111111,-0.1163701136227314,-0.3383896591318058,1.7110321588318966
1588960003.5929852,0.7571558328049219,-2.1871376668780314,-9.595688334390156,-0.5555555555555556,0.03555555555555556,0.7111111111111111,-0.07144479100615242,-0.47316562698154274,0.8574510291168962
1588960003.6029851,0.7482940235567834,-2.193411952886433,-9.603176094227134,-0.5555555555555556,0.03555555555555556,0.7111111111111111,-0.08382470554020649,-0.46801294168969026,0.6555129416896903
1588960003.6129851,0.74,-2.2481228257011003,-9.55093858714945,-0.559261941387607,0.0419093598390723,0.7132290458722833,-0.06836616968406105,-0.3125,0.38086616968406106
1588960003.6229851,0.74,-2.29,-9.53503806753978,-0.5633333333333334,0.048888888888888885,0.7155555555555555,-0.00047584424726303254,-0.24952415575273695,0.15553623362910546
1588960003.632985,0.744693150854595,-2.294693150854595,-9.563465754272974,-0.5633333333333334,0.048888888888888885,0.7155555555555555,0.02549657852365618,-0.1581678071587813,0.12116438568243745
1588960003.642985,0.7440476590434595,-2.3059523409565403,-9.58404765904346,-0.5633333333333334,0.048888888888888885,0.7155555555555555,0.125,0.09821278587026949,0.07589360706486525
1588960003.652985,0.74,-2.31,-9.555142743854084,-0.5633333333333334,0.048888888888888885,0.7155555555555555,0.09392842981760507,0.18785685963521015,0.06214314036478985
1588960003.662985,0.7448138792102207,-2.3148138792102206,-9.53962775842044,-0.5504963221060782,0.048888888888888885,0.7134160536843464,0.0625,0.1550867450638792,0.0949132549361208
1588960003.672985,0.7436872182027892,-2.313687218202789,-9.55,-0.5366666666666666,0.048888888888888885,0.7111111111111111,-0.01640977246513578,0.14804511376743212,0.10195488623256789
1588960003.682985,0.6760832499583125,-2.4494547273636815,-9.637159204602302,-0.5366666666666666,0.048888888888888885,0.7111111111111111,-0.0625,0.16131633525095881,0.08868366474904119
1588960003.692985,0.5617126035533788,-2.7264091074871044,-9.705690616370552,-0.5366666666666666,0.048888888888888885,0.7111111111111111,-0.13363270463189703,0.04523459073620592,0.31146446621163965
1588960003.702985,0.5523738426891317,-2.7964392359663024,-9.662329426974727,-0.5366666666666666,0.048888888888888885,0.7111111111111111,-0.0219771769955793,-0.4928593398114939,1.5262415026274085
1588960003.712985,0.6796181935841731,-2.5786872515484887,-9.57220363008844,-0.5399858590216361,0.048888888888888885,0.7137664649950866,0.125,-0.9496818279868109,4.0058183877230285
1588960003.722985,0.7981598489616111,-2.1792007551919443,-9.547269981120202,-0.5422222222222223,0.048888888888888885,0.7155555555555555,0.034125235997482684,-1.0908747640025174,5.698623348017621
1588960003.732985,0.8114348001786588,-2.073670799923432,-9.557341599846865,-0.5422222222222223,0.048888888888888885,0.7155555555555555,-0.015294999680966459,-1.125,5.861025001595168
1588960003.742985,0.75,-2.0997575086604052,-9.609272525981215,-0.5422222222222223,0.048888888888888885,0.7155555555555555,-0.12803114174493768,-1.1265155708724688,5.285219724295561
1588960003.752985,0.7463329236788643,-2.119336610569085,-9.576332923678864,-0.5422222222222223,0.048888888888888885,0.7155555555555555,-0.25,-0.9583077299290211,3.774953913872238
1588960003.762985,0.7682980166129852,-2.164340396677403,-9.536042380064417,-0.5541702736810382,0.04511582000715752,0.7036075040967396,-0.21462747923376843,-0.49175495846753686,2.567284709272758
1588960003.772985,0.7852089288144821,-2.166388094914024,-9.51798511864253,-0.5633333333333334,0.042222222222222223,0.6944444444444444,-0.17751860169683772,-0.39757440678735084,2.0277976271494036
1588960003.782985,0.7511101033919826,-2.2195577725376383,-9.574223834572829,-0.5633333333333334,0.042222222222222223,0.6944444444444444,-0.10277525847995647,-0.1541628877199347,1.0208144385996736
1588960003.792985,0.7246145293746051,-2.3051284902084648,-9.596156411876185,-0.5633333333333334,0.042222222222222223,0.6944444444444444,0.06089387239418825,0.15223468098547063,0.21955306380290587
1588960003.802985,0.7317021562050791,-2.3041489218974602,-9.53755323430762,-0.5633333333333334,0.042222222222222223,0.6944444444444444,0.20279228557738382,0.3125,0.10970771442261619
1588960003.812985,0.7267349106141955,-2.31,-9.506530178771609,-0.5562242610183492,0.042222222222222223,0.6970635763499649,0.2493602129919169,0.3756397870080831,0.021046595669361026
1588960003.822985,0.7306158074938516,-2.31,-9.489384192506149,-0.5422222222222223,0.042222222222222223,0.7022222222222222,0.21297680474514152,0.4120231952548585,0.0625
1588960003.832985,0.715445320534796,-2.31,-9.58198423037367,-0.5422222222222223,0.042222222222222223,0.7022222222222222,0.2555665066849503,0.48330047994514913,0.005566506684950297
1588960003.842985,0.7193036512093668,-2.31,-9.656740871976583,-0.5422222222222223,0.042222222222222223,0.7022222222222222,0.2165739100292713,0.6293521799414574,0.024721730087813906
1588960003.852985,0.73,-2.314093605800923,-9.621812788398154,-0.5422222222222223,0.042222222222222223,0.7022222222222222,0.22441496374423203,0.5369149637442321,0.09941496374423203
1588960003.862985,0.7335034335418892,-2.323503433541889,-9.585475965206776,-0.5468934669447412,0.04650419655119792,0.7053363853705682,0.1875,0.5,0.0625
1588960003.872985,0.74,-2.3257770463651974,-9.55689181453921,-0.5555555555555556,0.054444444444444434,0.7111111111111111,0.13471307956496853,0.44721307956496853,0.03610653978248426
1588960003.8829849,0.74,-2.32,-9.595913478311433,-0.5555555555555556,0.054444444444444434,0.7111111111111111,0.04592346009225879,0.30869384036903513,0.01657653990774121
1588960003.8929849,0.74,-2.3184309835045127,-9.63529295051354,-0.5555555555555556,0.054444444444444434,0.7111111111111111,0.01961270619358855,0.036742822128851535,0.04288729380641145
1588960003.9029849,0.74,-2.302141264949313,-9.582494427322594,-0.5555555555555556,0.054444444444444434,0.7111111111111111,0.0758829059332054,-0.5357341881335892,-0.0870585470333973
1588960003.9129848,0.7665791037308065,-2.25013134440379,-9.54332238796635,-0.5555555555555556,0.052598673352027316,0.7081578773632438,0.02076492478969259,-0.6667350752103074,-0.1665298495793852
1588960003.9229848,0.8413951716255066,-2.134341380624156,-9.532170690312078,-0.5555555555555556,0.048888888888888885,0.7022222222222222,0.08478663710990267,-0.558140088670292,-0.47286637109902674
1588960003.9329848,0.8819344288771349,-2.0545245689829206,-9.521278717648483,-0.5555555555555556,0.048888888888888885,0.7022222222222222,0.08872945855372068,-0.32868837566116205,-1.2014348730165139
1588960003.9429848,0.893829605481076,-1.99,-9.579363156151391,-0.5555555555555556,0.048888888888888885,0.7022222222222222,-0.038564965743275045,0.125,-3.4959663360122732
1588960003.9529848,0.9020544593280422,-1.979727703359789,-9.521782162687831,-0.5555555555555556,0.048888888888888885,0.7022222222222222,0.012840370800263514,0.09931925839947298,-5.4237322364086955
1588960003.9629848,0.9163292826939926,-1.9178475105710258,-9.483670717306008,-0.553445794657558,0.048888888888888885,0.6980027004262271,0.1416160336749076,0.19779008418726907,-7.754765294655441
1588960003.9729848,0.9344880868566348,-1.87,-9.465511913143366,-0.5488888888888889,0.048888888888888885,0.6888888888888889,0.32652527142698334,0.6951263571349168,-9.867111942787268
1588960003.9829848,0.9182994956679167,-1.87,-9.536044226044226,-0.5488888888888889,0.048888888888888885,0.6888888888888889,0.4316080434501487,1.022412065175223,-13.1038568472779
1588960003.9929848,0.8716020390048439,-1.8867959219903123,-9.55602039004844,-0.5488888888888889,0.048888888888888885,0.6888888888888889,0.5787308843295884,1.1512436281098628,-15.172321587076159
1588960004.0029848,0.9021880530973451,-1.8141180611423973,-9.390141391794046,-0.5488888888888889,0.048888888888888885,0.6888888888888889,0.759411454143202,2.170289873290426,-16.642939209573612
1588960004.0129848,0.8434526592168038,-1.7793160641670136,-9.414853510934648,-0.5512993144276165,0.04647846335016134,0.6908975768378285,0.603827126893151,6.529521949345202,-17.826954788511415
1588960004.0229847,0.7421991854868567,-1.9238087745279526,-9.533808774527953,-0.5555555555555556,0.042222222222222223,0.6944444444444444,0.22046811366160682,10.387350749722325,-18.33859565901518
1588960004.0329847,0.9089390750103279,-1.8069826687388115,-9.506704306257747,-0.5555555555555556,0.042222222222222223,0.6944444444444444,0.23603269529636262,7.463317382409065,-18.0625
1588960004.0429847,0.7900189614935822,-1.629828179696616,-9.61181301050175,-0.5555555555555556,0.042222222222222223,0.6944444444444444,0.276121280630105,3.3058197199533255,-18.321565052508753
1588960004.0529847,0.4597918814679039,-1.4995837629358078,-9.57966051857792,-0.5555555555555556,0.042222222222222223,0.6944444444444444,0.6555996295871998,1.5021217588879978,-18.114252778096002
1588960004.0629847,0.5160978560387123,-1.6030489280193563,-9.347804287922575,-0.5535229368759849,0.04594868980143528,0.6944444444444444,0.660053599032193,4.4185198097990455,-16.118100594798037
1588960004.0729847,0.5713801158207212,-1.6048274855224098,-9.413105260596623,-0.5488888888888889,0.054444444444444434,0.6944444444444444,0.11853070709036936,9.650895420701737,-13.150840673512093
1588960004.0829847,0.6424037457164323,-1.6526560867892026,-9.508100936429107,-0.5488888888888889,0.054444444444444434,0.6944444444444444,-0.13844627902288847,11.730993100478294,-11.365537209771116
1588960004.0929847,0.7024295510754702,-1.7282243498463614,-9.528878250768193,-0.5488888888888889,0.054444444444444434,0.6944444444444444,-0.23890218653975867,12.570673761522896,-9.950359036573484
1588960004.1029847,0.7574398561043244,-1.7203657348422394,-9.568171325788803,-0.5488888888888889,0.054444444444444434,0.6944444444444444,-0.1897858427639961,13.160069886832046,-8.624217754627894
1588960004.1129847,0.9222369567688402,-1.4055260864623196,-9.448881521615581,-0.5533343858009488,0.05320958419109443,0.6983959972551644,-0.3125,12.923548620846436,-7.340284355700375
1588960004.1229846,1.1396844754848086,-0.9709465735455738,-9.339053426454425,-0.5688888888888889,0.048888888888888885,0.7122222222222222,-0.302639858900273,11.942811181621583,-7.530185326337434
1588960004.1329846,1.1329350618076737,-1.0088051854230213,-9.345220741692085,-0.5688888888888889,0.048888888888888885,0.7122222222222222,0.1467530903836892,9.215260776208059,-11.769154358645046
1588960004.1429846,1.1378528174400815,-1.0214112697603264,-9.427852817440082,-0.5688888888888889,0.048888888888888885,0.7122222222222222,0.5939392369964304,6.2576850140234574,-16.037552587965322
1588960004.1529846,1.13,-0.9684181096306151,-9.391224146174153,-0.5688888888888889,0.048888888888888885,0.7122222222222222,1.0723868148086557,3.303084790155279,-20.813792691292328
1588960004.1629846,1.11499157965645,-0.922495789828225,-9.317487369484674,-0.5613846787171138,0.046387485498297215,0.713472923917518,1.4063026271471877,1.7341908049848433,-24.758588750421016
1588960004.1729846,1.0852770991904062,-1.0233496194302558,-9.31778320647675,-0.5488888888888889,0.042222222222222223,0.7155555555555555,1.5920181300599625,1.2760543901798873,-28.62696089317801
1588960004.1829846,1.0769703068989975,-1.1742375448080202,-9.38423754480802,-0.5488888888888889,0.042222222222222223,0.7155555555555555,1.625,1.7537116376253188,-31.07561652960684
1588960004.1929846,1.0683609879298699,-1.2086928430883088,-9.44163901207013,-0.5488888888888889,0.042222222222222223,0.7155555555555555,1.6454876508766263,2.9118271122727672,-32.86164503245132
1588960004.2029846,1.06,-1.0654732121406263,-9.432736606070312,-0.5488888888888889,0.042222222222222223,0.7155555555555555,1.7095389204772964,4.860532954272443,-34.03322755665893
1588960004.2129846,1.06,-0.9579873468407143,-9.378993673420357,-0.5488888888888889,0.042222222222222223,0.7155555555555555,1.5835789220789622,6.372052935052455,-34.91494754544726
1588960004.2229846,1.074836340812804,-1.051284795229876,-9.31612113604268,-0.5688888888888889,0.042222222222222223,0.6888888888888889,1.625,9.001892750666876,-36.27408991056018
1588960004.2329845,1.0945804173858467,-1.097354307233642,-9.381934724619489,-0.5688888888888889,0.042222222222222223,0.6888888888888889,1.625,10.030230072179506,-37.13789326063078
1588960004.2429845,1.11,-1.0249842776124432,-9.416656185074961,-0.5688888888888889,0.042222222222222223,0.6888888888888889,1.458398843281487,11.427247108203717,-38.58398843281487
1588960004.2529845,1.1125478235611437,-0.9949043528777127,-9.402547823561143,-0.5688888888888889,0.042222222222222223,0.6888888888888889,1.6261955890285904,11.496413232914229,-39.9594018424001
1588960004.2629845,1.1281279269209274,-0.9846445296691013,-9.401872073079073,-0.5688888888888889,0.042222222222222223,0.690437065445256,1.8342712328239126,10.756073059800729,-41.12618401780724
1588960004.2729845,1.1847104395922063,-1.0169773940526894,-9.345289560407794,-0.5688888888888889,0.042222222222222223,0.701214686906452,1.9858315346219815,9.49307054481682,-42.43970663339051
1588960004.2829845,1.1777960405719172,-1.047401319809361,-9.385592081143834,-0.5688888888888889,0.042222222222222223,0.7022222222222222,2.2662417511914947,7.997532995234022,-44.21114276548943
1588960004.2929845,1.2127850339360065,-1.0495887754520048,-9.423607483031997,-0.5688888888888889,0.042222222222222223,0.7022222222222222,2.33247661552501,7.8125,-44.92237138538756
1588960004.3029845,1.2850327627573137,-1.1075491441359706,-9.382450855864029,-0.5688888888888889,0.042222222222222223,0.7022222222222222,2.421772616383395,8.001228603399262,-45.76736552148229
1588960004.3129845,1.3,-1.1138181042104942,-9.355586755693771,-0.5698696098458287,0.03829933839446325,0.7041836641361017,2.38419425897131,8.893493322967164,-46.68202536662703
1588960004.3229845,1.2889588396862095,-1.0310411603137906,-9.324479419843104,-0.5755555555555556,0.015555555555555557,0.7155555555555555,2.4202481870097023,11.243795324757444,-47.61652538186417
1588960004.3329844,1.2627868981639567,-1.043278611016259,-9.329508287147698,-0.5755555555555556,0.015555555555555557,0.7155555555555555,2.383709056762365,12.40983622704946,-48.37192679467311
1588960004.3429844,1.2867696960755386,-0.9445131307170256,-9.43420404249041,-0.5755555555555556,0.015555555555555557,0.7155555555555555,2.4375,12.413446997639422,-49.18141413396282
1588960004.3529844,1.3257149300857014,-0.96,-9.378253896657144,-0.5755555555555556,0.015555555555555557,0.7155555555555555,2.502978875357089,11.294626747857466,-49.516870896607024
1588960004.3629844,1.3887776274244474,-0.96,-9.371246930286173,-0.5755555555555556,0.015555555555555557,0.7155555555555555,2.765740114268531,9.718059314388814,-50.086186914248486
1588960004.3729844,1.44630398059514,-1.0653471650712523,-9.341782388357084,-0.5955555555555555,0.0033333333333333327,0.73,2.7328799757439253,9.24648070342617,-51.27310012128037
1588960004.3829844,1.408277287705438,-0.9879410139380667,-9.33894983524018,-0.5955555555555555,0.0033333333333333327,0.73,2.676733048158988,10.950110266276429,-51.596902566569106
1588960004.3929844,1.4013502653752736,-0.9331506192089718,-9.425949203874179,-0.5955555555555555,0.0033333333333333327,0.73,2.6306261057303066,12.798434735674233,-52.07937831719092
1588960004.4029844,1.4525591175036567,-1.0266607752315944,-9.350254144319845,-0.5955555555555555,0.0033333333333333327,0.73,2.788453041199415,12.153922629205265,-52.50158840199902
1588960004.4129844,1.5405245791622393,-1.1347212124601531,-9.386327945864325,-0.5955555555555555,0.0015847361258691714,0.7297085671320893,2.9506144790559814,10.773156562832057,-52.75655723952799
1588960004.4229844,1.5483434930932274,-1.205091437839047,-9.331595548347408,-0.5955555555555555,-0.02447831031075816,0.7253647260593181,3.146087327330686,10.186738018007942,-52.854293663665345
1588960004.4329844,1.6048598639455782,-1.224859863945578,-9.390280272108845,-0.5955555555555555,-0.03,0.7244444444444444,3.108937074829932,9.89281462585034,-52.865216836734696
1588960004.4429843,1.5763272108843538,-1.1963272108843537,-9.447345578231293,-0.5955555555555555,-0.03,0.7244444444444444,3.0197725340136055,10.338637329931974,-52.463976403061224
1588960004.4529843,1.627843917737169,-1.264770721508554,-9.365229278491446,-0.5955555555555555,-0.03,0.7244444444444444,2.9918292523571157,11.502865981143076,-51.5187802806425
1588960004.4629843,1.6784355587720885,-1.2310429608186075,-9.398957039181393,-0.5955555555555555,-0.03,0.7244444444444444,2.9391296262790743,11.924462989767404,-50.83368514162797
1588960004.4729843,1.6617307692307692,-1.1270384615384617,-9.324076923076923,-0.6055555555555555,-0.048888888888888885,0.7377777777777778,3.0625,11.8125,-49.4375
1588960004.4829843,1.703656187198263,-1.1609685615947887,-9.384624748793051,-0.6055555555555555,-0.048888888888888885,0.7377777777777778,3.0396488300108566,11.698244150054284,-49.323244150054286
1588960004.4929843,1.727702414189522,-1.220783379865331,-9.440757102972572,-0.6055555555555555,-0.048888888888888885,0.7377777777777778,2.947128017736903,11.1875,-48.427379290523895
1588960004.5029843,1.7687648466025938,-1.2849406135896253,-9.392470306794813,-0.6055555555555555,-0.048888888888888885,0.7377777777777778,2.9922802912662108,11.1875,-46.096348155453896
1588960004.5129843,1.7602373846988606,-1.32,-9.409715138361367,-0.6055555555555555,-0.0489521914752517,0.737851630795201,2.9369065382528485,11.181862113402062,-44.55448826641346
1588960004.5229843,1.8141053535642715,-1.307683939307186,-9.348631548811909,-0.6055555555555555,-0.06222222222222223,0.7533333333333333,2.846711279702262,9.846049241339822,-42.66973232178643
1588960004.5329843,1.8456622516556291,-1.23,-9.35887417218543,-0.6055555555555555,-0.06222222222222223,0.7533333333333333,2.9917218543046356,8.662665562913908,-41.11548013245033
1588960004.5429842,1.8810227624099138,-1.2390186237899294,-9.436993792070023,-0.6055555555555555,-0.06222222222222223,0.7533333333333333,2.6749741336250983,7.699896534500392,-39.86221546987608
1588960004.5529842,1.9791383680737404,-1.3174151042212214,-9.403106944589924,-0.6055555555555555,-0.06222222222222223,0.7533333333333333,2.557114800460878,7.233844401382633,-38.53883680737405
1588960004.5629842,1.9703517335288572,-1.2910552005865716,-9.332813868230858,-0.6055555555555555,-0.06222222222222223,0.7533333333333333,2.5021983345553576,7.069095003666073,-37.66017335288572
1588960004.5729842,1.9876063666972759,-1.3252127333945516,-9.28598408325681,-0.6163150018705574,-0.07395980002040609,0.7640927796483352,2.5,7.007480104071013,-36.634641873278234
1588960004.5829842,1.9177484401156597,-1.2377484401156598,-9.381832293410438,-0.6177777777777778,-0.07555555555555556,0.7655555555555555,2.32729036676305,6.29770963323695,-34.44345894840968
1588960004.5929842,2.013494140922234,-1.333494140922234,-9.445662760614823,-0.6177777777777778,-0.07555555555555556,0.7655555555555555,2.4070784507685286,6.2179215492314714,-33.12695556231928
1588960004.6029842,2.0982863203334325,-1.350685471866627,-9.44102820779994,-0.6177777777777778,-0.07555555555555556,0.7655555555555555,2.1960683983328373,6.730721103751116,-31.05569458916344
1588960004.6129842,2.0456013791274366,-1.2865349423153427,-9.358402068691154,-0.6177777777777778,-0.07555555555555556,0.7655555555555555,2.2441652300755868,6.296678159395306,-29.470038787959158
1588960004.6229842,2.11,-1.3290277172638,-9.321289673894828,-0.6233333333333333,-0.07555555555555556,0.7977777777777778,2.171379076314643,5.489955843415893,-27.58073030130375
1588960004.6329842,2.11,-1.3782285417434728,-9.328318363106211,-0.6233333333333333,-0.07555555555555556,0.7977777777777778,2.0835204611723697,5.094592075275664,-26.658214842309885
1588960004.6429842,2.154389465557176,-1.3829263103714504,-9.43707368962855,-0.6233333333333333,-0.07555555555555556,0.7977777777777778,1.9420723599553915,4.4283552800892165,-24.36282920133825
1588960004.6529841,2.1975666123359354,-1.4117110748906236,-9.408288925109376,-0.6233333333333333,-0.07555555555555556,0.7977777777777778,1.9870485545165995,4.338402890966801,-23.013543364502016
1588960004.6629841,2.1820199244245964,-1.3920199244245963,-9.325386465132258,-0.6233333333333333,-0.07555555555555556,0.7977777777777778,1.8834163517691516,4.254208175884576,-20.934537100652697
1588960004.6729841,2.1550133975298302,-1.3983288674900565,-9.286684530039773,-0.5955704416998115,-0.06445039890214686,0.8866190310050472,1.8229445781871467,4.25,-19.094671080175843
1588960004.682984,2.162807609517715,-1.3442114142765722,-9.408422828553144,-0.59,-0.06222222222222223,0.9044444444444444,1.5087737797428589,3.831131101285706,-16.192917708999943
1588960004.692984,2.1790749898190707,-1.3686124847286056,-9.457224969457211,-0.59,-0.06222222222222223,0.9044444444444444,1.5596093431845948,3.576953284077026,-14.413672988539183
1588960004.702984,2.1419687725016106,-1.3009843862508053,-9.353109296244362,-0.59,-0.06222222222222223,0.9044444444444444,1.4498048281350666,3.1136710311896008,-11.83486067950127
1588960004.712984,2.1578640997460874,-1.3089320498730437,-9.297475650888694,-0.59,-0.06222222222222223,0.9044444444444444,1.5491506234130443,2.517596259521734,-9.99696346685868
1588960004.722984,2.3598014373905833,-1.4855440891919285,-9.378085782732885,-0.4633333333333333,-0.08333333333333333,0.96,1.4108915737584078,3.1887410163088545,-7.393764972818575
1588960004.732984,2.198587029288703,-1.34,-9.375724686192468,-0.4633333333333333,-0.08333333333333333,0.96,1.5356655334728033,3.9995449790794977,-5.338765690376569
1588960004.742984,2.2486278337782384,-1.339215905016136,-9.407843738794375,-0.4633333333333333,-0.08333333333333333,0.96,1.3799005936491493,2.4730467349296785,-3.589470696043667
1588960004.752984,2.190139248575641,-1.3057938563289375,-9.315933104904579,-0.4633333333333333,-0.08333333333333333,0.96,1.5887883979441413,1.3241638113072234,-2.0750341149049767
1588960004.762984,2.1973992171556658,-1.3,-9.317399217155666,-0.4633333333333333,-0.08333333333333333,0.96,1.625,0.8712614164798769,-0.507558713325081
1588960004.772984,2.305548978267921,-1.402373905287058,-9.336824927019137,-0.4125255433019786,-0.16674910801167692,0.8963006811547194,1.4970326183911775,1.9671738160882257,1.7171738160882257
1588960004.782984,2.3431195288232685,-1.45,-9.305597644116341,-0.3888888888888889,-0.20555555555555555,0.8666666666666667,1.4375,3.2505471176731615,3.47357951107346
1588960004.792984,2.3113793455337097,-1.4816552146404518,-9.370275869106742,-0.3888888888888889,-0.20555555555555555,0.8666666666666667,1.3715516361657256,1.8633601775630995,5.095259456425607
1588960004.802984,2.347047588271311,-1.5244571059255732,-9.377409517654263,-0.3888888888888889,-0.20555555555555555,0.8666666666666667,1.2823810293217226,-0.05380786958296491,5.942380221443636
1588960004.812984,2.4212063928510053,-1.5476507991063757,-9.372349200893623,-0.3888888888888889,-0.20555555555555555,0.8666666666666667,1.1065475167554562,-1.801984877126654,7.254167382711806
1588960004.822984,2.4469425925925927,-1.5638851851851852,-9.356114814814815,-0.46911440329218107,-0.2873238683127572,0.8018691358024691,1.0191087962962964,-1.9514351851851852,8.213368055555556
1588960004.832984,2.4137868049811084,-1.58957723177357,-9.316213195018893,-0.5044444444444445,-0.3233333333333333,0.7733333333333333,0.7907858995282703,-1.2092141004717298,9.596736736792685
1588960004.842984,2.2889504143101407,-1.5089504143101407,-9.433702485860843,-0.5044444444444445,-0.3233333333333333,0.7733333333333333,0.6053202683151387,-1.4471590161778245,10.894498882020255
1588960004.852984,2.270561620412995,-1.4905616204129948,-9.32336972247797,-0.5044444444444445,-0.3233333333333333,0.7733333333333333,0.2605303827436538,-2.7113885966066027,12.331123405234775
1588960004.862984,2.3531329735034348,-1.5648196761530913,-9.386506378802748,-0.5044444444444445,-0.3233333333333333,0.7733333333333333,-0.009790542198233554,-3.7372040603532874,13.985701361629047
1588960004.872984,2.2755396038493463,-1.54,-9.276618811548039,-0.5666666666666667,-0.3944444444444444,0.6855555555555556,-0.27769801924673054,-3.909981437448126,16.471584153973843
1588960004.882984,2.3194951111500854,-1.537980444600342,-9.40899022230017,-0.5666666666666667,-0.3944444444444444,0.6855555555555556,-0.5189333318717937,-3.130700004384619,18.322577772175208
1588960004.892984,2.310299907923006,-1.5011996316920244,-9.390599815846013,-0.5666666666666667,-0.3944444444444444,0.6855555555555556,-0.8637534528872715,-2.096239641338186,19.644388236067876
1588960004.902984,2.2795930755395686,-1.5304069244604317,-9.397601731115108,-0.5666666666666667,-0.3944444444444444,0.6855555555555556,-0.779978361061151,-2.300054097347122,20.352651472571942
1588960004.912984,2.2229537749556045,-1.5504547166765323,-9.37386320830867,-0.5666666666666667,-0.3944444444444444,0.6855555555555556,-0.9133549480708174,-3.0284197922832696,21.575300678039067
1588960004.922984,2.1978242677824267,-1.5421757322175733,-9.332175732217573,-0.5521431892143189,-0.34757322175732214,0.646606229660623,-1.2110355648535565,-3.8478033472803346,23.72541841004184
1588960004.9329839,2.21,-1.6078332251182637,-9.378374918838698,-0.5422222222222223,-0.31555555555555553,0.62,-1.6165360356182172,-3.452735135887209,26.62994504220388
1588960004.9429839,2.009961474593158,-1.5099807372965792,-9.38,-0.5422222222222223,-0.31555555555555553,0.62,-1.6818291265360346,-3.6079873796081037,28.84700680836931
1588960004.9529839,1.9698357161886155,-1.4731142882514874,-9.38,-0.5422222222222223,-0.31555555555555553,0.62,-1.8555356984282034,-4.6332141905692215,30.868883758103188
1588960004.9629838,1.879584275049654,-1.3956674200397232,-9.355875282514896,-0.5422222222222223,-0.31555555555555553,0.62,-2.0882794842818986,-6.733314499006918,34.21273157660434
1588960004.9729838,1.9668599485135358,-1.4220476249792393,-9.34556302939711,-0.5644444444444444,-0.2344444444444445,0.5988888888888889,-2.4618172334329844,-7.7892506435808,38.77794126806178
1588960004.9829838,2.0800197930724247,-1.5700544309491677,-9.449995051731893,-0.5644444444444444,-0.2344444444444445,0.5988888888888889,-2.6251546333783176,-6.374195906432749,41.06358243364822
1588960004.9929838,2.1177552856500226,-1.6738270355375617,-9.440561178587494,-0.5644444444444444,-0.2344444444444445,0.5988888888888889,-2.9199631691408006,-4.841191520467836,43.12724218398561
1588960005.0029838,1.7983812629706493,-1.5045715979839904,-9.50822215633956,-0.5644444444444444,-0.2344444444444445,0.5988888888888889,-3.1811505583555686,-4.810912639588892,44.772815989722304
1588960005.0129838,2.0089232283885883,-1.7364370866596752,-9.273562913340324,-0.5644444444444444,-0.2344444444444445,0.5988888888888889,-3.1875,-6.8922706696915865,46.83753986259444
1588960005.0229838,2.1312400800341718,-1.9006200400170858,-9.4556597198804,-0.57,-0.20777777777777776,0.5933333333333334,-3.3905010004271485,-8.297494997864257,49.565383253523976
1588960005.0329838,2.1496154614462646,-1.9097802636835797,-9.390604274870157,-0.57,-0.20777777777777776,0.5933333333333334,-3.6256866759888133,-7.117789902117459,51.50755343587695
1588960005.0429838,2.077526200056143,-1.8764318798540283,-9.49703144006737,-0.57,-0.20777777777777776,0.5933333333333334,-3.7561844998596428,-5.865068248806962,52.92756824880696
1588960005.0529838,2.0285434194433116,-1.9990289462955413,-9.44,-0.57,-0.20777777777777776,0.5933333333333334,-3.8765172714132166,-6.914449056743634,53.975431785330414
1588960005.0629838,1.981907268077536,-1.9679381787183574,-9.44,-0.57,-0.20777777777777776,0.5933333333333334,-3.9250965957525668,-8.177511489566733,55.18991489381416
1588960005.0729837,2.0005317693059625,-2.0439623655913977,-9.44,-0.5903545128706419,-0.14756234386879546,0.5933333333333334,-3.985205889540567,-9.358706011730206,56.74035312805474
1588960005.0829837,1.8731438268986,-2.07,-9.44,-0.5966666666666667,-0.1288888888888889,0.5933333333333334,-4.3421404327535,-9.339882972705416,59.63402984019233
1588960005.0929837,1.9828136096113624,-2.1739192081326912,-9.487236003696678,-0.5966666666666667,-0.1288888888888889,0.5933333333333334,-4.552135013862542,-10.080085060071015,61.41017012014203
1588960005.1029837,1.7996943772611884,-1.981764976313738,-9.537576405684703,-0.5966666666666667,-0.1288888888888889,0.5933333333333334,-4.612058755921566,-11.562203921725398,60.954853684862776
1588960005.1129837,1.8441832778988416,-1.9444897350613601,-9.463061589631838,-0.5966666666666667,-0.1288888888888889,0.5933333333333334,-4.760841266200252,-13.160071395802271,62.03507139580227
1588960005.1229837,1.767479727189732,-1.8535540518769131,-9.403209458854699,-0.6008340841781581,-0.11221921884292325,0.5969054054860402,-4.8125,-12.519890177756297,63.00232264647441
1588960005.1329837,1.68777662645252,-1.8529575901117608,-9.433329879357562,-0.6044444444444445,-0.09777777777777777,0.6,-4.886569276885501,-10.59959940048849,63.91895029975576
1588960005.1429837,1.6221012359071714,-1.8380934485296967,-9.541906551470303,-0.6044444444444445,-0.09777777777777777,0.6,-5.087305315563132,-9.525535382201387,64.96157524892487
1588960005.1529837,1.5776108286184918,-1.8432758003294423,-9.453005084867149,-0.6044444444444445,-0.09777777777777777,0.6,-5.2350676788655734,-10.724598044832772,66.38885357731147
1588960005.1629837,1.6161309157959434,-1.9539403810694531,-9.496714197910263,-0.6044444444444445,-0.09777777777777777,0.6,-5.25,-12.135936539643517,67.09397280270436
1588960005.1729836,1.5309717600076067,-1.9269820290957496,-9.376956356375391,-0.610446155959135,-0.07377093171901578,0.6130037082818295,-5.25,-12.5,67.25
1588960005.1829836,1.4725295701117547,-1.8013239252793867,-9.39164695325883,-0.6111111111111112,-0.07111111111111111,0.6144444444444445,-5.348896728933845,-12.203309813198466,67.79393200913614
1588960005.1929836,1.4425342258215574,-1.7438013387323361,-9.487328870892213,-0.6111111111111112,-0.07111111111111111,0.6144444444444445,-5.429580544307633,-12.725385987383962,68.70162762030687
1588960005.2029836,1.3237617213338002,-1.5801723668339753,-9.434615968250263,-0.6111111111111112,-0.07111111111111111,0.6144444444444445,-5.301283267188047,-13.720611552079685,68.76709442239601
1588960005.2129836,1.2952076572768674,-1.4287540563387964,-9.356773199530965,-0.6111111111111112,-0.07111111111111111,0.6144444444444445,-5.20247607100979,-15.108026437784625,68.65495214201958
1588960005.2229836,1.3,-1.3904482599677344,-9.378206960129063,-0.5994367621827866,-0.0074328442293411096,0.628241402268828,-4.948706499193363,-15.915087001613275,67.61012762157179
1588960005.2329836,1.2520162056838704,-1.5435481418116148,-9.418387035452904,-0.5988888888888889,-0.004444444444444445,0.6288888888888889,-4.757560771314514,-15.157763342362893,66.06300642762095
1588960005.2429836,1.240618648018648,-1.6344321678321678,-9.551338927738929,-0.5988888888888889,-0.004444444444444445,0.6288888888888889,-4.5154662004662,-14.304131701631702,64.9445979020979
1588960005.2529836,1.2337413979864917,-1.6712930100675416,-9.522448387918951,-0.5988888888888889,-0.004444444444444445,0.6288888888888889,-4.539116262584427,-14.015302424493438,64.24913979864917
1588960005.2629836,1.2115685752330225,-1.7207190412782956,-9.463137150466045,-0.5988888888888889,-0.004444444444444445,0.6288888888888889,-4.332107190412783,-13.79820239680426,62.991827563249004
1588960005.2729836,1.1901712639212638,-1.867773569023569,-9.430171263921263,-0.6054413796080462,0.011936782353449023,0.6572830153385709,-3.7574927965552964,-14.425725605413106,60.840330387205384
1588960005.2829835,1.2148842332959462,-1.9446526998878384,-9.446589488863964,-0.6055555555555555,0.012222222222222223,0.6577777777777778,-3.698157847300112,-14.385657847300113,58.998024655503926
1588960005.2929835,1.237616462900506,-1.9952329258010117,-9.582123471753794,-0.6055555555555555,0.012222222222222223,0.6577777777777778,-3.577397106871838,-13.329022515282462,56.20273635118044
1588960005.3029835,1.1438272900558994,-2.0400719624767083,-9.535884860037266,-0.6055555555555555,0.012222222222222223,0.6577777777777778,-3.3120502345205716,-11.935251172602857,53.4205922983016
1588960005.3129835,1.12,-2.0298536545260215,-9.506569103017348,-0.6055555555555555,0.012222222222222223,0.6577777777777778,-3.2919715530707885,-10.575711173230289,50.71392234646058
1588960005.3229835,1.0882526290046466,-1.9644421007581316,-9.460315786255808,-0.6117286554713187,0.016631579304910195,0.6727695918589168,-3.114078931279041,-9.616052595377843,47.5544735112497
1588960005.3329835,1.0517158241581612,-1.904745318653058,-9.455656835168368,-0.6133333333333333,0.017777777777777778,0.6766666666666666,-2.8503686811862092,-9.217158241581613,45.267594229687376
1588960005.3429835,1.0182914198281612,-1.8934171603436776,-9.512688610773276,-0.6133333333333333,0.017777777777777778,0.6766666666666666,-2.6143213739260074,-8.670696182667033,41.8884984699282
1588960005.3529835,1.1503602131715096,-1.946615707783872,-9.55610261796398,-0.6133333333333333,0.017777777777777778,0.6766666666666666,-2.409934550900533,-7.598390029952931,38.30158371260746
1588960005.3629835,1.2052760898282695,-1.9352760898282695,-9.531063408190224,-0.6133333333333333,0.017777777777777778,0.6766666666666666,-2.2401585204755614,-5.688011889035668,33.39276750330251
1588960005.3729835,0.814710601459457,-2.074969405792503,-9.51,-0.6539210442822825,-0.010371763686816037,0.6524449681971324,-1.856088247291846,-0.8210295517382042,27.056500135974254
1588960005.3829834,0.37281807761585073,-2.12760602587195,-9.517799246766005,-0.6822222222222222,-0.03,0.6355555555555555,-1.625,1.5337829539872279,19.660461355821187
1588960005.3929834,0.6317530074780535,-2.0781884686246883,-9.526362306275061,-0.6822222222222222,-0.03,0.6355555555555555,-1.5057067573425815,-3.771638262707272,21.25506665221632
1588960005.4029834,0.7263572195795611,-2.034907165873868,-9.504907165873869,-0.6822222222222222,-0.03,0.6355555555555555,-1.07156283566058,-12.291334202854074,23.878481279729936
1588960005.4129834,0.6522344869878502,-2.0588827565060748,-9.514441378253037,-0.6822222222222222,-0.03,0.6355555555555555,-0.954870692959258,-14.50323267601855,25.235861983059294
1588960005.4229834,0.621914191419142,-1.9567986798679868,-9.47957095709571,-0.8978437843784377,-0.20249724972497246,0.4558709204253758,-1.1396452145214522,-13.42141089108911,28.618605610561055
1588960005.4329834,0.7390795330477871,-1.9225575291845132,-9.499769883261946,-0.9488888888888888,-0.2433333333333333,0.4133333333333333,-1.5596235407743344,-9.806419018224574,32.28948832619467
1588960005.4429834,0.7949164265129683,-2.113913544668588,-9.58458213256484,-0.9488888888888888,-0.2433333333333333,0.4133333333333333,-1.9671829971181556,-4.305799711815562,34.15154899135447
1588960005.4529834,0.7173206013047178,-2.195032617944597,-9.587451073083106,-0.9488888888888888,-0.2433333333333333,0.4133333333333333,-2.1564538621537297,0.6168159686111374,33.35703058523211
1588960005.4629834,0.6651009900990099,-2.143977227722772,-9.53020198019802,-0.9488888888888888,-0.2433333333333333,0.4133333333333333,-2.1096905940594057,1.9834282178217821,31.910668316831682
1588960005.4729834,0.6291607712160315,-2.1377856383786247,-9.46526795202672,-1.3255386535769105,0.1850285916704621,-0.18328606851879964,-1.9756698800667982,-0.04575299833004376,30.425113860634582
1588960005.4829834,0.6624156967076821,-2.1818117725307613,-9.513623545061522,-1.4911111111111108,0.37333333333333335,-0.4455555555555555,-1.6392646325241105,-3.0213730462254738,29.399754738942466
1588960005.4929833,0.6715907440074712,-2.1957953720037358,-9.57946975199751,-1.4911111111111108,0.37333333333333335,-0.4455555555555555,-1.4045929749922175,-6.1145908996575695,28.043082650202344
1588960005.5029833,0.6506293010859621,-2.148112096742114,-9.595314650542981,-1.4911111111111108,0.37333333333333335,-0.4455555555555555,-1.3046337364254743,-7.728582829468157,26.556385248021
1588960005.5129833,0.6648266085632532,-2.081387131493975,-9.580693565746987,-1.4911111111111108,0.37333333333333335,-0.4455555555555555,-1.2478326070406636,-7.181175019032368,25.788835875357677
1588960005.5229833,0.6279536095470207,-1.932548113286831,-9.51328178838558,-1.220145483747467,0.4003260778216657,0.06159658608099661,-1.2833011177409865,-5.327942474157492,25.504102235481973
1588960005.5329833,0.5458458053000137,-1.8555389262666484,-9.471384731566662,-0.9111111111111112,0.4311111111111111,0.64,-1.392309144583276,-2.7461404126046958,25.615386430729096
1588960005.5429833,0.4803631868749298,-1.8701815934374648,-9.546061355208451,-0.9111111111111112,0.4311111111111111,0.64,-1.582576694010563,-0.9655214068996517,26.121595123047534
1588960005.5529833,0.43149925674240813,-1.9668777872159693,-9.54437407092801,-0.9111111111111112,0.4311111111111111,0.64,-1.7585972340199618,-0.740629645359949,27.203148226799744
1588960005.5629833,0.4141269631531259,-2.021746073693748,-9.541746073693748,-0.9111111111111112,0.4311111111111111,0.64,-1.8125,-1.6567490467381454,28.516868487617035
1588960005.5729833,0.38198660714285715,-1.952963169642857,-9.5009765625,-0.7119047619047619,0.27548115079365076,0.6960267857142857,-1.8125,-3.3442731584821432,30.588169642857142
1588960005.5829833,0.3929537268576935,-1.9812099382871826,-9.44174378857051,-0.6266666666666667,0.2088888888888889,0.72,-2.051601321434307,-4.195062114294891,33.339411892908764
1588960005.5929832,0.47988158226253463,-2.0,-9.553453354405734,-0.6266666666666667,0.2088888888888889,0.72,-2.3065490505966695,-4.3125,35.724715980668364
1588960005.6029832,0.4574409954821623,-2.0642387832995794,-9.559120774263903,-0.6266666666666667,0.2088888888888889,0.72,-2.3020013826141144,-4.458497234771771,36.52099723477177
1588960005.6129832,0.42991584222022355,-2.1265264037003724,-9.526694719259925,-0.6266666666666667,0.2088888888888889,0.72,-2.2913160092509317,-5.120266124887576,36.54236798149814
1588960005.6229832,0.4508409090909091,-2.159474431818182,-9.519053977272726,-0.6260126262626263,0.20832828282828283,0.7202569444444444,-2.373029119318182,-6.277592329545454,36.36908735795455
1588960005.6329832,0.5550038644591792,-2.0349884066224626,-9.480007728918357,-0.5644444444444444,0.15555555555555556,0.7444444444444445,-2.0758756050929503,-9.14289854777692,35.25437802546475
1588960005.6429832,0.6114247301926407,-1.8885752698073595,-9.58142473019264,-0.5644444444444444,0.15555555555555556,0.7444444444444445,-1.851198478765332,-8.768145235551954,33.25033610814395
1588960005.6529832,0.6073886209874766,-1.8609554483949908,-9.550254966172448,-0.5644444444444444,0.15555555555555556,0.7444444444444445,-1.7842357762343457,-5.396504336404203,30.013939245357708
1588960005.6629832,0.5426502111075024,-1.8601863060615902,-9.50018630606159,-0.5644444444444444,0.15555555555555556,0.7444444444444445,-1.686335587115061,-1.8328190971094511,26.72554732941628
1588960005.6729832,0.42927852209370054,-1.88407214779063,-9.47520637430307,-0.5413689402975415,0.141076807855538,0.7444444444444445,-1.587950923691437,0.8447147790629941,22.36888626529084
1588960005.6829832,0.3252230689553122,-1.924826501923646,-9.429900858242084,-0.5077777777777778,0.12,0.7444444444444445,-1.469524544983723,0.660122724918615,18.31993563184374
1588960005.6929832,0.2364064901793339,-1.96,-9.498437233134073,-0.5077777777777778,0.12,0.7444444444444445,-1.1914069171648165,-1.7294833475661828,16.0859415029889
1588960005.7029831,0.17741469160479725,-1.9809755139920044,-9.566780411193603,-0.5077777777777778,0.12,0.7444444444444445,-1.0100612150199886,-4.958224764420331,15.443596962450028
1588960005.7129831,0.16,-1.9994275304143765,-9.56356882603594,-0.5077777777777778,0.12,0.7444444444444445,-0.8714220650898536,-8.384058698202928,16.38489625146668
1588960005.7229831,0.1664451062677677,-2.054451062677677,-9.520664681196697,-0.4984681798354467,0.12,0.7458766902817262,-0.8125,-9.320808514958712,18.714058481115472
1588960005.732983,0.20958076293591843,-2.1635071311667056,-9.572198341756442,-0.4933333333333334,0.12,0.7466666666666667,-1.02453980144242,-7.561861522274779,20.86189884174745
1588960005.742983,0.2505309603482484,-2.188407118955255,-9.641061920696497,-0.4933333333333334,0.12,0.7466666666666667,-1.2862277532648287,-4.469581939056531,22.40486651958897
1588960005.752983,0.253920121808386,-2.117440852658702,-9.593121339892248,-0.4933333333333334,0.12,0.7466666666666667,-1.4889977160927619,-1.3685289294916843,22.67150532911689
1588960005.762983,0.22518848796236146,-2.0999246048150555,-9.55,-0.4933333333333334,0.12,0.7466666666666667,-1.5625,-0.3444568298588555,21.910726589106083
1588960005.772983,0.21746075814201815,-2.130952909770422,-9.529047090229579,-0.48906514800972894,0.12310413478080322,0.7365782286290562,-1.497022156967432,-0.8829524826481581,20.74502536038441
1588960005.782983,0.24470391319404364,-2.217664781253607,-9.50588826041787,-0.4811111111111111,0.1288888888888889,0.7177777777777777,-1.3087989149255455,-2.525907595521182,19.108240505598523
1588960005.792983,0.23671990417248953,-2.3701597125174687,-9.600399281293672,-0.4811111111111111,0.1288888888888889,0.7177777777777777,-1.0620008983829108,-4.379491914553803,16.53401377520463
1588960005.802983,0.29424286045971676,-2.328320872997446,-9.665967030415603,-0.4811111111111111,0.1288888888888889,0.7177777777777777,-0.8311469700487578,-5.755247271882981,13.561469700487578
1588960005.812983,0.37864174599489203,-2.172507545855584,-9.601044810773159,-0.4811111111111111,0.1288888888888889,0.7177777777777777,-0.6282650336661249,-6.2421639192013005,11.532650336661249
1588960005.822983,0.5309574636056462,-2.136261407774655,-9.526261407774655,-0.46761820051017006,0.14687943635681028,0.7107100627010944,-0.45407482552815237,-3.3374806580983356,4.5529533899643155
1588960005.832983,0.1387530253604125,-9.744932547616543,-12.694662317163,-0.4577777777777778,0.16,0.7055555555555556,0.22666263285278332,-1.1096943070609282,-1.5607031989897924
1588960005.842983,2.0094200036644203,-5.45445328881741,-8.945833553877161,-0.4577777777777778,0.16,0.7055555555555556,10.201138515095376,2.1688496264326864,17.106499765884248
1588960005.852983,-0.9757306590257881,-2.3770746350115983,-2.3454025105744303,-0.4577777777777778,0.16,0.7055555555555556,55.06455092782098,122.15688531859735,-209.35392788920723
1588960005.862983,-10.875414163090127,-8.182102288984263,-5.791047925608012,-0.4577777777777778,0.16,0.7055555555555556,70.05255722460657,245.97986409155936,-470.6659066523605
1588960005.872983,-18.049179863995253,-7.143485463922231,-10.762208936150792,-0.45795810323581765,0.16030912935663974,0.7048600145031162,49.422516087809775,275.66393592259595,-535.9708622381452
1588960005.882983,1.8962224541404087,2.3917553084734875,-6.75018303696865,-0.4655555555555556,0.17333333333333334,0.6755555555555556,2.3628226227270943,-34.27619365391563,-233.21229879982337
1588960005.892983,2.866985925611469,3.5496865101394377,-9.826272083074812,-0.4655555555555556,0.17333333333333334,0.6755555555555556,-45.269158394017566,-152.66285145152335,-59.45601753583908
1588960005.902983,3.1573484081978402,2.772751123555848,-10.610404950704721,-0.4655555555555556,0.17333333333333334,0.6755555555555556,-16.366289500929433,-149.12224258217842,-0.772619649874116
1588960005.912983,2.2206893428812133,-0.10642839090143219,-7.38471651221567,-0.4655555555555556,0.17333333333333334,0.6755555555555556,5.324257582139849,-94.89653275063185,29.050364627211458
1588960005.922983,2.4845204161129186,-1.080825351725402,-10.267274643691858,-0.49241948377964145,0.13144381813645367,0.6760108763729129,0.288389051830805,-17.73387734292654,40.18768044544247
1588960005.932983,1.062348163841808,-1.0576253531073447,-9.361886475988701,-0.5311111111111111,0.07111111111111111,0.6766666666666666,-1.6691108315677967,52.37706898834746,31.21041887358757
1588960005.942983,0.7714924686673565,-2.3823927791192365,-9.20537311716684,-0.5311111111111111,0.07111111111111111,0.6766666666666666,0.2630504771760376,66.3236820167874,21.672566689663103
1588960005.952983,0.9358472421436954,-4.122905854739862,-9.394912961272656,-0.5311111111111111,0.07111111111111111,0.6766666666666666,-1.6051065979919155,40.15317552810015,20.802331219846135
1588960005.962983,1.49575361828353,-4.08420138958014,-9.910629889908622,-0.5311111111111111,0.07111111111111111,0.6766666666666666,-1.314609006390476,-8.078843244211743,28.325013437916823
1588960005.972983,2.025544336877116,-3.2637019659084157,-9.909218388073885,-0.5283255792467647,0.07612506846693459,0.6761095602937974,-2.281337233473897,-36.33238923204846,38.26221268634555
1588960005.9829829,1.4473257429846162,-2.4872508959699635,-9.709720359850794,-0.5255555555555556,0.0811111111111111,0.6755555555555556,-2.2741729039178877,-40.17969683302046,38.29403814272131
1588960005.9929829,0.9485170248608913,-2.2830103629588034,-9.748517024860892,-0.5255555555555556,0.0811111111111111,0.6755555555555556,-2.2468796263208946,-37.538369748328144,35.05075871662668
1588960006.0029829,0.7184241928892522,-2.1731516142214957,-9.54736371066612,-0.5255555555555556,0.0811111111111111,0.6755555555555556,-1.9825117490805066,-24.614512668573763,24.20315181855333
1588960006.0129828,0.6333190095558627,-2.4167239617765492,-9.650011719454294,-0.5255555555555556,0.0811111111111111,0.6755555555555556,-1.020792640783701,-14.603133075906005,18.54126787968027
1588960006.0229828,0.5639979866578521,-2.694008053368592,-9.706728920007214,-0.5255555555555556,0.0811111111111111,0.6755555555555556,-0.8238579166416251,-9.600991082697277,16.611307583087925
1588960006.0329828,0.9918875543590805,-3.1535545661627666,-9.639779457444606,-0.5133333333333333,0.08,0.7055555555555556,-0.6674324394284531,-4.4119188755435905,12.65410799337337
1588960006.0429828,0.6151013849567679,-2.279797230086464,-9.587550692478384,-0.5133333333333333,0.08,0.7055555555555556,-0.6626367740454511,-2.063183870227255,6.229723008646415
1588960006.0529828,0.6357939316491367,-2.2215878632982733,-9.578969658245683,-0.5133333333333333,0.08,0.7055555555555556,-0.23363621842131133,-0.23363621842131133,0.8031052377207641
1588960006.0629828,0.6281928074947114,-2.224457540042309,-9.55,-0.5133333333333333,0.08,0.7055555555555556,-0.06852523420973103,-0.09111514052583862,0.1762050468419462
1588960006.0729828,0.6252998141873429,-2.2926499070936712,-9.544700185812658,-0.5062669144168761,0.08353320945822859,0.7055555555555556,0.17093808066455352,0.0790619193354465,0.14156191933544648
1588960006.0829828,0.6339613877195529,-2.3,-9.526980693859777,-0.4866666666666667,0.09333333333333334,0.7055555555555556,0.0872586732472057,0.06838800987080854,0.1497586732472057
1588960006.0929828,0.6296812978319726,-2.2709561065040824,-9.592609733739794,-0.4866666666666667,0.09333333333333334,0.7055555555555556,-0.06050811144982839,-0.0322459442750858,0.001991888550171607
1588960006.1029828,0.6355649717514125,-2.2577401129943504,-9.630084745762712,-0.4866666666666667,0.09333333333333334,0.7055555555555556,-0.1527189265536723,-0.027718926553672314,-0.0070621468926553715
1588960006.1129827,0.63,-2.290928777670837,-9.587285851780559,-0.4866666666666667,0.09333333333333334,0.7055555555555556,-0.0508902791145332,-0.03973171318575554,0.0625
1588960006.1229827,0.63,-2.305441754417544,-9.57720877208772,-0.48818608186081863,0.09333333333333334,0.7035296686300196,0.1875,0.028489034890348902,0.04825548255482555
1588960006.1329827,0.63,-2.2717027185693643,-9.529275650289017,-0.4933333333333334,0.09333333333333334,0.6966666666666667,0.16462839821170522,0.07925679642341041,0.0
1588960006.1429827,0.63,-2.2454451536875184,-9.593612884218796,-0.4933333333333334,0.09333333333333334,0.6966666666666667,0.05693557890601983,-0.017016105273495043,0.05104831582048512
1588960006.1529827,0.63,-2.2668537790392094,-9.633426889519605,-0.4933333333333334,0.09333333333333334,0.6966666666666667,-0.125,-0.07320902974876485,0.13395485125617576
1588960006.1629827,0.63,-2.2974578956144738,-9.629663164915792,-0.4933333333333334,0.09333333333333334,0.6966666666666667,-0.0932236951809238,-0.1091118475904619,-0.0614473903618476
1588960006.1729827,0.63,-2.291629564782391,-9.58303651825913,-0.4933333333333334,0.09333333333333334,0.6966666666666667,-0.020369559779889954,-0.07268477988994498,0.08426088044022009
1588960006.1829827,0.638943780938163,-2.291056219061837,-9.53,-0.4866666666666667,0.10111111111111112,0.6844444444444444,0.236797261727037,-0.15449315431759253,0.11179726172703701
1588960006.1929827,0.6307048008171604,-2.2992951991828394,-9.53,-0.4866666666666667,0.10111111111111112,0.6844444444444444,0.1338100102145046,0.10297497446373854,0.008810010214504588
1588960006.2029827,0.6260267302376303,-2.2669866348811847,-9.645893079049479,-0.4866666666666667,0.10111111111111112,0.6844444444444444,-0.14383353199259466,0.0059994040222160275,0.0
1588960006.2129827,0.642825067221448,-2.262825067221448,-9.584349865557105,-0.4866666666666667,0.10111111111111112,0.6844444444444444,-0.11687331946379856,-0.07202998959784891,-0.01765667013405036
1588960006.2229826,0.6483733011174871,-2.2732533977650258,-9.568373301117488,-0.4866666666666667,0.09876143494748146,0.6864326319675157,0.07266686801570522,0.021832527937179096,-0.03199939595288433
1588960006.2329826,0.64,-2.29,-9.567110744380267,-0.4866666666666667,0.08666666666666667,0.6966666666666667,0.10277892381166705,-0.1430578476233341,0.058336771435001114
1588960006.2429826,0.6368813408941867,-2.2868813408941864,-9.60806793195232,-0.4866666666666667,0.08666666666666667,0.6966666666666667,0.023516761177332868,-0.023516761177332868,0.015466477645334265
1588960006.2529826,0.6336733497479189,-2.276326650252081,-9.664489975378121,-0.4866666666666667,0.08666666666666667,0.6966666666666667,-0.0625,0.05102078203775355,0.15306234611326064
1588960006.2629826,0.6442290288896624,-2.2628854855551688,-9.622687086668988,-0.4866666666666667,0.08666666666666667,0.6966666666666667,-0.08053428471980509,0.018034284719805085,0.0
1588960006.2729826,0.6344874793401316,-2.2722437396700657,-9.573268780989803,-0.48990762396787285,0.08666666666666667,0.6966666666666667,-0.054883135310443754,0.04847662706208875,0.028046745875822496
1588960006.2829826,0.6460587800711086,-2.2760587800711085,-9.553941219928891,-0.5011111111111111,0.08666666666666667,0.6966666666666667,0.1875,0.0,0.125
1588960006.2929826,0.6365447422861922,-2.2803657731414235,-9.587642061710463,-0.5011111111111111,0.08666666666666667,0.6966666666666667,0.05792783573220653,0.021595360711298913,0.10340463928870108
1588960006.3029826,0.63,-2.2967638012409184,-9.630291403722756,-0.5011111111111111,0.08666666666666667,0.6966666666666667,-0.1875,0.042273757755740576,0.0625
1588960006.3129826,0.63,-2.28110906730145,-9.603331800476086,-0.5011111111111111,0.08666666666666667,0.6966666666666667,-0.14582375297554642,0.027784164682969053,0.04860791765851547
1588960006.3229825,0.63,-2.258417550313785,-9.586313162735339,-0.5011111111111111,0.08666666666666667,0.6966666666666667,-0.039457267095866694,0.0986951552694222,0.0131524223652889
1588960006.3329825,0.6402886749126836,-2.2708660247380505,-9.549711325087317,-0.4811111111111111,0.10111111111111112,0.7055555555555556,0.12139156359145553,0.06430421820427223,0.1195873453871833
1588960006.3429825,0.6483821855160836,-2.2951465565482505,-9.541617814483915,-0.4811111111111111,0.10111111111111112,0.7055555555555556,0.020222681048955096,0.11488865947552246,-0.03216597842656735
1588960006.3529825,0.6400858210608724,-2.295042910530436,-9.584613805226073,-0.4811111111111111,0.10111111111111112,0.7055555555555556,-0.09294542755432134,0.06303638163045244,0.030445427554321336
1588960006.3629825,0.6265862408399869,-2.286586240839987,-9.618051842939956,-0.4811111111111111,0.10111111111111112,0.7055555555555556,-0.15549600787487694,-0.032003992125123046,0.125
1588960006.3729825,0.6157696161222912,-2.2734617696733745,-9.557692153551084,-0.48175217956914346,0.10111111111111112,0.7045298460227039,0.007212020152864054,-0.1730759596942719,0.125
1588960006.3829825,0.6543251439144737,-2.3,-9.545674856085526,-0.4866666666666667,0.10111111111111112,0.6966666666666667,0.04476607473273027,-0.04476607473273027,0.08953214946546054
1588960006.3929825,0.6372454292761226,-2.2972454292761224,-9.579281995067142,-0.4866666666666667,0.10111111111111112,0.6966666666666667,0.0,0.0,-0.017216067024233648
1588960006.4029825,0.6315031105147597,-2.2884968894852404,-9.626993778970482,-0.4866666666666667,0.10111111111111112,0.6966666666666667,-0.018788881434496217,0.009394440717248109,-0.0625
1588960006.4129825,0.64,-2.277344248071373,-9.60203274421412,-0.4866666666666667,0.10111111111111112,0.6966666666666667,-0.07520465133825,0.029303100892166666,-0.029303100892166666
1588960006.4229825,0.6390734519002559,-2.2727796442992325,-9.576293807601024,-0.4866666666666667,0.09977276385592511,0.6966666666666667,0.06829092562340104,-0.0625,0.0625
1588960006.4329824,0.6355647762920773,-2.297217611853961,-9.542782388146039,-0.4866666666666667,0.08666666666666667,0.6966666666666667,0.07283022226177498,-0.02772014817451665,0.045110074087258326
1588960006.4429824,0.65,-2.29,-9.564773666207632,-0.4866666666666667,0.08666666666666667,0.6966666666666667,-0.04930922660032873,0.02292767980098618,0.013190773399671271
1588960006.4529824,0.6463114824704971,-2.286311482470497,-9.612622964940993,-0.4866666666666667,0.08666666666666667,0.6966666666666667,-0.023053234559393572,-0.10194676544060643,0.07402661727969678
1588960006.4629824,0.63,-2.2679233388551445,-9.57584667771029,-0.4866666666666667,0.08666666666666667,0.6966666666666667,-0.11202086784465305,-0.012979132155346953,0.125
1588960006.4729824,0.63,-2.2614899687097365,-9.562979937419474,-0.4866666666666667,0.08666666666666667,0.6966666666666667,-0.07181230443585496,-0.053187695564145036,0.125
1588960006.4829824,0.6383167751513076,-2.2716832248486925,-9.545149023638231,-0.4866666666666667,0.09333333333333334,0.7055555555555556,0.07302015530432797,-0.07302015530432797,0.125
1588960006.4929824,0.63,-2.28,-9.622504006880106,-0.4866666666666667,0.09333333333333334,0.7055555555555556,0.10934995699933545,-0.10934995699933545,0.125
1588960006.5029824,0.6321189865203669,-2.282118986520367,-9.627881013479634,-0.4866666666666667,0.09333333333333334,0.7055555555555556,0.055878167123853344,-0.0625,0.10513450137156004
1588960006.5129824,0.6458512706197058,-2.297925635309853,-9.603776905929559,-0.4866666666666667,0.09333333333333334,0.7055555555555556,-0.025929558626839058,-0.03657044137316094,-0.04953522068658047
1588960006.5229824,0.6308916629514044,-2.290445831475702,-9.581337494427107,-0.4866666666666667,0.09333333333333334,0.7055555555555556,-0.1194271065537227,0.0569271065537227,-0.002786446723138651
1588960006.5329823,0.6385234246693751,-2.27295315066125,-9.571476575330625,-0.48193143073923606,0.10469789955916675,0.6856675646603471,-0.07172859581640592,0.11577140418359408,-0.053271404183594086
1588960006.5429823,0.6372817873556293,-2.281359106322185,-9.556309275866223,-0.4811111111111111,0.10666666666666667,0.6822222222222222,0.07948882902731638,0.05400558548634181,0.0625
1588960006.5529823,0.6228428318157564,-2.288578584092122,-9.642943009105462,-0.4811111111111111,0.10666666666666667,0.6822222222222222,0.16973230115152244,0.008883849424238775,0.0625
1588960006.5629823,0.64,-2.291661687681862,-9.57335324927255,-0.4811111111111111,0.10666666666666667,0.6822222222222222,0.03134335596508245,0.052114451988360816,-0.0625
1588960006.5729823,0.64,-2.29979806013579,-9.540807759456838,-0.4811111111111111,0.10666666666666667,0.6822222222222222,-0.12121362754607179,0.0012621241513094128,-0.0625
1588960006.5829823,0.6533163401648612,-2.272227886611713,-9.545544226776574,-0.4933333333333334,0.08666666666666667,0.7111111111111111,-0.03465141735358809,0.08322712603038214,0.0625
1588960006.5929823,0.6321305983610782,-2.281065299180539,-9.542783590166469,-0.4933333333333334,0.08666666666666667,0.7111111111111111,0.0625,-0.055841880121630674,0.055841880121630674
1588960006.6029823,0.6466953004272339,-2.29,-9.63843355149532,-0.4933333333333334,0.08666666666666667,0.7111111111111111,0.0625,0.0206543723297882,-0.0103271861648941
1588960006.6129823,0.6289188403992613,-2.29,-9.58,-0.4933333333333334,0.08666666666666667,0.7111111111111111,0.048985504990765524,0.11148550499076552,-0.05574275249538276
1588960006.6229823,0.6202149868227189,-2.29,-9.58,-0.4933333333333334,0.08666666666666667,0.7111111111111111,-0.05981266471601403,0.0026873352839859727,-0.0013436676419929863
1588960006.6329823,0.62,-2.29,-9.555187828548322,-0.49976611852450914,0.09861326773599319,0.7065162645459856,-0.21757607157298828,-0.05169202385766276,-0.05169202385766276
1588960006.6429822,0.6473397488174849,-2.278669874408742,-9.57064100473006,-0.5011111111111111,0.10111111111111112,0.7055555555555556,-0.029246860218561405,-0.008313284945359649,0.0
1588960006.6529822,0.6302369107812755,-2.2701184553906377,-9.639052356874899,-0.5011111111111111,0.10111111111111112,0.7055555555555556,0.18453861523405646,-0.061759653808514114,0.0
1588960006.6629822,0.63,-2.298661746329272,-9.619293970634178,-0.5011111111111111,0.10111111111111112,0.7055555555555556,0.0625,-0.05413591455795064,0.0625
1588960006.6729822,0.63,-2.2904723133395812,-9.553778506716652,-0.5011111111111111,0.10111111111111112,0.7055555555555556,0.0625,-0.0029519583723836354,0.0625
1588960006.6829822,0.63,-2.29,-9.542637657402578,-0.5011111111111111,0.0953848446464496,0.688376756161571,-0.16757320616943597,0.0,0.016485358766112804
1588960006.6929822,0.64,-2.279955367629786,-9.530580220812778,-0.5011111111111111,0.09333333333333334,0.6822222222222222,0.0005579046276720695,-0.1866631430584919,0.06194209537232793
1588960006.7029822,0.64,-2.2723763574926363,-9.629107352595724,-0.5011111111111111,0.09333333333333334,0.6822222222222222,0.09529553134204297,-0.044556702986935565,-0.032795531342042966
1588960006.7129822,0.63,-2.289446777666446,-9.588340332999339,-0.5011111111111111,0.09333333333333334,0.6822222222222222,-0.05212708124586948,0.17712708124586948,0.05904236041528983
1588960006.7229822,0.63,-2.280505041891402,-9.561515125674207,-0.5011111111111111,0.09333333333333334,0.6822222222222222,0.11553046453620994,0.009469535463790063,0.0031565118212633567
1588960006.7329822,0.6470569264231606,-2.28852846321158,-9.528829220730518,-0.4933333333333334,0.10666666666666667,0.6888888888888889,-0.0625,0.09740868521713043,0.11580289507237682
1588960006.7429821,0.63,-2.2816130693640426,-9.5912914855483,-0.4933333333333334,0.10666666666666667,0.6888888888888889,-0.0524183164747327,-0.0322549494241981,0.042336632949465394
1588960006.7529821,0.63046395149598,-2.28953604850402,-9.64930407275603,-0.4933333333333334,0.10666666666666667,0.6888888888888889,0.002899696849874786,0.1235501515750626,-0.061050151575062606
1588960006.7629821,0.6462590144796551,-2.273740985520345,-9.625611478280517,-0.4933333333333334,0.10666666666666667,0.6888888888888889,0.10161884049784406,0.07419057975107797,-0.01169057975107797
1588960006.7729821,0.6582499548957448,-2.2864999097914893,-9.554000360834042,-0.4933333333333334,0.10666666666666667,0.6888888888888889,0.1765622180984046,-0.040624436196809194,0.1031244361968092
1588960006.782982,0.6340802818913385,-2.288520070472835,-9.534439788581496,-0.4933333333333334,0.08666666666666667,0.7055555555555556,-0.009249559544783582,-0.027748678634350744,0.009249559544783582
1588960006.792982,0.6037978821836126,-2.277468078544258,-9.570127685822968,-0.4933333333333334,0.08666666666666667,0.7055555555555556,-0.04667549090161406,-0.17958774545080702,0.0625
1588960006.802982,0.6296699907474042,-2.2602200061683972,-9.63911997532641,-0.4933333333333334,0.08666666666666667,0.7055555555555556,0.06112496144751722,-0.1256875192762414,0.0625
1588960006.812982,0.6388572939088403,-2.2717140591367397,-9.57942864695442,-0.4933333333333334,0.08666666666666667,0.7055555555555556,0.06964191306974812,0.003570956534874061,0.007141913069748122
1588960006.822982,0.6230183905441637,-2.295472414183754,-9.571509195272082,-0.4933333333333334,0.08666666666666667,0.7055555555555556,0.16863505909897664,0.05306752954948831,0.10613505909897662
1588960006.832982,0.6330899136335595,-2.2934550431832204,-9.556910086366441,-0.5064232469668929,0.09102997121118651,0.7004650335869491,0.0647820596853794,0.021594019895126465,0.002282059685379395
1588960006.842982,0.6303184071581154,-2.280318407158115,-9.55,-0.5133333333333333,0.09333333333333334,0.6977777777777778,-0.060509955261779054,-0.060509955261779054,-0.001990044738220946
1588960006.852982,0.6448502453810624,-2.28,-9.61682610421478,-0.5133333333333333,0.09333333333333334,0.6977777777777778,-0.01609298318418014,-0.01609298318418014,0.04640701681581986
1588960006.862982,0.63,-2.2995445284985547,-9.609316792747832,-0.5133333333333333,0.09333333333333334,0.6977777777777778,0.12357665155798417,-0.0568066062319367,0.0028466968840316492
1588960006.872982,0.63,-2.286296372336897,-9.589444558505345,-0.5133333333333333,0.09333333333333334,0.6977777777777778,0.08217616355280405,0.10879534578878378,0.08564767289439189
1588960006.882982,0.6383380057584482,-2.263323988483103,-9.538309971207758,-0.503142437406341,0.09981844892323753,0.704262893367682,0.010387464009698442,0.08327492801939688,0.020774928019396885
1588960006.892982,0.6329127587703572,-2.281261723688928,-9.565436206148213,-0.5011111111111111,0.10111111111111112,0.7055555555555556,-0.04429525768526731,0.0625,0.0
1588960006.902982,0.6403021900388556,-2.2703021900388554,-9.679093429883434,-0.5011111111111111,0.10111111111111112,0.7055555555555556,-0.06061131225715295,-0.1799452490286118,0.0625
1588960006.912982,0.6477099964676792,-2.2777099964676792,-9.656870010596963,-0.5011111111111111,0.10111111111111112,0.7055555555555556,-0.014312522077004591,0.005249911691981635,0.0625
1588960006.922982,0.6342035542956825,-2.2878982228521587,-9.578915994330572,-0.5011111111111111,0.10111111111111112,0.7055555555555556,0.0987277856519843,0.11186389282599216,0.0625
1588960006.932982,0.63,-2.29,-9.537061937414844,-0.5011111111111111,0.09516420599644115,0.6928121874526914,0.125,0.07721236961425923,0.01471236961425923
1588960006.942982,0.6495661495775004,-2.28978307478875,-9.532820027746247,-0.5011111111111111,0.09333333333333334,0.6888888888888889,-0.004067347710934544,-0.0625,0.06385578257031152
1588960006.952982,0.63,-2.279282794331395,-9.655696765988372,-0.5011111111111111,0.09333333333333334,0.6888888888888889,-0.18301746457122092,-0.049052393713662795,0.11603492914244186
1588960006.962982,0.6302131307693841,-2.2702131307693842,-9.599573738461231,-0.5011111111111111,0.09333333333333334,0.6888888888888889,-0.11967173076539665,0.125,0.0
1588960006.972982,0.6385754730147337,-2.2785754730147336,-9.582849053970532,-0.5011111111111111,0.09333333333333334,0.6888888888888889,0.08938682536834341,0.125,0.0
1588960006.982982,0.64,-2.297947752533718,-9.562052247466282,-0.49413142957022066,0.08136816497752104,0.7038453493336543,0.125,0.012826546664259739,0.0
1588960006.992982,0.64,-2.281765172074257,-9.56,-0.4933333333333334,0.08,0.7055555555555556,0.06801616273205409,0.0,0.11396767453589182
1588960007.002982,0.6337197623658385,-2.2862802376341613,-9.622802376341616,-0.4933333333333334,0.08,0.7055555555555556,0.0232485147864903,-0.1177544556405291,0.16425148521350968
1588960007.012982,0.63,-2.282843672272339,-9.617062033634035,-0.4933333333333334,0.08,0.7055555555555556,0.04472704829788024,-0.14277295170211976,0.008591806808479041
1588960007.022982,0.6355044796249317,-2.28,-9.572477601875342,-0.4933333333333334,0.08,0.7055555555555556,-0.006305995311647022,-0.125,0.006305995311647022
1588960007.0329819,0.634464689770156,-2.274464689770156,-9.538929379540312,-0.4896431265134374,0.07692482765008667,0.6963300385058155,-0.027904311063475053,-0.15959568893652495,0.09709568893652495
1588960007.0429819,0.6362015879750288,-2.2824031759500576,-9.542403175950058,-0.4866666666666667,0.07444444444444444,0.6888888888888889,0.038759924843929934,-0.14874007515607007,0.04748015031214013
1588960007.0529819,0.64,-2.29,-9.625280297827738,-0.4866666666666667,0.07444444444444444,0.6888888888888889,0.0625,-0.07272201539740485,0.10455596920519031
1588960007.0629818,0.6332319212820605,-2.2832319212820607,-9.612927685128243,-0.4866666666666667,0.07444444444444444,0.6888888888888889,0.10480049198712152,-0.14710098397424304,0.04039901602575696
1588960007.0729818,0.6501301597034477,-2.2867100532344824,-9.553029627358622,-0.4866666666666667,0.07444444444444444,0.6888888888888889,0.04112433456896791,-0.0616865018534519,-0.08387566543103209
1588960007.0829818,0.6405144174820051,-2.296495194172665,-9.54299038834533,-0.4960486138049605,0.07805288565148054,0.6939407065787394,0.1217848907374682,0.04059496357915607,-0.0032151092625317956
1588960007.0929818,0.6574095421069485,-2.281726971928701,-9.5317269719287,-0.5011111111111111,0.08,0.6966666666666667,0.13039678727719073,-0.05170642544561854,-0.05170642544561854
1588960007.1029818,0.6449766186366575,-2.28,-9.635163669543397,-0.5011111111111111,0.08,0.6966666666666667,0.07805193323955442,-0.20334420028133673,-0.015551933239554422
1588960007.1129818,0.6399377289377289,-2.2799377289377287,-9.609813186813186,-0.5011111111111111,0.08,0.6966666666666667,-0.061721611721611724,-0.061721611721611724,0.0003891941391941392
1588960007.1229818,0.6332578436056697,-2.27325784360567,-9.58977353081701,-0.5011111111111111,0.08,0.6966666666666667,0.021776954929128844,0.021776954929128844,0.04213847746456442
1588960007.1329818,0.63,-2.2766754691189264,-9.546622654405368,-0.48776017287325846,0.08445031274595087,0.6966666666666667,0.020778318006710574,0.020778318006710574,0.0625
1588960007.1429818,0.63,-2.2877121698346086,-9.545424339669218,-0.4811111111111111,0.08666666666666667,0.6966666666666667,0.0,-0.048201061466304616,0.014298938533695384
1588960007.1529818,0.639182239707742,-2.2991822397077417,-9.632640157369678,-0.4811111111111111,0.08666666666666667,0.6966666666666667,0.05738899817338766,-0.005111001826612338,0.05738899817338766
1588960007.1629817,0.64894411218808,-2.3,-9.648944112188081,-0.4811111111111111,0.08666666666666667,0.6966666666666667,-0.04930140235100021,0.0,-0.04930140235100021
1588960007.1729817,0.655331895689926,-2.2840043129302217,-9.602012938790667,-0.4811111111111111,0.08666666666666667,0.6966666666666667,-0.0625,0.0,0.004148696124075285
1588960007.1829817,0.6637087791000521,-2.273708779100052,-9.552582441799895,-0.48317154394447337,0.09202379203340857,0.6966666666666667,-0.0625,0.0,0.03932013062467444
1588960007.1929817,0.6422590648014377,-2.289246978399521,-9.549246978399522,-0.4866666666666667,0.10111111111111112,0.6966666666666667,-0.004706385002995174,0.0,0.11558722999400965
1588960007.2029817,0.64,-2.2994704035020934,-9.62576322801675,-0.4866666666666667,0.10111111111111112,0.6966666666666667,0.059190021888085274,0.059190021888085274,0.06580997811191472
1588960007.2129817,0.6334363999933896,-2.2868727999867793,-9.59718199996695,-0.4866666666666667,0.10111111111111112,0.6966666666666667,-0.019545000082629604,0.1035225000413148,0.0625
1588960007.2229817,0.6361882607677902,-2.2738117392322095,-9.56143521769663,-0.4866666666666667,0.10111111111111112,0.6966666666666667,-0.02382337020131086,0.08632337020131087,0.02382337020131086
1588960007.2329817,0.64,-2.275569444711955,-9.544430555288045,-0.4903796298079702,0.09677932077959044,0.6886219131938425,0.03480902944971975,0.09730902944971975,0.03480902944971975
1588960007.2429817,0.6325114660762297,-2.2874885339237703,-9.562465601771311,-0.4933333333333334,0.09333333333333334,0.6822222222222222,0.0625,-0.015410011070694285,0.01569666297643524
1588960007.2529817,0.63,-2.29940490975874,-9.6640490975874,-0.4933333333333334,0.09333333333333334,0.6822222222222222,0.0625,-0.1800613719842507,-0.05878068599212536
1588960007.2629817,0.63,-2.3,-9.622928130929791,-0.4933333333333334,0.09333333333333334,0.6822222222222222,0.013466803051865907,0.008632787792536373,0.13363278779253637
1588960007.2729816,0.63,-2.293718991542228,-9.584875966168912,-0.4933333333333334,0.09333333333333334,0.6822222222222222,0.07851260572214804,0.023243697138925982,0.06973109141677795
1588960007.2829816,0.63,-2.2738697973713036,-9.537739594742606,-0.4879565991237678,0.0996061899111598,0.7010407919557016,0.024186233570646226,-0.05040688321467689,0.15122064964403067
1588960007.2929816,0.63,-2.2829111447122656,-9.53,-0.4866666666666667,0.10111111111111112,0.7055555555555556,-0.040347327225829406,-0.0625,-0.014236636129147023
1588960007.3029816,0.638538410827161,-2.29,-9.623922519098771,-0.4866666666666667,0.10111111111111112,0.7055555555555556,-0.0625,-0.2759602706790243,0.03509520300926822
1588960007.3129816,0.6483291150288009,-2.2983291150288006,-9.606683539884797,-0.4866666666666667,0.10111111111111112,0.7055555555555556,-0.010443031069994758,-0.15632909320998428,0.0625
1588960007.3229816,0.6397162482377996,-2.2897162482377995,-9.5845743723567,-0.4866666666666667,0.10111111111111112,0.7055555555555556,0.06427344851375266,-0.06072655148624734,0.09463672425687633
1588960007.3329816,0.6337009765927764,-2.283700976592776,-9.55889707022167,-0.48913398439518424,0.10111111111111112,0.7022657985841989,0.05560668888544412,0.023131103704851958,0.07873779259029609
1588960007.3429816,0.64,-2.2812619476852953,-9.54,-0.4933333333333334,0.10111111111111112,0.6966666666666667,-0.007887173033096363,0.007887173033096363,-0.05461282696690364
1588960007.3529816,0.6330476606113505,-2.2730476606113506,-9.616475733275145,-0.4933333333333334,0.10111111111111112,0.6966666666666667,0.04345212117905915,-0.0869042423581183,0.06785636353717744
1588960007.3629816,0.6347682432688302,-2.2747682432688303,-9.626158783655848,-0.4933333333333334,0.10111111111111112,0.6966666666666667,0.032698479569811034,-0.06539695913962207,0.09519847956981103
1588960007.3729815,0.64,-2.2890305076190174,-9.586454238571473,-0.4933333333333334,0.10111111111111112,0.6966666666666667,-0.028220336309429918,0.0,0.03427966369057008
1588960007.3829815,0.64,-2.3,-9.550622176631881,-0.4971012434326896,0.09088392655571556,0.6928987565673104,-0.032222150987315804,-0.0302778490126842,0.0302778490126842
1588960007.3929815,0.64,-2.2755502281339415,-9.54222488593303,-0.5011111111111111,0.08,0.6888888888888889,0.03820276854071611,-0.0625,-0.013905537081432218
1588960007.4029815,0.6344816308166197,-2.276555107550141,-9.610702061017184,-0.5011111111111111,0.08,0.6888888888888889,0.09698980739612716,-0.028010192603872844,-0.0625
1588960007.4129815,0.6361630944149957,-2.29,-9.641510716755013,-0.5011111111111111,0.08,0.6888888888888889,0.0864806599062764,0.0,0.014538680187447181
1588960007.4229815,0.6334422394155191,-2.2768844788310383,-9.584095675908634,-0.5011111111111111,0.08,0.6888888888888889,0.021513996346994482,0.0,0.021513996346994482
1588960007.4329815,0.6372327586206896,-2.2844655172413795,-9.54553448275862,-0.4866455938697318,0.08964367816091955,0.6888888888888889,0.09040948275862068,-0.04520474137931034,-0.09040948275862068
1588960007.4429815,0.64,-2.2841905035867747,-9.54,-0.4811111111111111,0.09333333333333334,0.6888888888888889,-0.020237410330630534,-0.026190647417342366,-0.05238129483468473
1588960007.4529815,0.6330848300430458,-2.28,-9.60915169956954,-0.4811111111111111,0.09333333333333334,0.6888888888888889,0.004659436692890012,-0.12965943669289,-0.043219812230963335
1588960007.4629815,0.6238772166187234,-2.28,-9.609386083093616,-0.4811111111111111,0.09333333333333334,0.6888888888888889,0.0625,0.0038369806648946014,-0.0625
1588960007.4729815,0.6253032132124419,-2.274696786787558,-9.584696786787559,-0.4811111111111111,0.09333333333333334,0.6888888888888889,-0.003790165155523592,0.025564752266714605,0.003790165155523592
1588960007.4829814,0.63,-2.2653487869136093,-9.552092721481657,-0.48679592710558856,0.09953495078185418,0.6888888888888889,-0.03342991821005859,0.024710245369824232,-0.053780327159765634
1588960007.4929814,0.624275170913611,-2.265724829086389,-9.560073803604723,-0.4933333333333334,0.10666666666666667,0.6888888888888889,-0.07156036357986327,0.08921981821006836,-0.1875
1588960007.5029814,0.6276400859407799,-2.28528017188156,-9.65112068752624,-0.4933333333333334,0.10666666666666667,0.6888888888888889,-0.029498925740251397,0.014749462870125699,-0.04424838861037711
1588960007.5129814,0.63,-2.2845718595491493,-9.653715578647448,-0.4933333333333334,0.10666666666666667,0.6888888888888889,0.06785175563563228,0.03392587781781614,-0.06785175563563228
1588960007.5229814,0.638260808336854,-2.275869595831573,-9.611087170821012,-0.4933333333333334,0.10666666666666667,0.6888888888888889,0.09918497394733136,0.010869947894662724,-0.07336994789466272
1588960007.5329814,0.65,-2.27,-9.56184566935219,-0.4906152231173967,0.10938477688260335,0.6979492562753445,0.03701771672559362,-0.0625,0.05096456654881277
1588960007.5429814,0.65,-2.283219207495608,-9.554406402498536,-0.4866666666666667,0.11333333333333333,0.7111111111111111,-0.027540015615850087,-0.0074199687682998255,0.042379953152449745
1588960007.5529814,0.6347363475569312,-2.2694726951138624,-9.621054609772276,-0.4866666666666667,0.11333333333333333,0.7111111111111111,0.03289782776917975,0.014801086115410124,-0.014801086115410124
1588960007.5629814,0.6453861048361071,-2.275386104836107,-9.593841685491679,-0.4866666666666667,0.11333333333333333,0.7111111111111111,0.0625,0.0,0.04808157761283481
1588960007.5729814,0.65,-2.28,-9.58,-0.4866666666666667,0.11333333333333333,0.7111111111111111,9.672653941752984e-05,0.031201636730291235,0.031298363269708765
1588960007.5829813,0.6430689329556185,-2.2834655335221905,-9.569603399433428,-0.4889770223481272,0.10409191060749134,0.7034099255062428,0.0024787535410764894,0.04084041548630784,0.0
1588960007.5929813,0.6345538913362702,-2.2808922173274597,-9.54544610866373,-0.4933333333333334,0.08666666666666667,0.6888888888888889,0.06807635829662262,0.0,-0.028461820851688694
1588960007.6029813,0.6351039717196922,-2.2846880848409232,-9.593856311083385,-0.4933333333333334,0.08666666666666667,0.6888888888888889,-0.030600176751923478,-0.061200353503846956,-0.0012996464961530438
1588960007.6129813,0.63,-2.289520820899832,-9.618562462699497,-0.4933333333333334,0.08666666666666667,0.6888888888888889,-0.0625,-0.19049486937604682,0.0625
1588960007.6229813,0.63,-2.28,-9.58181301566921,-0.4933333333333334,0.08666666666666667,0.6888888888888889,-0.036915673966283855,-0.12207836983141926,0.011331347932567709
1588960007.6329813,0.63,-2.28,-9.557691680261012,-0.4933333333333334,0.08393148450244699,0.6980061627696211,0.0,0.0625,-0.0625
1588960007.6429813,0.6355896841495219,-2.2744103158504783,-9.556769052448566,-0.4933333333333334,0.08,0.7111111111111111,-0.034935525934511734,0.0625,-0.027564474065488266
1588960007.6529813,0.64,-2.2628567815684986,-9.627145747452012,-0.4933333333333334,0.08,0.7111111111111111,0.07143534559065273,0.0625,-0.08929023039376849
1588960007.6629813,0.6337248919920555,-2.2725502160158886,-9.637449783984112,-0.4933333333333334,0.08,0.7111111111111111,0.16421942504965295,0.0625,-0.04656114990069411
1588960007.6729813,0.63,-2.274920332784396,-9.589362662275168,-0.4933333333333334,0.08,0.7111111111111111,0.124004159804949,-0.000995840195051001,0.0
1588960007.6829813,0.6356147893379192,-2.2812295786758385,-9.54438521066208,-0.4933333333333334,0.09185344415782938,0.707991783701156,0.0625,-0.0625,-0.03509243336199484
1588960007.6929812,0.64,-2.29,-9.529086414790996,-0.4933333333333334,0.10111111111111112,0.7055555555555556,0.02839504622186495,-0.02839504622186495,-0.0625
1588960007.7029812,0.64,-2.2842459231043923,-9.583294845851684,-0.4933333333333334,0.10111111111111112,0.7055555555555556,-0.03596298059754791,0.0,-0.0625
1588960007.7129812,0.64,-2.2745360315893386,-9.613608094768017,-0.4933333333333334,0.10111111111111112,0.7055555555555556,0.005799605133267521,0.06829960513326752,-0.13079960513326752
