time,acc_x,acc_y,acc_z,mag_x,mag_y,mag_z,gyr_x,gyr_y,gyr_z
1589380824.4103882,-0.36,-4.03,8.8,0.5244444444444445,0.0011111111111111113,-0.8044444444444444,-0.25,0.125,0.0
1589380824.4220064,-0.38,-4.04,8.84,0.5288888888888889,0.008888888888888889,-0.8122222222222222,0.0,0.0,0.0625
1589380824.4288516,-0.38,-4.04,8.85,0.5288888888888889,0.008888888888888889,-0.8122222222222222,0.0625,0.125,-0.0625
1589380824.4381304,-0.37,-4.04,8.79,0.5288888888888889,0.008888888888888889,-0.8122222222222222,0.0,-0.0625,0.0625
1589380824.4534388,-0.35,-4.05,8.8,0.5288888888888889,0.008888888888888889,-0.8122222222222222,-0.0625,-0.375,0.0625
1589380824.46077,-0.37,-4.04,8.83,0.5288888888888889,0.008888888888888889,-0.8122222222222222,-0.125,-0.4375,-0.0625
1589380824.468417,-0.34,-4.05,8.82,0.5244444444444445,-0.0033333333333333327,-0.7833333333333333,-0.0625,-0.1875,0.0625
1589380824.4806552,-0.35,-4.06,8.82,0.5244444444444445,-0.0033333333333333327,-0.7833333333333333,0.0,-0.25,0.1875
1589380824.4926426,-0.35,-4.06,8.79,0.5244444444444445,-0.0033333333333333327,-0.7833333333333333,0.125,-0.1875,0.0625
1589380824.4987473,-0.34,-4.05,8.81,0.5244444444444445,-0.0033333333333333327,-0.7833333333333333,0.0625,0.0,-0.0625
1589380824.5105975,-0.36,-4.06,8.85,0.5244444444444445,-0.0033333333333333327,-0.7833333333333333,-0.125,0.0,0.125
1589380824.5181966,-0.36,-4.06,8.85,0.5166666666666667,0.015555555555555557,-0.7833333333333333,-0.125,0.0625,0.0
1589380824.532438,-0.35,-4.05,8.88,0.5166666666666667,0.015555555555555557,-0.7833333333333333,-0.0625,0.0,-0.0625
1589380824.538357,-0.35,-4.06,8.76,0.5166666666666667,0.015555555555555557,-0.7833333333333333,0.125,-0.0625,0.0625
1589380824.5484712,-0.35,-4.05,8.82,0.5166666666666667,0.015555555555555557,-0.7833333333333333,0.0625,0.0625,0.0
1589380824.5614223,-0.37,-4.04,8.82,0.5166666666666667,0.015555555555555557,-0.7833333333333333,0.1875,-0.0625,0.0
1589380824.5728095,-0.36,-4.04,8.83,0.5366666666666666,0.0011111111111111113,-0.7977777777777778,0.125,0.0,0.0625
1589380824.5788546,-0.36,-4.05,8.82,0.5366666666666666,0.0011111111111111113,-0.7977777777777778,0.0,0.25,-0.0625
1589380824.589052,-0.37,-4.06,8.77,0.5366666666666666,0.0011111111111111113,-0.7977777777777778,0.3125,0.0,0.0
1589380824.598512,-0.38,-4.04,8.8,0.5366666666666666,0.0011111111111111113,-0.7977777777777778,0.1875,0.1875,0.1875
1589380824.6110446,-0.34,-4.05,8.86,0.5366666666666666,0.0011111111111111113,-0.7977777777777778,0.1875,0.0625,0.0
1589380824.6185591,-0.35,-4.05,8.85,0.5288888888888889,0.0011111111111111113,-0.7977777777777778,0.125,-0.0625,0.0625
1589380824.6305935,-0.36,-4.03,8.82,0.5288888888888889,0.0011111111111111113,-0.7977777777777778,0.0625,-0.0625,0.125
1589380824.6389155,-0.35,-4.06,8.74,0.5288888888888889,0.0011111111111111113,-0.7977777777777778,0.125,-0.0625,0.125
1589380824.6509707,-0.35,-4.06,8.79,0.5288888888888889,0.0011111111111111113,-0.7977777777777778,0.1875,-0.125,0.0625
1589380824.661295,-0.38,-4.05,8.88,0.5288888888888889,0.0011111111111111113,-0.7977777777777778,0.0625,0.1875,0.0
1589380824.668684,-0.36,-4.03,8.83,0.5288888888888889,0.0011111111111111113,-0.7766666666666666,0.0625,0.1875,0.125
1589380824.6830096,-0.38,-4.07,8.85,0.5288888888888889,0.0011111111111111113,-0.7766666666666666,-0.0625,0.125,0.125
1589380824.6890032,-0.34,-4.04,8.76,0.5288888888888889,0.0011111111111111113,-0.7766666666666666,0.0,-0.0625,-0.125
1589380824.7000225,-0.35,-4.05,8.82,0.5288888888888889,0.0011111111111111113,-0.7766666666666666,-0.0625,-0.0625,0.0
1589380824.7118378,-0.36,-4.04,8.86,0.5288888888888889,0.0011111111111111113,-0.7766666666666666,-0.0625,-0.125,-0.0625
1589380824.7203526,-0.35,-4.05,8.87,0.5366666666666666,0.0011111111111111113,-0.7766666666666666,-0.3125,-0.3125,-0.0625
1589380824.7294967,-0.35,-4.05,8.79,0.5366666666666666,0.0011111111111111113,-0.7766666666666666,0.0625,-0.4375,0.0
1589380824.7399776,-0.35,-4.05,8.72,0.5366666666666666,0.0011111111111111113,-0.7766666666666666,-0.1875,-0.375,-0.0625
1589380824.749766,-0.34,-4.06,8.79,0.5366666666666666,0.0011111111111111113,-0.7766666666666666,-0.125,-0.3125,-0.0625
1589380824.7615285,-0.35,-4.06,8.83,0.5366666666666666,0.0011111111111111113,-0.7766666666666666,-0.0625,-0.25,0.0
1589380824.7697904,-0.36,-4.05,8.85,0.5288888888888889,0.0011111111111111113,-0.7833333333333333,-0.125,-0.5625,0.0
1589380824.7816367,-0.35,-4.05,8.85,0.5288888888888889,0.0011111111111111113,-0.7833333333333333,-0.375,-0.625,0.0
1589380824.7885227,-0.36,-4.04,8.76,0.5288888888888889,0.0011111111111111113,-0.7833333333333333,-0.0625,-0.625,0.0
1589380824.798638,-0.34,-4.06,8.84,0.5288888888888889,0.0011111111111111113,-0.7833333333333333,-0.0625,-0.4375,-0.0625
1589380824.8160353,-0.33,-4.03,8.85,0.5288888888888889,0.0011111111111111113,-0.7833333333333333,0.0625,-0.375,0.0625
1589380824.8221776,-0.42,-4.01,8.87,0.5511111111111111,0.008888888888888889,-0.7911111111111111,-0.5,-0.625,0.0
1589380824.8344305,-0.25,-4.14,8.9,0.5511111111111111,0.008888888888888889,-0.7911111111111111,0.5,0.4375,0.125
1589380824.8405864,-0.35,-4.07,8.77,0.5511111111111111,0.008888888888888889,-0.7911111111111111,-0.125,-0.375,0.1875
1589380824.8548384,-0.35,-4.08,8.83,0.5511111111111111,0.008888888888888889,-0.7911111111111111,-0.0625,-0.125,0.125
1589380824.862402,-0.38,-4.04,8.83,0.5511111111111111,0.008888888888888889,-0.7911111111111111,0.0625,0.0,0.0
1589380824.8728778,-0.33,-4.06,8.85,0.5244444444444445,0.008888888888888889,-0.7833333333333333,0.0625,-0.3125,0.0
1589380824.8798404,-0.35,-4.06,8.82,0.5244444444444445,0.008888888888888889,-0.7833333333333333,0.0,0.125,0.125
1589380824.8911185,-0.34,-4.07,8.75,0.5244444444444445,0.008888888888888889,-0.7833333333333333,0.0625,0.0625,-0.125
1589380824.9000466,-0.35,-4.05,8.79,0.5244444444444445,0.008888888888888889,-0.7833333333333333,0.1875,-0.0625,0.0
1589380824.9122868,-0.36,-4.07,8.85,0.5244444444444445,0.008888888888888889,-0.7833333333333333,0.25,0.125,0.125
1589380824.919417,-0.35,-4.04,8.84,0.5366666666666666,0.0011111111111111113,-0.7911111111111111,0.125,0.3125,0.0625
1589380824.9311738,-0.34,-4.07,8.88,0.5366666666666666,0.0011111111111111113,-0.7911111111111111,0.0,0.125,0.0
1589380824.9394634,-0.35,-4.06,8.77,0.5366666666666666,0.0011111111111111113,-0.7911111111111111,0.25,0.1875,-0.0625
1589380824.9509742,-0.35,-4.08,8.82,0.5366666666666666,0.0011111111111111113,-0.7911111111111111,0.125,0.375,0.0
1589380824.9652429,-0.33,-4.06,8.82,0.5366666666666666,0.0011111111111111113,-0.7911111111111111,0.125,0.25,0.0
1589380824.9731154,-0.35,-4.08,8.85,0.5288888888888889,0.0011111111111111113,-0.7911111111111111,0.125,0.25,0.125
1589380824.9799747,-0.35,-4.04,8.79,0.5288888888888889,0.0011111111111111113,-0.7911111111111111,0.0625,0.25,0.1875
1589380824.9913678,-0.35,-4.04,8.71,0.5288888888888889,0.0011111111111111113,-0.7911111111111111,0.1875,0.3125,0.0625
1589380824.999858,-0.37,-4.06,8.78,0.5288888888888889,0.0011111111111111113,-0.7911111111111111,0.125,0.125,0.1875
1589380825.012426,-0.35,-4.05,8.81,0.5288888888888889,0.0011111111111111113,-0.7911111111111111,0.125,0.125,-0.125
1589380825.0224626,-0.34,-4.08,8.88,0.5366666666666666,0.015555555555555557,-0.8122222222222222,0.0625,0.25,0.0625
1589380825.0302315,-0.34,-4.05,8.88,0.5366666666666666,0.015555555555555557,-0.8122222222222222,0.0625,0.1875,-0.125
1589380825.0441446,-0.35,-4.05,8.79,0.5366666666666666,0.015555555555555557,-0.8122222222222222,0.0,0.1875,0.0625
1589380825.0500898,-0.35,-4.06,8.85,0.5366666666666666,0.015555555555555557,-0.8122222222222222,0.0,0.25,0.125
1589380825.062709,-0.35,-4.06,8.88,0.5366666666666666,0.015555555555555557,-0.8122222222222222,0.0,0.125,0.0
1589380825.072664,-0.36,-4.04,8.87,0.5166666666666667,0.0011111111111111113,-0.7833333333333333,0.0,0.25,-0.0625
1589380825.0828426,-0.36,-4.05,8.88,0.5166666666666667,0.0011111111111111113,-0.7833333333333333,-0.0625,0.125,0.0
1589380825.0909016,-0.35,-4.06,8.7,0.5166666666666667,0.0011111111111111113,-0.7833333333333333,-0.1875,0.0625,0.0
1589380825.1041286,-0.33,-4.06,8.77,0.5166666666666667,0.0011111111111111113,-0.7833333333333333,0.0,0.0625,0.0
1589380825.1130047,-0.35,-4.05,8.8,0.5166666666666667,0.0011111111111111113,-0.7833333333333333,0.0,0.5625,-0.0625
1589380825.12359,-0.35,-4.04,8.85,0.5433333333333333,-0.0033333333333333327,-0.8044444444444444,0.0625,0.25,0.0625
1589380825.130243,-0.35,-4.04,8.83,0.5433333333333333,-0.0033333333333333327,-0.8044444444444444,0.125,0.1875,0.1875
1589380825.1418002,-0.33,-4.05,8.74,0.5433333333333333,-0.0033333333333333327,-0.8044444444444444,0.125,0.0625,0.0
1589380825.1511314,-0.34,-4.04,8.78,0.5433333333333333,-0.0033333333333333327,-0.8044444444444444,0.125,0.125,0.0
1589380825.1631525,-0.36,-4.05,8.89,0.5433333333333333,-0.0033333333333333327,-0.8044444444444444,0.1875,0.125,-0.0625
1589380825.1761653,-0.37,-4.02,8.86,0.5433333333333333,-0.01,-0.7911111111111111,0.0625,0.25,0.125
1589380825.182108,-0.22,-4.17,9.07,0.5433333333333333,-0.01,-0.7911111111111111,-0.3125,-0.0625,0.0625
1589380825.1954072,-0.43,-3.96,8.64,0.5433333333333333,-0.01,-0.7911111111111111,0.6875,1.3125,0.125
1589380825.20123,-0.29,-4.1,8.89,0.5433333333333333,-0.01,-0.7911111111111111,-0.125,-0.25,0.125
1589380825.2141984,-0.4,-4.01,8.75,0.5433333333333333,-0.01,-0.7911111111111111,0.5,0.9375,0.125
1589380825.2216735,-0.37,-4.05,8.81,0.5288888888888889,0.008888888888888889,-0.7977777777777778,0.125,0.375,0.0625
1589380825.2313647,-0.39,-4.03,8.8,0.5288888888888889,0.008888888888888889,-0.7977777777777778,0.3125,0.5625,0.125
1589380825.2416494,-0.35,-4.05,8.73,0.5288888888888889,0.008888888888888889,-0.7977777777777778,0.25,0.375,0.0
1589380825.2545838,-0.35,-4.03,8.79,0.5288888888888889,0.008888888888888889,-0.7977777777777778,0.125,0.0625,0.125
1589380825.263767,-0.36,-4.07,8.84,0.5288888888888889,0.008888888888888889,-0.7977777777777778,0.0625,0.0625,0.0625
1589380825.2747931,-0.35,-4.05,8.91,0.5555555555555556,-0.01,-0.8044444444444444,0.125,0.375,0.0625
1589380825.2811725,-0.37,-4.07,8.86,0.5555555555555556,-0.01,-0.8044444444444444,0.0,0.0625,0.0
1589380825.2912965,-0.37,-4.04,8.77,0.5555555555555556,-0.01,-0.8044444444444444,0.0625,0.0625,0.0625
1589380825.3013446,-0.36,-4.07,8.82,0.5555555555555556,-0.01,-0.8044444444444444,0.0625,0.25,0.0625
1589380825.3136258,-0.35,-4.04,8.78,0.5555555555555556,-0.01,-0.8044444444444444,-0.125,0.1875,0.0
1589380825.321266,-0.35,-4.05,8.89,0.5244444444444445,0.008888888888888889,-0.7911111111111111,-0.125,0.0,0.0625
1589380825.331439,-0.38,-4.03,8.85,0.5244444444444445,0.008888888888888889,-0.7911111111111111,0.0625,0.0625,-0.0625
1589380825.3466096,-0.37,-4.04,8.74,0.5244444444444445,0.008888888888888889,-0.7911111111111111,-0.1875,-0.1875,0.0625
1589380825.3525054,-0.37,-4.04,8.78,0.5244444444444445,0.008888888888888889,-0.7911111111111111,-0.25,-0.0625,0.0625
1589380825.3679285,-0.38,-4.06,8.78,0.5244444444444445,0.008888888888888889,-0.7911111111111111,-0.25,-0.1875,-0.0625
1589380825.3739936,-0.36,-4.04,8.86,0.5166666666666667,0.0011111111111111113,-0.7977777777777778,-0.25,-0.3125,0.0
1589380825.385129,-0.35,-4.06,8.89,0.5166666666666667,0.0011111111111111113,-0.7977777777777778,-0.0625,-0.1875,-0.125
1589380825.392093,-0.34,-4.06,8.81,0.5166666666666667,0.0011111111111111113,-0.7977777777777778,-0.1875,-0.25,-0.0625
1589380825.4057775,-0.36,-4.04,8.85,0.5166666666666667,0.0011111111111111113,-0.7977777777777778,-0.3125,-0.4375,-0.125
1589380825.4141304,-0.39,-3.94,8.87,0.5166666666666667,0.0011111111111111113,-0.7977777777777778,-0.4375,-0.5625,-0.125
1589380825.4259493,-0.51,-4.03,8.84,0.5244444444444445,0.0011111111111111113,-0.7911111111111111,-0.5625,-0.5,-0.4375
1589380825.4320645,-0.47,-4.02,8.88,0.5244444444444445,0.0011111111111111113,-0.7911111111111111,-0.4375,-0.5625,-0.125
1589380825.4434712,-0.46,-3.97,8.75,0.5244444444444445,0.0011111111111111113,-0.7911111111111111,-0.1875,-0.5625,1.0625
1589380825.4521642,-0.44,-3.89,8.8,0.5244444444444445,0.0011111111111111113,-0.7911111111111111,-0.1875,-0.1875,1.5
1589380825.4640641,-0.43,-3.87,8.83,0.5244444444444445,0.0011111111111111113,-0.7911111111111111,-0.1875,-0.25,1.8125
1589380825.4713151,-0.46,-3.87,8.87,0.5166666666666667,0.0011111111111111113,-0.8044444444444444,-0.1875,-0.125,1.9375
1589380825.4838026,-0.47,-3.81,8.9,0.5166666666666667,0.0011111111111111113,-0.8044444444444444,-0.375,-0.375,2.1875
1589380825.4928465,-0.53,-3.72,8.83,0.5166666666666667,0.0011111111111111113,-0.8044444444444444,-0.4375,-0.3125,1.8125
1589380825.5026155,-0.56,-3.73,8.9,0.5166666666666667,0.0011111111111111113,-0.8044444444444444,-0.25,-0.4375,1.625
1589380825.5193348,-0.58,-3.67,8.89,0.5166666666666667,0.0011111111111111113,-0.8044444444444444,-0.6875,-0.4375,1.6875
1589380825.524991,-0.63,-3.57,8.89,0.5366666666666666,0.0011111111111111113,-0.8044444444444444,-1.125,-0.875,2.0
1589380825.5332286,-0.62,-3.4,8.87,0.5366666666666666,0.0011111111111111113,-0.8044444444444444,-1.75,-2.0,2.625
1589380825.5456483,-0.61,-3.11,8.84,0.5366666666666666,0.0011111111111111113,-0.8044444444444444,-2.25,-2.625,3.5
1589380825.5563517,-0.57,-2.55,9.08,0.5366666666666666,0.0011111111111111113,-0.8044444444444444,-0.625,1.375,11.875
1589380825.5647075,-0.11,-2.64,8.85,0.5366666666666666,0.0011111111111111113,-0.8044444444444444,0.9375,0.8125,26.6875
1589380825.5757835,-0.11,-2.71,8.99,0.5288888888888889,0.0011111111111111113,-0.7922222222222223,-0.625,-2.625,32.3125
1589380825.5821722,-0.07,-2.85,8.98,0.5288888888888889,0.0011111111111111113,-0.7922222222222223,-0.6875,-2.6875,32.25
1589380825.5968182,-0.32,-2.72,8.87,0.5288888888888889,0.0011111111111111113,-0.7922222222222223,-0.75,-2.9375,30.125
1589380825.602954,-0.35,-2.79,8.96,0.5288888888888889,0.0011111111111111113,-0.7922222222222223,-0.6875,-2.75,30.375
1589380825.6155336,-0.36,-2.72,9.01,0.5288888888888889,0.0011111111111111113,-0.7922222222222223,-0.6875,-3.0,32.4375
1589380825.6223905,-0.36,-2.66,9.01,0.5366666666666666,0.0011111111111111113,-0.7911111111111111,-0.5625,-3.0625,34.8125
1589380825.6328075,-0.4,-2.68,8.98,0.5366666666666666,0.0011111111111111113,-0.7911111111111111,-0.5625,-3.0,37.25
1589380825.647785,-0.46,-2.69,8.85,0.5366666666666666,0.0011111111111111113,-0.7911111111111111,-0.6875,-3.1875,39.5625
1589380825.654505,-0.51,-2.69,8.9,0.5366666666666666,0.0011111111111111113,-0.7911111111111111,-1.0625,-3.125,42.6875
1589380825.6700573,-0.46,-2.78,8.95,0.5366666666666666,0.0011111111111111113,-0.7911111111111111,-1.125,-3.9375,46.4375
1589380825.676243,-0.43,-2.84,8.96,0.5244444444444445,-0.017777777777777778,-0.8044444444444444,-1.125,-4.3125,49.5
1589380825.6842804,-0.41,-2.85,8.99,0.5244444444444445,-0.017777777777777778,-0.8044444444444444,-1.25,-4.75,51.1875
1589380825.6948435,-0.45,-2.85,8.91,0.5244444444444445,-0.017777777777777778,-0.8044444444444444,-1.1875,-5.0,51.875
1589380825.7051108,-0.41,-2.92,8.92,0.5244444444444445,-0.017777777777777778,-0.8044444444444444,-1.5,-5.0,52.1875
1589380825.7156491,-0.42,-2.93,8.94,0.5244444444444445,-0.017777777777777778,-0.8044444444444444,-1.25,-5.0,51.875
1589380825.726623,-0.4,-2.91,8.98,0.5288888888888889,-0.04444444444444445,-0.8266666666666667,-1.3125,-5.0625,51.0625
1589380825.7334461,-0.4,-2.91,8.99,0.5288888888888889,-0.04444444444444445,-0.8266666666666667,-1.3125,-4.625,49.4375
1589380825.7484555,-0.44,-2.94,8.87,0.5288888888888889,-0.04444444444444445,-0.8266666666666667,-1.0625,-4.3125,47.6875
1589380825.7544036,-0.45,-2.98,8.89,0.5288888888888889,-0.04444444444444445,-0.8266666666666667,-1.125,-3.9375,45.9375
1589380825.7676167,-0.47,-2.97,8.92,0.5288888888888889,-0.04444444444444445,-0.8266666666666667,-1.0625,-3.6875,43.9375
1589380825.773456,-0.49,-2.93,8.96,0.5166666666666667,-0.06333333333333334,-0.8266666666666667,-1.125,-3.5,41.875
1589380825.7847178,-0.5,-2.92,8.93,0.5166666666666667,-0.06333333333333334,-0.8266666666666667,-1.0625,-3.5,39.9375
1589380825.7938151,-0.49,-2.99,8.85,0.5166666666666667,-0.06333333333333334,-0.8266666666666667,-0.9375,-3.5,38.3125
1589380825.8079402,-0.5,-2.93,8.86,0.5166666666666667,-0.06333333333333334,-0.8266666666666667,-1.0625,-3.625,36.4375
1589380825.8166914,-0.55,-3.0,8.95,0.5166666666666667,-0.06333333333333334,-0.8266666666666667,-1.1875,-3.3125,34.25
1589380825.8272686,-0.55,-3.0,8.97,0.49,-0.09,-0.8333333333333334,-1.0,-3.0625,32.4375
1589380825.8350387,-0.59,-2.95,8.98,0.49,-0.09,-0.8333333333333334,-0.6875,-2.75,30.5625
1589380825.8469975,-0.6,-3.01,8.88,0.49,-0.09,-0.8333333333333334,-0.625,-2.5625,29.25
1589380825.859988,-0.63,-3.05,8.94,0.49,-0.09,-0.8333333333333334,-0.8125,-2.0625,27.6875
1589380825.8670652,-0.63,-2.98,8.94,0.49,-0.09,-0.8333333333333334,-0.6875,-2.0,26.3125
1589380825.8795154,-0.7,-2.97,8.94,0.4577777777777778,-0.13666666666666666,-0.8266666666666667,-0.75,-2.0,25.4375
1589380825.8862624,-0.67,-3.02,8.91,0.4577777777777778,-0.13666666666666666,-0.8266666666666667,-0.625,-2.1875,25.375
1589380825.9000573,-0.71,-3.02,8.81,0.4577777777777778,-0.13666666666666666,-0.8266666666666667,-0.75,-2.3125,25.1875
1589380825.9066017,-0.73,-3.03,8.87,0.4577777777777778,-0.13666666666666666,-0.8266666666666667,-0.6875,-2.0,24.8125
1589380825.917198,-0.76,-3.15,8.91,0.4577777777777778,-0.13666666666666666,-0.8266666666666667,-0.8125,-2.3125,25.4375
1589380825.92354,-0.8,-3.13,8.93,0.4455555555555555,-0.20444444444444448,-0.7977777777777778,-0.875,-2.125,26.0625
1589380825.9384346,-0.78,-3.14,8.96,0.4455555555555555,-0.20444444444444448,-0.7977777777777778,-0.75,-2.125,27.375
1589380825.9452016,-0.81,-3.17,8.86,0.4455555555555555,-0.20444444444444448,-0.7977777777777778,-0.9375,-2.3125,28.75
1589380825.9589105,-0.82,-3.17,8.91,0.4455555555555555,-0.20444444444444448,-0.7977777777777778,-1.0,-2.375,29.75
1589380825.9666495,-0.85,-3.18,8.92,0.4455555555555555,-0.20444444444444448,-0.7977777777777778,-1.0,-2.25,30.6875
1589380825.977795,-0.83,-3.21,8.9,0.4133333333333333,-0.2311111111111111,-0.7833333333333333,-1.1875,-2.5,31.875
1589380825.9848998,-0.89,-3.26,8.93,0.4133333333333333,-0.2311111111111111,-0.7833333333333333,-1.3125,-2.5,32.75
1589380825.9952009,-0.83,-3.16,8.81,0.4133333333333333,-0.2311111111111111,-0.7833333333333333,-1.1875,-2.5625,33.3125
1589380826.0054324,-0.86,-3.12,8.79,0.4133333333333333,-0.2311111111111111,-0.7833333333333333,-1.5,-2.875,33.625
1589380826.0167346,-0.85,-3.12,8.88,0.4133333333333333,-0.2311111111111111,-0.7833333333333333,-1.5625,-2.75,33.75
1589380826.0242414,-0.85,-3.14,8.93,0.4488888888888889,-0.2577777777777778,-0.7555555555555555,-1.8125,-2.75,33.875
1589380826.0344045,-0.85,-3.11,8.89,0.4488888888888889,-0.2577777777777778,-0.7555555555555555,-1.8125,-2.6875,33.6875
1589380826.045397,-0.87,-3.15,8.85,0.4488888888888889,-0.2577777777777778,-0.7555555555555555,-1.9375,-2.75,33.5625
1589380826.057647,-1.01,-3.41,9.09,0.4488888888888889,-0.2577777777777778,-0.7555555555555555,-1.8125,-2.75,33.625
1589380826.0678942,-0.87,-3.16,8.91,0.4488888888888889,-0.2577777777777778,-0.7555555555555555,-2.125,-1.6875,33.75
1589380826.0748384,-0.88,-3.21,8.99,0.4711111111111111,-0.27111111111111114,-0.7122222222222222,-2.0625,-2.6875,33.625
1589380826.0890346,-0.91,-3.23,8.89,0.4711111111111111,-0.27111111111111114,-0.7122222222222222,-1.9375,-2.125,33.0625
1589380826.0960755,-0.91,-3.25,8.76,0.4711111111111111,-0.27111111111111114,-0.7122222222222222,-1.9375,-2.0625,31.875
1589380826.1092489,-0.94,-3.29,8.86,0.4711111111111111,-0.27111111111111114,-0.7122222222222222,-1.875,-1.75,30.4375
1589380826.1171286,-0.95,-3.26,8.88,0.4711111111111111,-0.27111111111111114,-0.7122222222222222,-2.0,-1.75,28.75
1589380826.1277952,-0.96,-3.35,8.91,0.5066666666666667,-0.27,-0.6977777777777778,-1.75,-1.4375,27.0
1589380826.1346922,-1.04,-3.37,8.91,0.5066666666666667,-0.27,-0.6977777777777778,-1.6875,-1.375,24.75
1589380826.1455472,-1.02,-3.36,8.82,0.5066666666666667,-0.27,-0.6977777777777778,-1.5,-1.25,22.5
1589380826.155515,-1.0,-3.34,8.89,0.5066666666666667,-0.27,-0.6977777777777778,-1.5625,-0.8125,19.75
1589380826.1674936,-1.13,-3.46,8.89,0.5066666666666667,-0.27,-0.6977777777777778,-1.1875,-0.8125,16.75
1589380826.1748278,-0.98,-3.26,8.97,0.5377777777777778,-0.2611111111111111,-0.67,-0.8125,-0.375,13.6875
1589380826.1852,-1.04,-3.37,8.91,0.5377777777777778,-0.2611111111111111,-0.67,-0.9375,-0.25,9.6875
1589380826.195585,-1.07,-3.26,8.78,0.5377777777777778,-0.2611111111111111,-0.67,-1.0625,-0.125,4.875
1589380826.2082586,-1.14,-3.31,8.85,0.5377777777777778,-0.2611111111111111,-0.67,-0.25,0.625,1.6875
1589380826.2230494,-1.12,-3.31,8.89,0.5377777777777778,-0.2611111111111111,-0.67,-0.25,0.625,-0.875
1589380826.2300055,-1.15,-3.35,8.91,0.5844444444444444,-0.22666666666666666,-0.6766666666666666,-0.375,0.5625,-2.875
1589380826.241217,-1.14,-3.29,8.92,0.5844444444444444,-0.22666666666666666,-0.6766666666666666,-0.25,0.625,-5.3125
1589380826.2477398,-1.21,-3.26,8.84,0.5844444444444444,-0.22666666666666666,-0.6766666666666666,-0.125,0.75,-7.375
1589380826.259512,-1.22,-3.28,8.89,0.5844444444444444,-0.22666666666666666,-0.6766666666666666,-0.0625,0.9375,-8.75
1589380826.2680044,-1.23,-3.27,8.88,0.5844444444444444,-0.22666666666666666,-0.6766666666666666,0.0625,1.0,-9.75
1589380826.2762365,-1.21,-3.23,8.94,0.6377777777777778,-0.16444444444444445,-0.7266666666666667,0.25,1.125,-10.875
1589380826.2867825,-1.26,-3.28,8.91,0.6377777777777778,-0.16444444444444445,-0.7266666666666667,0.3125,1.3125,-12.0
1589380826.2969244,-1.26,-3.28,8.79,0.6377777777777778,-0.16444444444444445,-0.7266666666666667,0.4375,1.625,-12.5625
1589380826.305939,-1.28,-3.34,8.82,0.6377777777777778,-0.16444444444444445,-0.7266666666666667,0.375,1.5625,-12.9375
1589380826.3198242,-1.32,-3.34,8.87,0.6377777777777778,-0.16444444444444445,-0.7266666666666667,0.375,1.5,-13.125
1589380826.3267262,-1.3,-3.34,8.93,0.7733333333333333,-0.17555555555555555,-0.9277777777777778,0.5,1.3125,-13.0625
1589380826.3373005,-1.27,-3.28,8.93,0.7733333333333333,-0.17555555555555555,-0.9277777777777778,0.4375,1.25,-13.0
1589380826.3468275,-1.31,-3.39,8.83,0.7733333333333333,-0.17555555555555555,-0.9277777777777778,0.5625,1.125,-12.75
1589380826.3589947,-1.38,-3.41,8.83,0.7733333333333333,-0.17555555555555555,-0.9277777777777778,0.5625,1.0625,-12.5
1589380826.3688128,-1.24,-3.34,8.89,0.7733333333333333,-0.17555555555555555,-0.9277777777777778,0.625,1.375,-11.4375
1589380826.379976,-1.21,-3.34,8.93,0.6,-0.3644444444444445,-0.7977777777777778,0.5625,0.9375,-9.8125
1589380826.3921332,-1.35,-3.37,8.84,0.6,-0.3644444444444445,-0.7977777777777778,0.75,1.25,-9.6875
1589380826.3986642,-1.25,-3.33,8.81,0.6,-0.3644444444444445,-0.7977777777777778,0.5625,0.8125,-7.3125
1589380826.4100366,-1.33,-3.37,8.87,0.6,-0.3644444444444445,-0.7977777777777778,0.4375,0.5,-5.5
1589380826.4184434,-1.3,-3.35,8.87,0.6,-0.3644444444444445,-0.7977777777777778,0.5,0.75,-4.4375
1589380826.4259665,-1.26,-3.33,8.91,0.5366666666666666,-0.27,-0.6911111111111111,0.4375,0.5,-2.8125
1589380826.4378526,-1.35,-3.39,8.88,0.5366666666666666,-0.27,-0.6911111111111111,0.5,0.3125,-1.4375
1589380826.450309,-1.41,-3.52,8.79,0.5366666666666666,-0.27,-0.6911111111111111,0.375,0.25,0.875
1589380826.4566536,-1.43,-3.59,8.86,0.5366666666666666,-0.27,-0.6911111111111111,0.1875,-0.25,3.6875
1589380826.4689512,-1.38,-3.52,8.89,0.5366666666666666,-0.27,-0.6911111111111111,0.125,-0.5,6.125
1589380826.4760385,-1.36,-3.49,8.92,0.5511111111111111,-0.21777777777777774,-0.6622222222222223,0.1875,-0.6875,8.8125
1589380826.4905725,-1.28,-3.45,8.92,0.5511111111111111,-0.21777777777777774,-0.6622222222222223,0.25,-0.75,11.3125
1589380826.4969435,-1.25,-3.44,8.81,0.5511111111111111,-0.21777777777777774,-0.6622222222222223,0.25,-0.8125,13.375
1589380826.508373,-1.23,-3.38,8.84,0.5511111111111111,-0.21777777777777774,-0.6622222222222223,0.0,-1.125,15.1875
1589380826.5187693,-1.27,-3.5,8.88,0.5511111111111111,-0.21777777777777774,-0.6622222222222223,-0.1875,-1.3125,16.5625
1589380826.5281482,-1.23,-3.49,8.85,0.5577777777777778,-0.18444444444444444,-0.6766666666666666,-0.1875,-1.5625,17.8125
1589380826.5365686,-1.18,-3.5,8.85,0.5577777777777778,-0.18444444444444444,-0.6766666666666666,0.0,-1.6875,18.5625
1589380826.5494983,-1.22,-3.54,8.8,0.5577777777777778,-0.18444444444444444,-0.6766666666666666,-0.125,-1.625,18.9375
1589380826.5626974,-1.17,-3.54,8.83,0.5577777777777778,-0.18444444444444444,-0.6766666666666666,-0.0625,-1.5625,18.5
1589380826.5693128,-1.17,-3.49,8.91,0.5577777777777778,-0.18444444444444444,-0.6766666666666666,-0.0625,-1.625,17.5625
1589380826.5768235,-1.13,-3.45,8.95,0.5433333333333333,-0.18444444444444444,-0.6622222222222223,0.0625,-1.3125,16.125
1589380826.588746,-1.08,-3.42,8.92,0.5433333333333333,-0.18444444444444444,-0.6622222222222223,0.125,-1.1875,14.625
1589380826.6012993,-1.08,-3.47,8.87,0.5433333333333333,-0.18444444444444444,-0.6622222222222223,0.125,-1.0625,12.5625
1589380826.607751,-1.11,-3.47,8.88,0.5433333333333333,-0.18444444444444444,-0.6622222222222223,0.5,-0.8125,9.9375
1589380826.6198206,-1.11,-3.45,8.88,0.5433333333333333,-0.18444444444444444,-0.6622222222222223,0.4375,-0.5,7.1875
1589380826.6270175,-1.09,-3.43,8.92,0.5688888888888889,-0.17333333333333334,-0.6766666666666666,0.5625,-0.3125,4.0
1589380826.641985,-1.09,-3.4,8.85,0.5688888888888889,-0.17333333333333334,-0.6766666666666666,0.5625,-0.125,0.75
1589380826.648724,-1.1,-3.39,8.77,0.5688888888888889,-0.17333333333333334,-0.6766666666666666,1.0,0.3125,-2.8125
1589380826.6576185,-1.05,-3.38,8.93,0.5688888888888889,-0.17333333333333334,-0.6766666666666666,1.125,0.5,-6.1875
1589380826.6698506,-1.01,-3.32,8.77,0.5688888888888889,-0.17333333333333334,-0.6766666666666666,1.3125,0.8125,-10.0
1589380826.6797807,-0.98,-3.2,8.94,0.5422222222222223,-0.15222222222222226,-0.6844444444444444,1.4375,1.6875,-18.0
1589380826.6879494,-1.09,-3.33,8.96,0.5422222222222223,-0.15222222222222226,-0.6844444444444444,1.4375,1.6875,-18.0
1589380826.7012804,-1.16,-3.38,8.83,0.5422222222222223,-0.15222222222222226,-0.6844444444444444,1.25,2.0,-21.6875
1589380826.713708,-1.19,-3.42,8.89,0.5422222222222223,-0.15222222222222226,-0.6844444444444444,1.25,2.625,-27.0
1589380826.720308,-1.19,-3.34,8.92,0.5422222222222223,-0.15222222222222226,-0.6844444444444444,1.25,2.75,-28.8125
1589380826.728017,-1.18,-3.31,8.93,0.5666666666666667,-0.16,-0.6933333333333334,1.4375,3.25,-29.9375
1589380826.7374105,-1.15,-3.3,8.94,0.5666666666666667,-0.16,-0.6933333333333334,1.4375,3.25,-30.9375
1589380826.7509265,-1.11,-3.25,8.85,0.5666666666666667,-0.16,-0.6933333333333334,1.4375,3.125,-31.5625
1589380826.7581475,-1.14,-3.3,8.89,0.5666666666666667,-0.16,-0.6933333333333334,1.4375,3.125,-32.0625
1589380826.7712429,-1.15,-3.32,8.92,0.5666666666666667,-0.16,-0.6933333333333334,1.375,3.125,-32.3125
1589380826.778605,-1.19,-3.33,8.95,0.6077777777777778,-0.14666666666666667,-0.6788888888888889,1.4375,3.125,-32.125
1589380826.7930381,-1.24,-3.43,8.89,0.6077777777777778,-0.14666666666666667,-0.6788888888888889,1.3125,3.1875,-31.4375
1589380826.7998853,-1.22,-3.45,8.81,0.6077777777777778,-0.14666666666666667,-0.6788888888888889,1.3125,3.0,-30.125
1589380826.8090465,-1.52,-3.42,8.65,0.6077777777777778,-0.14666666666666667,-0.6788888888888889,0.875,2.6875,-26.8125
1589380826.8203795,-1.18,-3.62,9.09,0.6077777777777778,-0.14666666666666667,-0.6788888888888889,1.0,2.0,-30.1875
1589380826.8311574,-1.56,-3.53,8.64,0.6466666666666666,-0.12777777777777774,-0.7144444444444444,2.1875,5.625,-29.0
1589380826.837392,-0.8,-3.64,8.95,0.6466666666666666,-0.12777777777777774,-0.7144444444444444,0.375,1.3125,-23.3125
1589380826.851872,-0.87,-3.57,8.87,0.6466666666666666,-0.12777777777777774,-0.7144444444444444,0.625,2.125,-25.0625
1589380826.8573391,-1.24,-3.57,8.88,0.6466666666666666,-0.12777777777777774,-0.7144444444444444,1.4375,3.5,-25.0
1589380826.8710716,-0.95,-3.4,8.85,0.6466666666666666,-0.12777777777777774,-0.7144444444444444,0.875,2.375,-21.375
1589380826.8767743,-0.7,-3.35,8.98,0.8777777777777778,-0.14,-0.7355555555555555,0.4375,1.5,-21.8125
1589380826.8870466,-0.7,-3.35,8.98,0.8777777777777778,-0.14,-0.7355555555555555,0.4375,1.5,-21.8125
1589380826.8931894,-0.82,-3.31,8.84,0.8777777777777778,-0.14,-0.7355555555555555,1.0625,2.9375,-24.3125
1589380826.9004748,-0.83,-3.38,8.8,0.8777777777777778,-0.14,-0.7355555555555555,1.0625,3.0,-25.8125
1589380826.912302,-0.73,-3.37,8.79,0.8777777777777778,-0.14,-0.7355555555555555,0.6875,2.5,-27.5
1589380826.9252152,-0.74,-3.39,8.93,0.8777777777777778,-0.14,-0.7355555555555555,1.0,3.0,-31.3125
1589380826.9315813,-0.84,-3.21,8.91,1.6811111111111108,-0.17555555555555555,-1.1155555555555556,1.1875,3.9375,-33.9375
1589380826.9441605,-0.84,-3.22,8.91,1.6811111111111108,-0.17555555555555555,-1.1155555555555556,0.6875,3.9375,-35.375
1589380826.9500566,-0.82,-3.17,8.86,1.6811111111111108,-0.17555555555555555,-1.1155555555555556,1.0,3.75,-35.4375
1589380826.9599338,-0.91,-3.12,8.91,1.6811111111111108,-0.17555555555555555,-1.1155555555555556,0.9375,3.75,-34.0625
1589380826.971174,-0.89,-3.11,8.89,1.6811111111111108,-0.17555555555555555,-1.1155555555555556,1.125,3.125,-30.875
1589380826.9825811,-1.0,-3.25,9.01,1.1155555555555556,-0.5311111111111111,-0.88,1.0,2.9375,-26.875
1589380826.988536,-1.01,-3.21,8.93,1.1155555555555556,-0.5311111111111111,-0.88,1.0,2.5625,-21.875
1589380827.0001357,-0.97,-3.22,8.84,1.1155555555555556,-0.5311111111111111,-0.88,0.6875,2.0,-15.8125
1589380827.0087144,-0.95,-3.23,8.85,1.1155555555555556,-0.5311111111111111,-0.88,0.75,1.4375,-10.0625
1589380827.0210626,-0.88,-3.18,8.93,1.1155555555555556,-0.5311111111111111,-0.88,0.375,1.0,-5.3125
1589380827.0284786,-0.74,-3.12,8.96,0.7066666666666667,-0.20222222222222225,-0.7355555555555555,0.5625,0.5,-2.8125
1589380827.03912,-0.7,-3.16,8.94,0.7066666666666667,-0.20222222222222225,-0.7355555555555555,0.4375,0.5,-1.4375
1589380827.048927,-0.69,-3.15,8.84,0.7066666666666667,-0.20222222222222225,-0.7355555555555555,0.375,0.3125,-1.4375
1589380827.0597622,-0.72,-3.25,8.88,0.7066666666666667,-0.20222222222222225,-0.7355555555555555,0.4375,0.6875,-1.5625
1589380827.0744483,-0.76,-3.44,8.86,0.7066666666666667,-0.20222222222222225,-0.7355555555555555,0.5,0.4375,-0.125
1589380827.0803316,-0.76,-3.58,8.89,0.5844444444444444,-0.10777777777777778,-0.7211111111111111,0.375,0.0625,2.8125
1589380827.088507,-0.79,-3.73,8.95,0.5844444444444444,-0.10777777777777778,-0.7211111111111111,0.3125,0.0625,6.0625
1589380827.1001694,-0.62,-3.74,8.75,0.5844444444444444,-0.10777777777777778,-0.7211111111111111,0.5,-0.125,9.3125
1589380827.109096,-0.32,-3.33,8.84,0.5844444444444444,-0.10777777777777778,-0.7211111111111111,-0.375,-0.9375,9.0625
1589380827.120334,-0.26,-3.1,8.98,0.5844444444444444,-0.10777777777777778,-0.7211111111111111,0.125,-0.5625,4.6875
1589380827.131159,-0.34,-2.95,9.0,0.5733333333333334,-0.08666666666666667,-0.7066666666666667,0.125,0.3125,-2.4375
1589380827.1384773,-0.42,-2.89,8.91,0.5733333333333334,-0.08666666666666667,-0.7066666666666667,0.4375,0.9375,-9.25
1589380827.1531644,-0.6,-3.09,8.89,0.5733333333333334,-0.08666666666666667,-0.7066666666666667,0.75,1.875,-14.375
1589380827.1593099,-0.59,-3.26,8.88,0.5733333333333334,-0.08666666666666667,-0.7066666666666667,0.9375,2.1875,-16.4375
1589380827.1723335,-0.6,-3.31,8.89,0.5733333333333334,-0.08666666666666667,-0.7066666666666667,0.875,2.125,-16.75
1589380827.1790571,-0.65,-3.34,8.92,0.5755555555555556,-0.08444444444444445,-0.6933333333333334,0.6875,2.0,-17.1875
1589380827.189115,-0.57,-3.34,8.94,0.5755555555555556,-0.08444444444444445,-0.6933333333333334,0.75,1.875,-17.375
1589380827.2001455,-0.59,-3.44,8.84,0.5755555555555556,-0.08444444444444445,-0.6933333333333334,0.75,1.9375,-17.5
1589380827.2102606,-0.48,-3.49,8.88,0.5755555555555556,-0.08444444444444445,-0.6933333333333334,1.1875,2.3125,-19.0
1589380827.2210276,-0.75,-3.76,8.91,0.5755555555555556,-0.08444444444444445,-0.6933333333333334,1.375,2.8125,-21.1875
1589380827.2292151,-0.89,-4.02,8.89,0.5377777777777778,-0.09,-0.6933333333333334,0.9375,2.8125,-19.3125
1589380827.2394712,-0.98,-4.29,8.88,0.5377777777777778,-0.09,-0.6933333333333334,1.3125,2.4375,-12.5
1589380827.2512689,-0.96,-5.17,8.63,0.5377777777777778,-0.09,-0.6933333333333334,1.0625,1.5,-1.9375
1589380827.258918,-12.31,-16.55,4.35,0.5377777777777778,-0.09,-0.6933333333333334,-0.1875,1.0625,8.75
1589380827.2728784,-9.07,0.72,-2.53,0.5377777777777778,-0.09,-0.6933333333333334,-37.1875,33.5,-145.75
1589380827.2789276,3.44,3.08,2.8,0.5455555555555556,-0.017777777777777778,-0.6577777777777778,-48.0,27.125,-286.375
1589380827.291258,-1.15,-2.51,21.38,0.5455555555555556,-0.017777777777777778,-0.6577777777777778,-22.5625,8.5,-299.4375
1589380827.304115,0.75,-0.9,3.42,0.5455555555555556,-0.017777777777777778,-0.6577777777777778,82.125,10.0625,-288.6875
1589380827.3102288,-1.72,0.38,12.52,0.5455555555555556,-0.017777777777777778,-0.6577777777777778,56.1875,67.4375,-277.0625
1589380827.3258474,-0.63,-0.89,9.92,0.5455555555555556,-0.017777777777777778,-0.6577777777777778,-4.625,19.0625,-254.0625
1589380827.3315485,-0.98,0.13,9.42,0.52,0.06222222222222223,-0.65,6.875,17.1875,-218.0
1589380827.3433485,-2.03,0.38,8.98,0.52,0.06222222222222223,-0.65,5.0,18.8125,-192.0625
1589380827.3496895,-1.7,0.19,9.4,0.52,0.06222222222222223,-0.65,3.6875,13.1875,-145.5
1589380827.3616867,-0.88,0.21,9.39,0.52,0.06222222222222223,-0.65,3.6875,10.3125,-101.1875
1589380827.371392,-0.17,0.08,9.06,0.52,0.06222222222222223,-0.65,2.125,6.375,-60.8125
1589380827.3835733,1.26,-0.49,9.26,0.4566666666666666,0.10666666666666667,-0.6644444444444444,-0.875,0.5625,-28.9375
1589380827.3899224,0.45,-2.25,8.8,0.4566666666666666,0.10666666666666667,-0.6644444444444444,-1.375,-0.0625,-16.5625
1589380827.4001644,0.07,-2.58,8.83,0.4566666666666666,0.10666666666666667,-0.6644444444444444,0.25,1.8125,-6.375
1589380827.4101384,-0.04,-2.8,8.91,0.4566666666666666,0.10666666666666667,-0.6644444444444444,0.125,0.3125,7.5625
1589380827.4223425,-0.05,-2.91,8.99,0.4566666666666666,0.10666666666666667,-0.6644444444444444,0.3125,-0.5,20.4375
1589380827.433793,-0.09,-2.88,8.87,0.4577777777777778,0.13444444444444445,-0.6488888888888888,-0.75,-2.875,31.625
1589380827.440148,-0.11,-2.94,9.02,0.4577777777777778,0.13444444444444445,-0.6488888888888888,-1.25,-3.75,41.0
1589380827.4553626,-0.01,-2.9,8.9,0.4577777777777778,0.13444444444444445,-0.6488888888888888,-1.0,-4.6875,48.6875
1589380827.4621544,0.24,-2.94,9.08,0.4577777777777778,0.13444444444444445,-0.6488888888888888,-1.1875,-5.4375,50.875
1589380827.4768314,0.27,-2.99,8.97,0.4577777777777778,0.13444444444444445,-0.6488888888888888,-1.4375,-5.0625,47.1875
1589380827.4823616,-0.1,-3.13,8.91,0.4511111111111111,0.14888888888888888,-0.6555555555555556,-0.75,-3.3125,44.3125
1589380827.494649,-0.14,-3.1,8.88,0.4511111111111111,0.14888888888888888,-0.6555555555555556,-1.8125,-4.5,47.4375
1589380827.5011392,0.0,-3.12,8.86,0.4511111111111111,0.14888888888888888,-0.6555555555555556,-1.0,-4.5,53.3125
1589380827.51222,0.01,-3.07,8.91,0.4511111111111111,0.14888888888888888,-0.6555555555555556,-1.125,-5.3125,56.5625
1589380827.5233302,-0.13,-3.2,8.95,0.4511111111111111,0.14888888888888888,-0.6555555555555556,-0.75,-4.875,59.0
1589380827.5350773,-0.27,-3.32,8.97,0.4511111111111111,0.13444444444444445,-0.6611111111111111,-1.1875,-5.5,63.625
1589380827.5410526,-0.22,-3.33,8.87,0.4511111111111111,0.13444444444444445,-0.6611111111111111,-1.9375,-6.5,70.6875
1589380827.5535975,-0.14,-3.28,8.73,0.4511111111111111,0.13444444444444445,-0.6611111111111111,-2.1875,-7.8125,76.5625
1589380827.5618055,-0.12,-3.31,8.85,0.4511111111111111,0.13444444444444445,-0.6611111111111111,-2.0,-7.625,80.6875
1589380827.573694,-0.01,-3.37,8.99,0.4511111111111111,0.13444444444444445,-0.6611111111111111,-1.875,-8.125,83.125
1589380827.579873,0.04,-3.45,8.99,0.4722222222222222,0.12444444444444445,-0.64,-1.75,-8.375,83.75
1589380827.5919242,0.04,-3.45,8.99,0.4722222222222222,0.12444444444444445,-0.64,-1.75,-8.375,83.75
1589380827.6007445,-0.66,-1.13,7.66,0.4722222222222222,0.12444444444444445,-0.64,5.0625,-1.4375,-19.4375
1589380827.6124337,-0.61,-2.39,9.09,0.4722222222222222,0.12444444444444445,-0.64,7.75,14.875,-23.5
1589380827.6228,-0.36,-3.0,9.22,0.4722222222222222,0.12444444444444445,-0.64,-1.8125,-0.9375,-10.0
1589380827.633918,-0.04,-3.67,8.98,0.5255555555555556,0.10444444444444444,-0.6466666666666666,0.9375,1.125,2.4375
1589380827.6460981,-0.26,-3.51,9.58,0.5255555555555556,0.10444444444444444,-0.6466666666666666,-0.5,-1.5,0.125
1589380827.6526113,-0.44,-4.12,8.44,0.5255555555555556,0.10444444444444444,-0.6466666666666666,1.0,2.625,0.0625
1589380827.6650705,-0.19,-4.08,8.8,0.5255555555555556,0.10444444444444444,-0.6466666666666666,0.0,0.1875,0.0625
1589380827.6731505,-0.25,-4.08,8.83,0.5255555555555556,0.10444444444444444,-0.6466666666666666,0.25,-0.1875,0.125
1589380827.686179,-0.24,-4.11,8.91,0.4844444444444445,0.1111111111111111,-0.6611111111111111,0.1875,0.25,0.0
1589380827.6920516,-0.24,-4.0,8.87,0.4844444444444445,0.1111111111111111,-0.6611111111111111,0.1875,0.0,-0.0625
1589380827.702214,-0.28,-4.1,8.73,0.4844444444444445,0.1111111111111111,-0.6611111111111111,-0.125,0.25,0.0625
1589380827.711481,-0.22,-4.06,8.79,0.4844444444444445,0.1111111111111111,-0.6611111111111111,-0.1875,0.125,-0.0625
1589380827.7255733,-0.23,-4.06,8.84,0.4844444444444445,0.1111111111111111,-0.6611111111111111,0.0,0.25,0.0
1589380827.7318065,-0.24,-4.03,8.92,0.5111111111111111,0.11888888888888888,-0.6466666666666666,0.1875,0.0,0.0
1589380827.7423427,-0.24,-4.05,8.87,0.5111111111111111,0.11888888888888888,-0.6466666666666666,-0.25,0.0625,0.0625
1589380827.7519488,-0.26,-4.06,8.72,0.5111111111111111,0.11888888888888888,-0.6466666666666666,-0.25,0.0,-0.125
1589380827.763687,-0.24,-4.14,8.78,0.5111111111111111,0.11888888888888888,-0.6466666666666666,-0.25,0.1875,-0.0625
1589380827.779928,-0.24,-4.04,8.84,0.5111111111111111,0.11888888888888888,-0.6466666666666666,0.25,-0.125,0.0
1589380827.7859356,-0.26,-4.08,8.86,0.4988888888888889,0.11888888888888888,-0.6611111111111111,0.4375,0.125,0.0625
1589380827.7930536,-0.24,-4.03,8.85,0.4988888888888889,0.11888888888888888,-0.6611111111111111,0.3125,0.0625,0.0
1589380827.8046176,-0.24,-4.06,8.77,0.4988888888888889,0.11888888888888888,-0.6611111111111111,-0.25,0.25,-0.0625
1589380827.8172946,-0.24,-4.08,8.82,0.4988888888888889,0.11888888888888888,-0.6611111111111111,-0.1875,0.25,0.125
1589380827.825372,-0.24,-4.08,8.89,0.4988888888888889,0.11888888888888888,-0.6611111111111111,0.0,0.25,0.125
1589380827.837466,-0.24,-4.04,8.87,0.4988888888888889,0.1111111111111111,-0.6611111111111111,0.125,0.3125,-0.0625
1589380827.844067,-0.24,-4.07,8.87,0.4988888888888889,0.1111111111111111,-0.6611111111111111,-0.125,0.125,0.0
1589380827.8572252,-0.24,-4.05,8.79,0.4988888888888889,0.1111111111111111,-0.6611111111111111,-0.0625,0.0,-0.0625
1589380827.8633313,-0.24,-4.08,8.8,0.4988888888888889,0.1111111111111111,-0.6611111111111111,-0.125,0.125,0.0
1589380827.8750865,-0.24,-4.07,8.84,0.4988888888888889,0.1111111111111111,-0.6611111111111111,0.1875,0.0,-0.0625
1589380827.8832257,-0.24,-4.07,8.84,0.5066666666666667,0.1111111111111111,-0.6322222222222222,0.125,0.1875,-0.1875
1589380827.893311,-0.25,-4.05,8.83,0.5066666666666667,0.1111111111111111,-0.6322222222222222,0.375,0.125,0.125
1589380827.9025528,-0.22,-4.07,8.75,0.5066666666666667,0.1111111111111111,-0.6322222222222222,0.0,0.0625,0.0625
1589380827.9144213,-0.24,-4.05,8.8,0.5066666666666667,0.1111111111111111,-0.6322222222222222,-0.3125,0.0625,-0.125
1589380827.9249613,-0.23,-4.08,8.79,0.5066666666666667,0.1111111111111111,-0.6322222222222222,-0.3125,0.125,-0.0625
1589380827.9361215,-0.27,-4.06,8.88,0.5066666666666667,0.12444444444444445,-0.6611111111111111,0.0625,0.1875,0.0
1589380827.9428694,-0.26,-4.07,8.88,0.5066666666666667,0.12444444444444445,-0.6611111111111111,0.125,0.125,0.0
1589380827.952565,-0.26,-4.04,8.78,0.5066666666666667,0.12444444444444445,-0.6611111111111111,0.1875,0.125,0.0
1589380827.9662461,-0.24,-4.08,8.76,0.5066666666666667,0.12444444444444445,-0.6611111111111111,-0.25,0.125,0.0
1589380827.975834,-0.24,-4.06,8.81,0.5066666666666667,0.12444444444444445,-0.6611111111111111,0.0,0.0,0.0
1589380827.9885633,-0.22,-4.07,8.86,0.5255555555555556,0.1111111111111111,-0.6611111111111111,0.0625,0.0625,-0.0625
1589380827.9953465,-0.24,-4.02,8.88,0.5255555555555556,0.1111111111111111,-0.6611111111111111,0.1875,0.1875,0.0625
1589380828.0088325,-0.23,-4.07,8.79,0.5255555555555556,0.1111111111111111,-0.6611111111111111,0.125,-0.0625,0.0
1589380828.0158145,-0.23,-4.07,8.8,0.5255555555555556,0.1111111111111111,-0.6611111111111111,-0.0625,0.0625,0.0
1589380828.0276418,-0.24,-4.08,8.82,0.5255555555555556,0.1111111111111111,-0.6611111111111111,-0.1875,0.0625,0.125
1589380828.034476,-0.22,-4.05,8.84,0.4988888888888889,0.11888888888888888,-0.6533333333333333,0.0625,0.25,0.0625
1589380828.0472302,-0.24,-4.05,8.83,0.4988888888888889,0.11888888888888888,-0.6533333333333333,0.0625,0.0625,0.0
1589380828.0532825,-0.25,-4.07,8.77,0.4988888888888889,0.11888888888888888,-0.6533333333333333,0.0625,0.25,0.0
1589380828.0674384,-0.24,-4.06,8.79,0.4988888888888889,0.11888888888888888,-0.6533333333333333,0.0,0.25,0.0
1589380828.0761664,-0.24,-4.08,8.83,0.4988888888888889,0.11888888888888888,-0.6533333333333333,-0.0625,0.1875,0.1875
1589380828.088104,-0.24,-4.06,8.86,0.5255555555555556,0.10444444444444444,-0.6677777777777778,-0.1875,0.25,0.0
1589380828.0938056,-0.24,-4.08,8.86,0.5255555555555556,0.10444444444444444,-0.6677777777777778,0.125,0.3125,0.1875
1589380828.1036036,-0.24,-4.07,8.78,0.5255555555555556,0.10444444444444444,-0.6677777777777778,0.0,0.1875,0.0625
1589380828.1138573,-0.24,-4.06,8.81,0.5255555555555556,0.10444444444444444,-0.6677777777777778,0.0625,0.25,-0.0625
1589380828.1257904,-0.25,-4.08,8.83,0.5255555555555556,0.10444444444444444,-0.6677777777777778,0.0625,0.25,0.0
1589380828.1343715,-0.27,-4.06,8.87,0.4922222222222222,0.09777777777777777,-0.6466666666666666,-0.0625,0.25,-0.1875
1589380828.1447787,-0.24,-4.04,8.88,0.4922222222222222,0.09777777777777777,-0.6466666666666666,0.0625,0.3125,0.0625
1589380828.15464,-0.25,-4.06,8.77,0.4922222222222222,0.09777777777777777,-0.6466666666666666,0.25,0.125,0.0625
1589380828.1648798,-0.24,-4.06,8.81,0.4922222222222222,0.09777777777777777,-0.6466666666666666,0.0,0.25,0.0625
1589380828.1765664,-0.25,-4.06,8.87,0.4922222222222222,0.09777777777777777,-0.6466666666666666,0.0,0.3125,-0.0625
1589380828.1840475,-0.24,-4.07,8.88,0.4988888888888889,0.1111111111111111,-0.6611111111111111,-0.125,0.125,0.0
1589380828.1980224,-0.22,-4.06,8.85,0.4988888888888889,0.1111111111111111,-0.6611111111111111,0.0,0.0,-0.0625
1589380828.2040465,-0.23,-4.06,8.76,0.4988888888888889,0.1111111111111111,-0.6611111111111111,0.125,0.0625,0.0
1589380828.2180047,-0.24,-4.05,8.8,0.4988888888888889,0.1111111111111111,-0.6611111111111111,0.0625,0.125,0.0625
1589380828.226655,-0.24,-4.04,8.86,0.4988888888888889,0.1111111111111111,-0.6611111111111111,0.0,0.0,0.0625
1589380828.236273,-0.24,-4.06,8.87,0.5111111111111111,0.10444444444444444,-0.6533333333333333,0.125,0.3125,-0.125
1589380828.2445722,-0.26,-4.07,8.86,0.5111111111111111,0.10444444444444444,-0.6533333333333333,0.0,0.125,0.0625
1589380828.2546036,-0.23,-4.06,8.79,0.5111111111111111,0.10444444444444444,-0.6533333333333333,0.25,0.1875,0.0
1589380828.2648106,-0.24,-4.05,8.82,0.5111111111111111,0.10444444444444444,-0.6533333333333333,0.0,0.125,0.0
1589380828.2770815,-0.24,-4.08,8.85,0.5111111111111111,0.10444444444444444,-0.6533333333333333,0.0,0.125,-0.125
1589380828.285298,-0.24,-4.08,8.85,0.5066666666666667,0.09777777777777777,-0.6444444444444445,-0.0625,0.1875,-0.0625
1589380828.2957392,-0.24,-4.07,8.81,0.5066666666666667,0.09777777777777777,-0.6444444444444445,-0.0625,0.0625,0.0
1589380828.3044775,-0.26,-4.07,8.77,0.5066666666666667,0.09777777777777777,-0.6444444444444445,0.0625,0.1875,0.0
1589380828.3144145,-0.24,-4.05,8.79,0.5066666666666667,0.09777777777777777,-0.6444444444444445,0.1875,0.125,0.0
1589380828.3302364,-0.24,-4.04,8.85,0.5066666666666667,0.09777777777777777,-0.6444444444444445,0.0,0.25,0.0625
1589380828.3367336,-0.24,-4.05,8.86,0.4922222222222222,0.1111111111111111,-0.6533333333333333,0.125,0.0625,0.125
1589380828.3488624,-0.23,-4.07,8.85,0.4922222222222222,0.1111111111111111,-0.6533333333333333,0.0,0.1875,0.0625
1589380828.370178,-0.26,-4.05,8.82,0.4922222222222222,0.1111111111111111,-0.6533333333333333,-0.0625,0.1875,0.0625
1589380828.37702,-0.25,-4.06,8.86,0.4922222222222222,0.1111111111111111,-0.6533333333333333,0.0,0.3125,0.0
1589380828.3851945,-0.24,-4.07,8.87,0.4844444444444445,0.1111111111111111,-0.6611111111111111,-0.125,0.0625,0.0
1589380828.3951733,-0.25,-4.08,8.86,0.4844444444444445,0.1111111111111111,-0.6611111111111111,-0.1875,-0.0625,0.0625
1589380828.4055285,-0.24,-4.06,8.76,0.4844444444444445,0.1111111111111111,-0.6611111111111111,0.0625,-0.125,0.125
1589380828.415483,-0.24,-4.05,8.81,0.4844444444444445,0.1111111111111111,-0.6611111111111111,0.125,0.25,0.0625
1589380828.427584,-0.23,-4.07,8.85,0.4844444444444445,0.1111111111111111,-0.6611111111111111,0.0625,0.0625,0.0625
1589380828.435617,-0.24,-4.08,8.88,0.4844444444444445,0.12444444444444445,-0.6533333333333333,0.0625,0.0,0.125
1589380828.445692,-0.25,-4.05,8.84,0.4844444444444445,0.12444444444444445,-0.6533333333333333,-0.0625,-0.25,0.0625
1589380828.4556224,-0.25,-4.06,8.75,0.4844444444444445,0.12444444444444445,-0.6533333333333333,-0.1875,-0.125,0.0
1589380828.4674304,-0.25,-4.07,8.79,0.4844444444444445,0.12444444444444445,-0.6533333333333333,0.0,-0.125,0.0
1589380828.4776578,-0.24,-4.05,8.84,0.4844444444444445,0.12444444444444445,-0.6533333333333333,0.0,-0.0625,0.125
1589380828.4890687,-0.25,-4.07,8.86,0.4988888888888889,0.1111111111111111,-0.64,0.0,0.0625,0.0
1589380828.500404,-0.25,-4.07,8.85,0.4988888888888889,0.1111111111111111,-0.64,-0.0625,0.25,-0.0625
1589380828.506072,-0.23,-4.07,8.77,0.4988888888888889,0.1111111111111111,-0.64,0.125,0.0,0.0625
1589380828.5160375,-0.24,-4.07,8.8,0.4988888888888889,0.1111111111111111,-0.64,0.1875,0.0,-0.0625
1589380828.5277324,-0.25,-4.06,8.87,0.4988888888888889,0.1111111111111111,-0.64,0.125,0.0625,0.1875
1589380828.5361054,-0.24,-4.08,8.88,0.5111111111111111,0.1111111111111111,-0.6444444444444445,0.0625,0.125,0.0625
1589380828.5479968,-0.24,-4.06,8.83,0.5111111111111111,0.1111111111111111,-0.6444444444444445,0.0,0.0,-0.0625
1589380828.558676,-0.24,-4.08,8.77,0.5111111111111111,0.1111111111111111,-0.6444444444444445,0.0,-0.0625,0.0
1589380828.565225,-0.25,-4.06,8.81,0.5111111111111111,0.1111111111111111,-0.6444444444444445,0.0,0.0,0.0
1589380828.5779994,-0.24,-4.06,8.83,0.5111111111111111,0.1111111111111111,-0.6444444444444445,0.0625,0.1875,0.125
1589380828.5855215,-0.24,-4.03,8.86,0.5255555555555556,0.1111111111111111,-0.6533333333333333,0.0625,0.0625,0.0
1589380828.5976524,-0.23,-4.05,8.86,0.5255555555555556,0.1111111111111111,-0.6533333333333333,0.0,0.0625,0.0
