time,acc_x,acc_y,acc_z,mag_x,mag_y,mag_z,gyr_x,gyr_y,gyr_z
1589381090.9836106,-0.4,-4.14,8.87,0.4833333333333333,0.31555555555555553,-0.7355555555555555,-4.8125,1.875,-6.25
1589381090.9957402,-0.39,-4.13,8.77,0.4833333333333333,0.31555555555555553,-0.7355555555555555,-9.125,3.25,8.9375
1589381091.0031762,-0.4,-4.15,8.84,0.4833333333333333,0.31555555555555553,-0.7355555555555555,-0.6875,3.5,-4.0
1589381091.0154743,-0.37,-4.14,8.88,0.4833333333333333,0.31555555555555553,-0.7355555555555555,-3.0625,2.125,5.375
1589381091.0226696,-0.37,-4.15,8.87,0.4888888888888889,0.33,-0.7288888888888889,5.1875,1.5,-2.0
1589381091.0328805,-0.38,-4.14,8.89,0.4888888888888889,0.33,-0.7288888888888889,-1.4375,1.875,-10.1875
1589381091.043716,-0.39,-4.13,8.77,0.4888888888888889,0.33,-0.7288888888888889,-1.9375,1.5,-0.25
1589381091.055562,-0.4,-4.15,8.78,0.4888888888888889,0.33,-0.7288888888888889,-6.4375,-0.375,5.5
1589381091.0660772,-0.4,-4.14,8.84,0.4888888888888889,0.33,-0.7288888888888889,1.1875,5.25,1.5
1589381091.0730386,-0.37,-4.12,8.85,0.5022222222222222,0.3233333333333333,-0.75,0.0625,1.0,-6.5
1589381091.0876565,-0.39,-4.15,8.79,0.5022222222222222,0.3233333333333333,-0.75,1.9375,-0.5,-2.5
1589381091.0934358,-0.39,-4.16,8.69,0.5022222222222222,0.3233333333333333,-0.75,-1.1875,-1.125,-2.375
1589381091.1034887,-0.4,-4.13,8.75,0.5022222222222222,0.3233333333333333,-0.75,-0.0625,4.0,0.25
1589381091.115841,-0.4,-4.15,8.9,0.5022222222222222,0.3233333333333333,-0.75,5.3125,-7.6875,3.75
1589381091.1268582,-0.4,-4.14,8.91,0.51,0.3233333333333333,-0.7355555555555555,-3.0625,-3.875,1.125
1589381091.1326265,-0.39,-4.14,8.9,0.51,0.3233333333333333,-0.7355555555555555,-7.0,1.875,5.375
1589381091.1434546,-0.37,-4.14,8.82,0.51,0.3233333333333333,-0.7355555555555555,3.0625,0.25,-2.25
1589381091.1535275,-0.35,-4.14,8.84,0.51,0.3233333333333333,-0.7355555555555555,-0.5625,-1.125,-0.5
1589381091.1662571,-0.38,-4.14,8.85,0.51,0.3233333333333333,-0.7355555555555555,-4.5625,2.875,-3.5
1589381091.1729848,-0.38,-4.16,8.88,0.51,0.3233333333333333,-0.7211111111111111,-1.6875,-7.9375,1.125
1589381091.184202,-0.4,-4.12,8.79,0.51,0.3233333333333333,-0.7211111111111111,1.6875,-7.8125,10.5625
1589381091.1943562,-0.39,-4.15,8.71,0.51,0.3233333333333333,-0.7211111111111111,-4.0625,-1.5,9.1875
1589381091.2040935,-0.39,-4.13,8.77,0.51,0.3233333333333333,-0.7211111111111111,8.0,3.25,-0.625
1589381091.2178636,-0.37,-4.13,8.8,0.51,0.3233333333333333,-0.7211111111111111,0.3125,2.875,6.0
1589381091.2244008,-0.39,-4.14,8.89,0.5022222222222222,0.3233333333333333,-0.7355555555555555,3.1875,-0.625,-7.3125
1589381091.2336779,-0.38,-4.13,8.87,0.5022222222222222,0.3233333333333333,-0.7355555555555555,-1.9375,8.6875,-4.0
1589381091.244791,-0.39,-4.16,8.78,0.5022222222222222,0.3233333333333333,-0.7355555555555555,5.4375,-2.625,-11.1875
1589381091.259375,-0.38,-4.14,8.81,0.5022222222222222,0.3233333333333333,-0.7355555555555555,7.375,-0.25,-1.5
1589381091.2669206,-0.35,-4.15,8.84,0.5022222222222222,0.3233333333333333,-0.7355555555555555,2.9375,-0.25,-4.0
1589381091.2752323,-0.41,-4.13,8.85,0.4955555555555556,0.33,-0.7288888888888889,-0.4375,-1.125,-1.0
1589381091.284834,-0.37,-4.17,8.84,0.4955555555555556,0.33,-0.7288888888888889,0.1875,-1.25,0.25
1589381091.298072,-0.38,-4.14,8.75,0.4955555555555556,0.33,-0.7288888888888889,-4.6875,1.875,1.625
1589381091.30394,-0.38,-4.16,8.82,0.4955555555555556,0.33,-0.7288888888888889,-0.0625,3.75,-5.25
1589381091.316775,-0.37,-4.14,8.87,0.4955555555555556,0.33,-0.7288888888888889,5.4375,3.375,-1.625
1589381091.3246033,-0.37,-4.14,8.9,0.4833333333333333,0.33,-0.7288888888888889,3.9375,-0.5,-3.375
1589381091.3362556,-0.36,-4.15,8.84,0.4833333333333333,0.33,-0.7288888888888889,3.0625,-3.0,-2.375
1589381091.3448455,-0.38,-4.15,8.75,0.4833333333333333,0.33,-0.7288888888888889,0.0625,-5.625,-2.125
1589381091.3562016,-0.35,-4.14,8.74,0.4833333333333333,0.33,-0.7288888888888889,-3.8125,-3.625,-1.25
1589381091.367042,-0.38,-4.14,8.81,0.4833333333333333,0.33,-0.7288888888888889,-4.9375,1.5,9.6875
1589381091.3744822,-0.39,-4.17,8.84,0.51,0.3233333333333333,-0.7288888888888889,-5.9375,0.75,6.75
1589381091.3851106,-0.38,-4.13,8.84,0.51,0.3233333333333333,-0.7288888888888889,5.9375,-0.75,0.375
1589381091.3949766,-0.38,-4.12,8.76,0.51,0.3233333333333333,-0.7288888888888889,2.4375,-3.375,-2.375
1589381091.4055574,-0.36,-4.15,8.82,0.51,0.3233333333333333,-0.7288888888888889,5.4375,2.75,4.75
1589381091.4171107,-0.35,-4.16,8.87,0.51,0.3233333333333333,-0.7288888888888889,-2.8125,-2.375,5.875
1589381091.4289432,-0.35,-4.14,8.87,0.4955555555555556,0.3088888888888889,-0.7422222222222222,-6.8125,-6.125,9.1875
1589381091.4358091,-0.4,-4.13,8.83,0.4955555555555556,0.3088888888888889,-0.7422222222222222,5.8125,1.75,-2.75
1589381091.4485545,-0.44,-4.12,8.75,0.4955555555555556,0.3088888888888889,-0.7422222222222222,5.4375,-0.875,0.0
1589381091.4546225,-0.49,-4.09,8.75,0.4955555555555556,0.3088888888888889,-0.7422222222222222,-0.4375,-2.75,0.0
1589381091.4672215,-0.55,-4.07,8.81,0.4955555555555556,0.3088888888888889,-0.7422222222222222,5.4375,0.375,-3.75
1589381091.4740868,-0.58,-4.09,8.91,0.5022222222222222,0.33,-0.7211111111111111,-2.6875,-4.625,4.375
1589381091.487711,-0.4,-4.11,8.86,0.5022222222222222,0.33,-0.7211111111111111,-0.6875,0.0,4.0
1589381091.4947212,-0.2,-4.15,8.75,0.5022222222222222,0.33,-0.7211111111111111,-4.3125,0.375,-6.125
1589381091.5076182,-0.07,-4.24,8.81,0.5022222222222222,0.33,-0.7211111111111111,1.6875,4.0,-0.25
1589381091.5166144,-0.22,-4.2,8.9,0.5022222222222222,0.33,-0.7211111111111111,6.0625,0.5,-4.125
1589381091.5244675,-0.44,-4.14,8.85,0.4955555555555556,0.33,-0.7211111111111111,-3.5625,-2.25,2.75
1589381091.5354724,-0.42,-4.16,8.88,0.4955555555555556,0.33,-0.7211111111111111,1.0625,1.375,0.0
1589381091.5475562,-0.51,-4.11,8.75,0.4955555555555556,0.33,-0.7211111111111111,-3.1875,-3.375,3.125
1589381091.554398,-0.63,-3.95,8.75,0.4955555555555556,0.33,-0.7211111111111111,1.6875,-2.375,1.125
1589381091.5672126,-1.27,-2.78,8.77,0.4955555555555556,0.33,-0.7211111111111111,0.5625,-1.0,19.75
1589381091.5737133,-0.25,-2.02,9.3,0.5022222222222222,0.33,-0.7288888888888889,-2.6875,-1.625,8.0625
1589381091.5857725,-0.52,-2.67,9.04,0.5022222222222222,0.33,-0.7288888888888889,5.3125,0.625,29.0
1589381091.5998135,-0.48,-2.85,8.84,0.5022222222222222,0.33,-0.7288888888888889,4.4375,-3.125,29.75
1589381091.6066039,-0.4,-2.97,8.88,0.5022222222222222,0.33,-0.7288888888888889,0.4375,-3.375,26.0625
1589381091.620135,-0.42,-3.11,8.9,0.5022222222222222,0.33,-0.7288888888888889,2.8125,0.125,19.375
1589381091.6262212,-0.33,-3.18,8.94,0.51,0.3422222222222222,-0.7422222222222222,3.0625,1.375,13.8125
1589381091.6361036,-0.4,-3.25,8.96,0.51,0.3422222222222222,-0.7422222222222222,-7.0,-4.875,19.125
1589381091.6454086,-0.49,-3.33,8.89,0.51,0.3422222222222222,-0.7422222222222222,-2.6875,-0.25,20.5
1589381091.6587234,-0.52,-3.4,8.9,0.51,0.3422222222222222,-0.7422222222222222,3.8125,1.875,28.0
1589381091.6671448,-0.58,-3.48,8.89,0.51,0.3422222222222222,-0.7422222222222222,-4.0625,-1.375,30.375
1589381091.678545,-0.56,-3.5,8.92,0.5022222222222222,0.31555555555555553,-0.7422222222222222,2.8125,1.25,17.5
1589381091.6856625,-0.46,-3.41,8.84,0.5022222222222222,0.31555555555555553,-0.7422222222222222,5.4375,3.75,30.25
1589381091.6957693,-0.44,-3.41,8.87,0.5022222222222222,0.31555555555555553,-0.7422222222222222,-0.6875,5.375,21.5625
1589381091.7064555,-0.41,-3.36,8.88,0.5022222222222222,0.31555555555555553,-0.7422222222222222,-8.375,-3.375,34.375
1589381091.7183714,-0.35,-3.33,8.87,0.5022222222222222,0.31555555555555553,-0.7422222222222222,0.3125,-5.125,17.5
1589381091.7255588,-0.42,-3.42,8.91,0.51,0.3233333333333333,-0.75,-6.1875,-1.5,23.3125
1589381091.7356198,-0.42,-3.45,8.91,0.51,0.3233333333333333,-0.75,0.1875,-2.375,30.625
1589381091.745697,-0.46,-3.45,8.83,0.51,0.3233333333333333,-0.75,-7.0,-3.625,14.25
1589381091.7573864,-0.51,-3.54,8.92,0.51,0.3233333333333333,-0.75,3.6875,1.625,17.0
1589381091.7732015,-0.55,-3.58,8.92,0.51,0.3233333333333333,-0.75,-4.8125,0.25,15.0
1589381091.779101,-0.57,-3.6,8.9,0.5022222222222222,0.3233333333333333,-0.7566666666666667,4.6875,-2.375,15.125
1589381091.7922337,-0.55,-3.57,8.9,0.5022222222222222,0.3233333333333333,-0.7566666666666667,-1.9375,1.125,24.9375
1589381091.798176,-0.61,-3.63,8.79,0.5022222222222222,0.3233333333333333,-0.7566666666666667,-5.6875,-0.875,20.5
1589381091.810373,-0.64,-3.58,8.83,0.5022222222222222,0.3233333333333333,-0.7566666666666667,0.1875,-8.5625,17.0
1589381091.8182561,-0.67,-3.59,8.9,0.5022222222222222,0.3233333333333333,-0.7566666666666667,1.9375,-3.5,19.125
1589381091.8297722,-0.67,-3.51,8.92,0.5155555555555555,0.31555555555555553,-0.7944444444444444,-4.1875,-0.625,26.0625
1589381091.8365154,-0.71,-3.52,8.87,0.5155555555555555,0.31555555555555553,-0.7944444444444444,-4.1875,0.875,16.625
1589381091.8468807,-0.74,-3.45,8.85,0.5155555555555555,0.31555555555555553,-0.7944444444444444,-6.0625,-2.0,22.0625
1589381091.856551,-0.75,-3.49,8.87,0.5155555555555555,0.31555555555555553,-0.7944444444444444,2.1875,1.875,29.25
1589381091.868501,-0.69,-3.47,8.94,0.5155555555555555,0.31555555555555553,-0.7944444444444444,0.9375,5.0,23.1875
1589381091.8756585,-0.73,-3.46,8.9,0.4755555555555556,0.31555555555555553,-0.8066666666666666,-2.1875,-1.0,26.6875
1589381091.8891885,-0.76,-3.49,8.9,0.4755555555555556,0.31555555555555553,-0.8066666666666666,-2.0625,-10.6875,32.25
1589381091.8997245,-0.78,-3.52,8.81,0.4755555555555556,0.31555555555555553,-0.8066666666666666,2.0625,-2.375,33.375
1589381091.9077795,-0.74,-3.6,8.86,0.4755555555555556,0.31555555555555553,-0.8066666666666666,0.6875,1.5,33.125
1589381091.923948,-0.76,-3.67,8.9,0.4755555555555556,0.31555555555555553,-0.8066666666666666,1.5625,1.5,28.75
1589381091.9304724,-0.75,-3.62,8.9,0.4622222222222222,0.3211111111111111,-0.8722222222222222,4.6875,1.125,26.9375
1589381091.9367232,-0.81,-3.62,8.86,0.4622222222222222,0.3211111111111111,-0.8722222222222222,-0.4375,0.0,29.75
1589381091.9492812,-0.79,-3.63,8.78,0.4622222222222222,0.3211111111111111,-0.8722222222222222,6.5625,1.0,31.0
1589381091.9588206,-0.84,-3.66,8.85,0.4622222222222222,0.3211111111111111,-0.8722222222222222,-1.1875,-5.75,37.4375
1589381091.9688325,-0.86,-3.66,8.91,0.4622222222222222,0.3211111111111111,-0.8722222222222222,2.9375,-1.125,40.8125
1589381091.9803414,-0.84,-3.58,8.92,0.4222222222222222,0.2877777777777778,-0.9155555555555556,-5.0625,-3.75,36.0625
1589381091.986752,-0.91,-3.63,8.92,0.4222222222222222,0.2877777777777778,-0.9155555555555556,-1.5625,-12.6875,44.125
1589381092.000363,-0.92,-3.66,8.78,0.4222222222222222,0.2877777777777778,-0.9155555555555556,2.0625,-3.75,41.4375
1589381092.0076034,-0.95,-3.62,8.8,0.4222222222222222,0.2877777777777778,-0.9155555555555556,0.5625,-6.0,43.125
1589381092.0191073,-1.12,-3.62,8.91,0.4222222222222222,0.2877777777777778,-0.9155555555555556,0.9375,-9.6875,54.1875
1589381092.0267415,-1.06,-3.65,8.93,0.35,0.22666666666666666,-0.9811111111111112,-6.5625,-6.25,49.9375
1589381092.0382395,-0.93,-3.71,8.87,0.35,0.22666666666666666,-0.9811111111111112,-4.3125,0.125,50.3125
1589381092.0472558,-0.95,-3.7,8.77,0.35,0.22666666666666666,-0.9811111111111112,0.3125,-8.9375,49.5625
1589381092.0584922,-0.91,-3.63,8.86,0.35,0.22666666666666666,-0.9811111111111112,1.9375,-3.125,48.625
1589381092.0691092,-0.97,-3.63,8.89,0.35,0.22666666666666666,-0.9811111111111112,1.6875,-8.0625,46.875
1589381092.0806055,-1.06,-3.6,8.91,0.2933333333333333,0.12555555555555556,-0.9811111111111112,0.6875,-6.0,55.4375
1589381092.0874953,-1.24,-3.56,8.9,0.2933333333333333,0.12555555555555556,-0.9811111111111112,-5.6875,0.75,63.4375
1589381092.0973587,-1.3,-3.56,8.8,0.2933333333333333,0.12555555555555556,-0.9811111111111112,3.4375,-3.875,54.4375
1589381092.1095154,-1.28,-3.6,8.82,0.2933333333333333,0.12555555555555556,-0.9811111111111112,-2.0625,-8.6875,69.6875
1589381092.1185286,-1.33,-3.59,8.9,0.2933333333333333,0.12555555555555556,-0.9811111111111112,5.5625,-7.9375,69.8125
1589381092.126023,-1.38,-3.61,8.91,0.2611111111111111,0.017777777777777778,-0.9288888888888888,-1.5625,-3.125,75.625
1589381092.1379106,-1.46,-3.6,8.91,0.2611111111111111,0.017777777777777778,-0.9288888888888888,0.5625,-8.3125,77.5625
1589381092.1538045,-1.49,-3.6,8.79,0.2611111111111111,0.017777777777777778,-0.9288888888888888,-1.3125,-13.1875,92.3125
1589381092.1602678,-1.56,-3.6,8.89,0.2611111111111111,0.017777777777777778,-0.9288888888888888,3.9375,-6.125,88.75
1589381092.1708784,-1.51,-3.65,8.88,0.2611111111111111,0.017777777777777778,-0.9288888888888888,-2.5625,-14.25,100.0
1589381092.177171,-1.59,-3.64,8.95,0.2966666666666667,-0.045555555555555564,-0.83,-1.0625,-14.125,105.6875
1589381092.1915119,-1.57,-3.7,8.86,0.2966666666666667,-0.045555555555555564,-0.83,-4.3125,-8.9375,107.9375
1589381092.1980093,-1.76,-3.76,8.72,0.2966666666666667,-0.045555555555555564,-0.83,-1.4375,-8.5625,112.5
1589381092.2117743,-1.76,-3.72,8.82,0.2966666666666667,-0.045555555555555564,-0.83,-8.375,-8.8125,118.9375
1589381092.2202694,-1.85,-3.66,8.87,0.2966666666666667,-0.045555555555555564,-0.83,0.9375,-12.3125,124.1875
1589381092.2308328,-1.78,-3.77,8.87,0.3388888888888889,-0.09333333333333334,-0.7444444444444445,-1.8125,-7.5625,118.125
1589381092.2385304,-1.89,-3.75,8.87,0.3388888888888889,-0.09333333333333334,-0.7444444444444445,-1.4375,-10.8125,137.1875
1589381092.2484221,-1.85,-3.68,8.74,0.3388888888888889,-0.09333333333333334,-0.7444444444444445,-5.6875,-13.1875,137.9375
1589381092.2574766,-1.82,-3.72,8.82,0.3388888888888889,-0.09333333333333334,-0.7444444444444445,-1.4375,-14.75,135.3125
1589381092.2701964,-1.71,-3.72,8.91,0.3388888888888889,-0.09333333333333334,-0.7444444444444445,-3.1875,-11.9375,126.0
1589381092.2774215,-1.8,-3.68,8.91,0.35,-0.12777777777777774,-0.7155555555555555,-8.75,-6.25,125.8125
1589381092.288834,-1.83,-3.51,8.89,0.35,-0.12777777777777774,-0.7155555555555555,-0.4375,-12.1875,122.8125
1589381092.297833,-2.12,-3.57,8.8,0.35,-0.12777777777777774,-0.7155555555555555,-3.9375,-8.5625,132.0
1589381092.309412,-2.16,-3.55,8.85,0.35,-0.12777777777777774,-0.7155555555555555,-10.25,-11.5625,123.1875
1589381092.3200214,-2.08,-3.47,8.91,0.35,-0.12777777777777774,-0.7155555555555555,-12.25,-14.625,128.625
1589381092.3326752,-2.1,-3.49,8.88,0.3855555555555555,-0.15444444444444444,-0.68,-2.6875,-11.0625,108.9375
1589381092.3434665,-1.85,-3.17,8.76,0.3855555555555555,-0.15444444444444444,-0.68,0.1875,-6.625,106.3125
1589381092.3493695,-1.68,-3.07,8.87,0.3855555555555555,-0.15444444444444444,-0.68,-8.0,-6.75,99.0
1589381092.361942,-1.99,-3.11,8.93,0.3855555555555555,-0.15444444444444444,-0.68,-3.5625,-6.0,101.625
1589381092.369737,-2.34,-3.21,8.94,0.3855555555555555,-0.15444444444444444,-0.68,-2.9375,-2.375,87.5
1589381092.3810382,-2.34,-3.22,8.91,0.38666666666666666,-0.1811111111111111,-0.65,-3.1875,-7.9375,86.75
1589381092.3877525,-2.32,-3.16,8.98,0.38666666666666666,-0.1811111111111111,-0.65,-3.5625,-6.0,87.375
1589381092.4013824,-2.37,-3.11,8.83,0.38666666666666666,-0.1811111111111111,-0.65,-3.6875,-15.875,73.875
1589381092.4078267,-2.43,-3.14,8.91,0.38666666666666666,-0.1811111111111111,-0.65,2.4375,-10.6875,72.875
1589381092.4204564,-2.37,-3.08,8.95,0.38666666666666666,-0.1811111111111111,-0.65,3.4375,-5.0,70.5
1589381092.4275038,-1.75,-2.72,8.79,0.4033333333333333,-0.18222222222222226,-0.6355555555555555,-2.8125,-1.375,50.5625
1589381092.438924,-2.0,-2.82,9.1,0.4033333333333333,-0.18222222222222226,-0.6355555555555555,-2.3125,-2.75,35.5625
1589381092.448517,-2.06,-2.81,8.83,0.4033333333333333,-0.18222222222222226,-0.6355555555555555,-5.1875,7.4375,34.625
1589381092.4618845,-2.18,-2.8,8.9,0.4033333333333333,-0.18222222222222226,-0.6355555555555555,-5.6875,-3.625,19.375
1589381092.4694488,-2.31,-2.82,9.0,0.4033333333333333,-0.18222222222222226,-0.6355555555555555,-0.0625,-4.75,10.5625
1589381092.4815948,-2.43,-2.82,9.04,0.43,-0.18666666666666668,-0.65,0.9375,0.5,2.25
1589381092.493386,-2.53,-2.9,8.97,0.43,-0.18666666666666668,-0.65,-4.0625,-3.875,-0.375
1589381092.4997554,-2.64,-2.9,8.84,0.43,-0.18666666666666668,-0.65,-1.3125,-4.75,5.875
1589381092.5131292,-2.78,-2.93,8.91,0.43,-0.18666666666666668,-0.65,-6.5625,-2.875,-4.625
1589381092.5202794,-2.65,-2.73,8.93,0.43,-0.18666666666666668,-0.65,-1.8125,0.0,-2.625
1589381092.5324926,-2.75,-2.89,8.97,0.44,-0.17555555555555555,-0.65,-0.6875,-5.5,-6.125
1589381092.5386734,-2.81,-2.95,8.97,0.44,-0.17555555555555555,-0.65,2.1875,0.0,-16.625
1589381092.5521948,-2.98,-3.01,8.84,0.44,-0.17555555555555555,-0.65,0.3125,1.75,-14.625
1589381092.5584779,-2.94,-2.94,8.88,0.44,-0.17555555555555555,-0.65,1.6875,4.875,-10.8125
1589381092.5729954,-2.96,-3.01,8.97,0.44,-0.17555555555555555,-0.65,-3.4375,5.0,-19.125
1589381092.5790305,-2.93,-3.01,8.94,0.4533333333333333,-0.14,-0.65,-7.25,-3.75,-12.8125
1589381092.5896285,-2.88,-3.01,8.95,0.4533333333333333,-0.14,-0.65,-2.1875,-2.25,-18.75
1589381092.6001518,-2.85,-2.98,8.86,0.4533333333333333,-0.14,-0.65,3.0625,-0.375,-18.875
1589381092.6113298,-2.91,-3.02,8.91,0.4533333333333333,-0.14,-0.65,3.9375,5.875,-18.875
1589381092.621778,-2.9,-3.05,8.95,0.4533333333333333,-0.14,-0.65,3.1875,6.125,-28.875
1589381092.6332402,-2.86,-3.04,8.98,0.4122222222222222,-0.13777777777777778,-0.6588888888888889,0.9375,-2.0,-15.75
1589381092.6444054,-2.88,-3.07,8.94,0.4122222222222222,-0.13777777777777778,-0.6588888888888889,2.6875,12.8125,-15.5
1589381092.6515715,-2.84,-3.09,8.88,0.4122222222222222,-0.13777777777777778,-0.6588888888888889,-0.9375,1.875,-35.5625
1589381092.6648595,-2.86,-3.14,8.91,0.4122222222222222,-0.13777777777777778,-0.6588888888888889,1.5625,0.0,-19.75
1589381092.6725,-2.91,-3.19,8.94,0.4122222222222222,-0.13777777777777778,-0.6588888888888889,-2.0625,1.5,-31.375
1589381092.6794329,-2.97,-3.22,8.93,0.4188888888888889,-0.16444444444444445,-0.6588888888888889,6.3125,-2.0,-27.5625
1589381092.6908536,-2.97,-3.25,8.96,0.4188888888888889,-0.16444444444444445,-0.6588888888888889,-2.6875,1.125,-26.9375
1589381092.6999242,-2.95,-3.29,8.81,0.4188888888888889,-0.16444444444444445,-0.6588888888888889,-6.0625,-4.0,-38.4375
1589381092.7108073,-2.86,-3.26,8.85,0.4188888888888889,-0.16444444444444445,-0.6588888888888889,-2.9375,7.8125,-29.75
1589381092.7219787,-2.84,-3.26,8.91,0.4188888888888889,-0.16444444444444445,-0.6588888888888889,-1.6875,3.875,-24.5625
1589381092.7298868,-2.75,-3.24,8.95,0.4388888888888889,-0.16333333333333333,-0.6644444444444444,-2.9375,-9.0625,-20.25
1589381092.742965,-2.78,-3.26,8.94,0.4388888888888889,-0.16333333333333333,-0.6644444444444444,-4.4375,1.25,-35.1875
1589381092.749867,-2.76,-3.24,8.81,0.4388888888888889,-0.16333333333333333,-0.6644444444444444,6.3125,0.75,-39.8125
1589381092.7624686,-2.71,-3.26,8.84,0.4388888888888889,-0.16333333333333333,-0.6644444444444444,0.1875,7.4375,-31.375
1589381092.7726064,-2.78,-3.29,8.92,0.4388888888888889,-0.16333333333333333,-0.6644444444444444,3.4375,6.125,-34.625
1589381092.7846918,-2.75,-3.27,8.92,0.4455555555555555,-0.13666666666666666,-0.6355555555555555,-4.4375,4.25,-25.0625
1589381092.7932055,-2.71,-3.24,8.95,0.4455555555555555,-0.13666666666666666,-0.6355555555555555,-2.8125,-3.5,-27.8125
1589381092.8034167,-2.69,-3.28,8.83,0.4455555555555555,-0.13666666666666666,-0.6355555555555555,-2.5625,2.0,-30.0
1589381092.810958,-2.74,-3.31,8.89,0.4455555555555555,-0.13666666666666666,-0.6355555555555555,-4.1875,3.0,-22.4375
1589381092.8225722,-2.7,-3.27,8.92,0.4455555555555555,-0.13666666666666666,-0.6355555555555555,-1.1875,2.0,-18.875
1589381092.8294175,-2.66,-3.25,8.93,0.4577777777777778,-0.10444444444444444,-0.6288888888888889,3.9375,2.5,-24.4375
1589381092.8414395,-2.75,-3.3,8.9,0.4577777777777778,-0.10444444444444444,-0.6288888888888889,-5.6875,0.0,-15.25
1589381092.8553307,-2.72,-3.25,8.8,0.4577777777777778,-0.10444444444444444,-0.6288888888888889,5.1875,-2.375,-18.5
1589381092.8610768,-2.85,-3.28,8.85,0.4577777777777778,-0.10444444444444444,-0.6288888888888889,3.9375,-1.25,-17.875
1589381092.8765252,-2.88,-3.31,8.89,0.4577777777777778,-0.10444444444444444,-0.6288888888888889,-3.6875,-1.375,-8.5625
1589381092.8822448,-2.76,-3.29,8.94,0.4455555555555555,-0.09777777777777777,-0.6355555555555555,-0.4375,-1.5,-6.75
1589381092.8951776,-2.73,-3.27,8.89,0.4455555555555555,-0.09777777777777777,-0.6355555555555555,0.5625,5.0,3.875
1589381092.9011323,-2.71,-3.24,8.84,0.4455555555555555,-0.09777777777777777,-0.6355555555555555,-3.6875,-2.875,13.4375
1589381092.9107518,-2.74,-3.23,8.95,0.4455555555555555,-0.09777777777777777,-0.6355555555555555,-0.9375,-0.875,4.75
1589381092.922653,-2.72,-3.25,8.84,0.4455555555555555,-0.09777777777777777,-0.6355555555555555,-0.1875,-5.25,15.125
1589381092.931762,-2.76,-3.31,8.99,0.4655555555555556,-0.07111111111111111,-0.6444444444444445,-1.5625,-10.4375,21.0625
1589381092.941944,-2.61,-3.22,8.71,0.4655555555555556,-0.07111111111111111,-0.6444444444444445,-1.0625,0.375,14.75
1589381092.9532626,-2.71,-3.28,8.84,0.4655555555555556,-0.07111111111111111,-0.6444444444444445,-10.25,-1.75,14.375
1589381092.9610314,-2.67,-3.27,8.88,0.4655555555555556,-0.07111111111111111,-0.6444444444444445,-2.1875,-5.0,22.4375
1589381092.9728827,-2.59,-3.23,8.91,0.4655555555555556,-0.07111111111111111,-0.6444444444444445,-2.1875,-3.5,30.625
1589381092.9810438,-2.52,-3.2,9.03,0.4655555555555556,-0.07111111111111111,-0.6355555555555555,-1.8125,-4.625,14.125
1589381092.992843,-2.63,-3.21,8.97,0.4655555555555556,-0.07111111111111111,-0.6355555555555555,3.1875,-5.875,24.5625
1589381093.0024953,-2.62,-3.22,8.77,0.4655555555555556,-0.07111111111111111,-0.6355555555555555,4.8125,-2.5,15.0
1589381093.0134163,-2.57,-3.24,8.88,0.4655555555555556,-0.07111111111111111,-0.6355555555555555,-3.9375,-7.3125,30.25
1589381093.0272045,-2.56,-3.24,8.94,0.4655555555555556,-0.07111111111111111,-0.6355555555555555,0.9375,-2.25,17.125
1589381093.0336106,-2.54,-3.23,8.93,0.4455555555555555,-0.05111111111111112,-0.6444444444444445,-5.9375,6.5,22.4375
1589381093.04581,-2.6,-3.23,8.94,0.4455555555555555,-0.05111111111111112,-0.6444444444444445,4.0625,-6.875,20.5
1589381093.0516708,-2.57,-3.22,8.87,0.4455555555555555,-0.05111111111111112,-0.6444444444444445,0.0625,-3.375,11.4375
1589381093.06445,-2.67,-3.2,8.91,0.4455555555555555,-0.05111111111111112,-0.6444444444444445,6.6875,-10.0625,6.75
1589381093.0734382,-2.66,-3.15,8.93,0.4455555555555555,-0.05111111111111112,-0.6444444444444445,-3.8125,-3.625,13.1875
1589381093.0816677,-2.6,-3.16,8.93,0.4455555555555555,-0.07777777777777778,-0.6355555555555555,-6.6875,-3.25,9.4375
1589381093.0912097,-2.59,-3.11,8.93,0.4455555555555555,-0.07777777777777778,-0.6355555555555555,-1.1875,-4.75,11.5625
1589381093.1015027,-2.63,-3.15,8.85,0.4455555555555555,-0.07777777777777778,-0.6355555555555555,0.5625,-5.375,8.3125
1589381093.1114569,-2.65,-3.13,8.87,0.4455555555555555,-0.07777777777777778,-0.6355555555555555,2.5625,1.0,10.3125
1589381093.1236851,-2.62,-3.11,8.94,0.4455555555555555,-0.07777777777777778,-0.6355555555555555,1.0625,-2.625,6.125
1589381093.1312592,-2.59,-3.13,8.98,0.4511111111111111,-0.057777777777777775,-0.6355555555555555,-6.0625,-3.625,8.8125
1589381093.1431572,-2.57,-3.1,8.98,0.4511111111111111,-0.057777777777777775,-0.6355555555555555,1.3125,-2.25,6.5
1589381093.1528573,-2.66,-3.11,8.82,0.4511111111111111,-0.057777777777777775,-0.6355555555555555,6.3125,1.125,1.625
1589381093.1619875,-2.74,-3.18,8.92,0.4511111111111111,-0.057777777777777775,-0.6355555555555555,-1.6875,-5.375,-14.0
1589381093.17814,-2.49,-3.18,9.04,0.4511111111111111,-0.057777777777777775,-0.6355555555555555,7.25,5.375,-10.1875
1589381093.184525,-2.47,-3.14,8.85,0.4488888888888889,-0.057777777777777775,-0.6288888888888889,4.6875,4.875,-17.5
1589381093.1915672,-2.21,-3.15,9.02,0.4488888888888889,-0.057777777777777775,-0.6288888888888889,-1.5625,4.375,-23.1875
1589381093.204244,-2.43,-3.1,8.91,0.4488888888888889,-0.057777777777777775,-0.6288888888888889,-0.9375,3.375,-32.0
1589381093.2121935,-2.3,-3.08,8.83,0.4488888888888889,-0.057777777777777775,-0.6288888888888889,3.1875,-0.875,-44.125
1589381093.2233026,-2.17,-3.07,8.98,0.4488888888888889,-0.057777777777777775,-0.6288888888888889,-0.1875,9.9375,-43.0
1589381093.235006,-2.22,-3.11,8.97,0.4488888888888889,-0.057777777777777775,-0.65,0.9375,6.625,-61.375
1589381093.2412539,-1.98,-3.03,8.91,0.4488888888888889,-0.057777777777777775,-0.65,5.4375,5.25,-68.5625
1589381093.254776,-2.02,-3.17,8.91,0.4488888888888889,-0.057777777777777775,-0.65,7.125,15.125,-81.3125
1589381093.261985,-2.41,-3.27,8.9,0.4488888888888889,-0.057777777777777775,-0.65,0.4375,0.5,-73.0
1589381093.2758715,-2.84,-3.43,8.9,0.4488888888888889,-0.057777777777777775,-0.65,1.5625,3.875,-67.3125
1589381093.2820086,-2.71,-3.47,8.94,0.4633333333333333,-0.05111111111111112,-0.6644444444444444,5.8125,5.75,-56.375
1589381093.2922964,-2.68,-3.51,8.95,0.4633333333333333,-0.05111111111111112,-0.6644444444444444,-0.8125,7.4375,-62.875
1589381093.301524,-2.58,-3.44,8.84,0.4633333333333333,-0.05111111111111112,-0.6644444444444444,-0.1875,6.125,-42.5
1589381093.3116126,-2.59,-3.65,8.88,0.4633333333333333,-0.05111111111111112,-0.6644444444444444,0.6875,3.0,-50.8125
1589381093.3294985,-2.59,-3.6,8.88,0.4633333333333333,-0.05111111111111112,-0.6644444444444444,4.0625,4.25,-33.5
1589381093.3359025,-2.66,-3.67,8.91,0.4566666666666666,-0.017777777777777778,-0.65,-1.4375,3.125,-22.9375
1589381093.3419447,-2.55,-3.69,8.86,0.4566666666666666,-0.017777777777777778,-0.65,-5.8125,-2.75,-22.8125
1589381093.3536255,-2.53,-3.73,8.81,0.4566666666666666,-0.017777777777777778,-0.65,3.3125,-5.5,-18.5
1589381093.3629296,-2.41,-3.71,8.85,0.4566666666666666,-0.017777777777777778,-0.65,-1.3125,0.625,-10.5625
1589381093.373559,-2.28,-3.67,8.84,0.4566666666666666,-0.017777777777777778,-0.65,-0.6875,1.625,-25.8125
1589381093.3856368,-2.21,-3.6,8.91,0.4633333333333333,-0.012222222222222223,-0.6288888888888889,-2.8125,-0.5,-25.3125
1589381093.3917804,-2.2,-3.65,8.93,0.4633333333333333,-0.012222222222222223,-0.6288888888888889,-2.5625,-2.375,-22.8125
1589381093.4065526,-2.18,-3.57,8.79,0.4633333333333333,-0.012222222222222223,-0.6288888888888889,-0.4375,2.25,-20.25
1589381093.4133735,-2.09,-3.46,8.9,0.4633333333333333,-0.012222222222222223,-0.6288888888888889,3.9375,-5.25,-35.4375
1589381093.42465,-2.19,-3.6,8.91,0.4633333333333333,-0.012222222222222223,-0.6288888888888889,1.1875,5.75,-14.875
1589381093.4326901,-2.18,-3.61,8.92,0.4633333333333333,-0.04,-0.6355555555555555,0.0625,2.75,-23.0625
1589381093.4429731,-2.21,-3.66,8.92,0.4633333333333333,-0.04,-0.6355555555555555,-0.4375,6.875,-29.25
1589381093.4532053,-2.09,-3.59,8.81,0.4633333333333333,-0.04,-0.6355555555555555,7.0,-2.25,-35.9375
1589381093.4630606,-2.16,-3.62,8.83,0.4633333333333333,-0.04,-0.6355555555555555,3.0625,9.1875,-26.5625
1589381093.4767337,-2.25,-3.76,9.03,0.4633333333333333,-0.04,-0.6355555555555555,3.5625,3.625,-32.875
1589381093.4839988,-1.71,-3.49,8.88,0.4444444444444444,-0.07111111111111111,-0.6355555555555555,0.0625,1.625,-41.8125
1589381093.4929955,-1.72,-3.36,9.05,0.4444444444444444,-0.07111111111111111,-0.6355555555555555,-3.5625,2.5,-35.9375
1589381093.504562,-2.12,-3.56,8.78,0.4444444444444444,-0.07111111111111111,-0.6355555555555555,3.1875,1.875,-40.6875
1589381093.5139284,-2.19,-3.61,8.78,0.4444444444444444,-0.07111111111111111,-0.6355555555555555,3.8125,9.9375,-46.0
1589381093.5242245,-2.09,-3.75,8.93,0.4444444444444444,-0.07111111111111111,-0.6355555555555555,2.3125,5.0,-51.3125
1589381093.5336914,-2.18,-3.61,8.94,0.4566666666666666,-0.13111111111111112,-0.6222222222222222,-2.0625,2.375,-41.0625
1589381093.5425518,-2.15,-3.65,8.95,0.4566666666666666,-0.13111111111111112,-0.6222222222222222,5.6875,8.8125,-45.625
1589381093.557628,-2.15,-3.59,8.83,0.4566666666666666,-0.13111111111111112,-0.6222222222222222,5.3125,11.6875,-35.5625
1589381093.5637028,-2.22,-3.6,8.88,0.4566666666666666,-0.13111111111111112,-0.6222222222222222,2.8125,3.25,-43.125
1589381093.5756342,-2.23,-3.56,8.87,0.4566666666666666,-0.13111111111111112,-0.6222222222222222,-1.0625,3.75,-35.0625
1589381093.5832846,-2.2,-3.59,8.94,0.4477777777777778,-0.2822222222222222,-0.5788888888888889,-4.4375,4.25,-31.5
1589381093.5975525,-2.21,-3.62,8.9,0.4477777777777778,-0.2822222222222222,-0.5788888888888889,4.0625,3.125,-23.8125
1589381093.603545,-2.12,-3.55,8.81,0.4477777777777778,-0.2822222222222222,-0.5788888888888889,5.0625,-2.375,-14.75
1589381093.6144981,-2.1,-3.6,8.82,0.4477777777777778,-0.2822222222222222,-0.5788888888888889,5.3125,5.875,-23.4375
1589381093.626042,-2.09,-3.62,8.89,0.4477777777777778,-0.2822222222222222,-0.5788888888888889,1.3125,6.0,-12.8125
1589381093.6338632,-2.04,-3.57,8.99,0.4388888888888889,-0.5511111111111111,-0.3644444444444445,-3.5625,0.875,-21.3125
1589381093.6431115,-2.01,-3.53,8.91,0.4388888888888889,-0.5511111111111111,-0.3644444444444445,-3.0625,2.625,-26.6875
1589381093.6536095,-1.96,-3.6,8.78,0.4388888888888889,-0.5511111111111111,-0.3644444444444445,-4.3125,0.625,-10.6875
1589381093.6638467,-1.99,-3.64,8.87,0.4388888888888889,-0.5511111111111111,-0.3644444444444445,3.4375,-0.125,-16.875
1589381093.676158,-1.89,-3.58,8.87,0.4388888888888889,-0.5511111111111111,-0.3644444444444445,1.6875,-0.625,-13.4375
1589381093.6849134,-1.91,-3.62,8.95,0.4988888888888889,-0.9188888888888888,0.41,-0.3125,0.75,-6.875
1589381093.6949036,-1.97,-3.67,8.89,0.4988888888888889,-0.9188888888888888,0.41,-0.3125,-1.25,-1.625
1589381093.7091415,-2.0,-3.74,8.81,0.4988888888888889,-0.9188888888888888,0.41,4.9375,-4.0,3.0
1589381093.7153144,-1.92,-3.74,8.82,0.4988888888888889,-0.9188888888888888,0.41,3.6875,0.875,9.9375
1589381093.730446,-1.91,-3.77,8.9,0.4988888888888889,-0.9188888888888888,0.41,-0.4375,2.5,6.5
1589381093.73572,-1.85,-3.75,8.88,1.1855555555555557,0.11666666666666667,0.8133333333333334,-4.1875,0.0,14.625
1589381093.7452462,-1.9,-3.86,8.84,1.1855555555555557,0.11666666666666667,0.8133333333333334,0.9375,0.375,4.25
1589381093.754209,-1.83,-3.76,8.8,1.1855555555555557,0.11666666666666667,0.8133333333333334,-4.0625,0.0,15.875
1589381093.7685006,-1.94,-3.79,8.85,1.1855555555555557,0.11666666666666667,0.8133333333333334,-6.6875,-3.875,12.1875
1589381093.7764633,-1.87,-3.57,8.85,1.1855555555555557,0.11666666666666667,0.8133333333333334,5.3125,-3.25,10.3125
1589381093.7885947,-1.83,-3.74,8.91,1.1388888888888888,0.4922222222222222,-0.20555555555555555,2.5625,-7.3125,11.8125
1589381093.7946398,-1.93,-3.75,8.9,1.1388888888888888,0.4922222222222222,-0.20555555555555555,-4.6875,-12.6875,15.0
1589381093.804662,-1.85,-3.51,8.84,1.1388888888888888,0.4922222222222222,-0.20555555555555555,0.9375,-8.8125,13.9375
1589381093.8143842,-1.85,-3.45,8.86,1.1388888888888888,0.4922222222222222,-0.20555555555555555,3.3125,-5.75,15.875
1589381093.8266053,-1.82,-3.44,8.95,1.1388888888888888,0.4922222222222222,-0.20555555555555555,-0.6875,0.0,12.5625
1589381093.8335824,-1.78,-3.4,8.95,0.8744444444444445,0.3022222222222222,-0.5155555555555555,8.75,-1.0,11.5625
1589381093.8443115,-1.85,-3.44,8.89,0.8744444444444445,0.3022222222222222,-0.5155555555555555,2.5625,-1.0,19.0
1589381093.8545728,-1.89,-3.47,8.8,0.8744444444444445,0.3022222222222222,-0.5155555555555555,-1.8125,-1.75,14.625
1589381093.8646295,-1.9,-3.48,8.84,0.8744444444444445,0.3022222222222222,-0.5155555555555555,1.3125,-2.375,20.5
1589381093.8800461,-1.81,-3.48,8.91,0.8744444444444445,0.3022222222222222,-0.5155555555555555,-3.3125,-11.5625,23.8125
1589381093.885183,-1.95,-3.64,8.93,0.7233333333333334,0.17555555555555555,-0.6222222222222222,-1.0625,-6.125,33.125
1589381093.8960824,-1.88,-3.67,8.87,0.7233333333333334,0.17555555555555555,-0.6222222222222222,3.0625,-1.5,25.5625
1589381093.9049757,-1.79,-3.62,8.85,0.7233333333333334,0.17555555555555555,-0.6222222222222222,1.4375,1.25,17.0
1589381093.9193695,-1.8,-3.63,8.82,0.7233333333333334,0.17555555555555555,-0.6222222222222222,0.0625,-2.0,21.1875
1589381093.926995,-1.77,-3.71,8.91,0.7233333333333334,0.17555555555555555,-0.6222222222222222,-2.3125,-1.375,17.125
1589381093.938241,-1.83,-3.7,8.89,0.6111111111111112,0.12444444444444445,-0.6255555555555555,0.1875,3.875,23.9375
1589381093.9446182,-1.8,-3.67,8.9,0.6111111111111112,0.12444444444444445,-0.6255555555555555,-3.8125,-0.75,34.625
1589381093.9588366,-1.74,-3.66,8.8,0.6111111111111112,0.12444444444444445,-0.6255555555555555,-0.1875,-3.625,24.1875
1589381093.9657676,-1.74,-3.66,8.87,0.6111111111111112,0.12444444444444445,-0.6255555555555555,-4.3125,-2.75,15.0
1589381093.9780269,-1.69,-3.6,8.89,0.6111111111111112,0.12444444444444445,-0.6255555555555555,-5.6875,-8.8125,13.9375
1589381093.9846668,-1.69,-3.62,8.91,0.5844444444444444,0.07777777777777778,-0.6233333333333333,-2.1875,-8.8125,12.5625
1589381093.9956,-1.67,-3.49,8.98,0.5844444444444444,0.07777777777777778,-0.6233333333333333,9.625,0.0,8.8125
1589381094.0053742,-1.64,-3.44,8.79,0.5844444444444444,0.07777777777777778,-0.6233333333333333,2.0625,-0.625,1.25
1589381094.0150065,-1.72,-3.53,8.9,0.5844444444444444,0.07777777777777778,-0.6233333333333333,1.9375,-0.125,15.125
1589381094.0301015,-1.71,-3.56,8.92,0.5844444444444444,0.07777777777777778,-0.6233333333333333,0.0625,0.0,8.5625
1589381094.0362835,-1.69,-3.53,8.88,0.5333333333333333,0.07111111111111111,-0.6755555555555556,3.9375,3.125,4.125
1589381094.0454588,-1.67,-3.56,8.93,0.5333333333333333,0.07111111111111111,-0.6755555555555556,1.6875,4.0,-2.375
1589381094.056715,-1.7,-3.64,8.79,0.5333333333333333,0.07111111111111111,-0.6755555555555556,-3.3125,-3.375,-3.125
1589381094.0700526,-1.68,-3.58,8.86,0.5333333333333333,0.07111111111111111,-0.6755555555555556,0.1875,-0.75,-17.875
1589381094.0775473,-1.74,-3.6,8.87,0.5333333333333333,0.07111111111111111,-0.6755555555555556,1.9375,0.0,-5.25
1589381094.0905745,-1.81,-3.67,8.94,0.5277777777777778,0.04444444444444445,-0.6533333333333333,-3.0625,3.25,-13.4375
1589381094.0972927,-1.83,-3.55,8.87,0.5277777777777778,0.04444444444444445,-0.6533333333333333,1.0625,0.625,-30.25
1589381094.1088018,-1.68,-3.41,8.85,0.5277777777777778,0.04444444444444445,-0.6533333333333333,-4.8125,1.625,-22.5625
1589381094.1163988,-1.55,-3.42,8.89,0.5277777777777778,0.04444444444444445,-0.6533333333333333,3.3125,1.25,-25.8125
1589381094.127779,-1.57,-3.38,8.94,0.5277777777777778,0.04444444444444445,-0.6533333333333333,1.9375,3.375,-41.6875
1589381094.134264,-1.43,-2.99,8.69,0.4955555555555556,0.05111111111111112,-0.6611111111111111,5.0625,6.125,-39.9375
1589381094.1394892,-1.43,-2.99,8.69,0.4955555555555556,0.05111111111111112,-0.6611111111111111,5.0625,6.125,-39.9375
1589381094.1471634,-1.39,-3.13,9.13,0.4955555555555556,0.05111111111111112,-0.6611111111111111,-0.9375,6.375,-47.375
1589381094.1550624,-1.56,-3.22,8.81,0.4955555555555556,0.05111111111111112,-0.6611111111111111,3.1875,5.0,-42.375
1589381094.1680286,-1.56,-3.09,8.9,0.4955555555555556,0.05111111111111112,-0.6611111111111111,3.4375,7.1875,-60.625
1589381094.176917,-1.6,-2.92,8.95,0.4955555555555556,0.05111111111111112,-0.6611111111111111,7.75,4.625,-59.375
1589381094.188271,-1.62,-3.01,9.04,0.5011111111111111,0.05666666666666665,-0.6522222222222223,-1.1875,1.625,-44.25
1589381094.1966429,-1.69,-3.05,9.0,0.5011111111111111,0.05666666666666665,-0.6522222222222223,-0.8125,4.25,-50.1875
1589381094.2076526,-1.71,-3.32,8.87,0.5011111111111111,0.05666666666666665,-0.6522222222222223,2.5625,5.5,-37.9375
1589381094.2179663,-1.84,-3.6,8.9,0.5011111111111111,0.05666666666666665,-0.6522222222222223,9.25,12.6875,-45.875
1589381094.2272775,-1.62,-3.57,8.87,0.5011111111111111,0.05666666666666665,-0.6522222222222223,5.4375,1.0,-30.0
1589381094.2353618,-1.47,-3.49,8.91,0.5077777777777778,0.07777777777777778,-0.6522222222222223,4.9375,4.75,-39.6875
1589381094.2474284,-1.29,-3.31,8.88,0.5077777777777778,0.07777777777777778,-0.6522222222222223,5.5625,6.625,-37.5625
1589381094.25655,-1.62,-3.48,8.87,0.5077777777777778,0.07777777777777778,-0.6522222222222223,-1.0625,6.125,-38.4375
1589381094.2675474,-1.67,-3.29,8.8,0.5077777777777778,0.07777777777777778,-0.6522222222222223,-1.3125,9.9375,-31.25
1589381094.2775655,-1.57,-3.04,9.01,0.5077777777777778,0.07777777777777778,-0.6522222222222223,1.3125,-2.625,-33.25
1589381094.2852304,-1.65,-3.02,8.97,0.5011111111111111,0.09222222222222222,-0.6233333333333333,6.5625,7.4375,-25.3125
1589381094.2905884,-1.65,-3.02,8.97,0.5011111111111111,0.09222222222222222,-0.6233333333333333,6.5625,7.4375,-25.3125
1589381094.3056722,-1.58,-3.16,8.91,0.5011111111111111,0.09222222222222222,-0.6233333333333333,-2.1875,-1.125,-24.1875
1589381094.3199742,-1.59,-3.29,8.97,0.5011111111111111,0.09222222222222222,-0.6233333333333333,0.0625,3.25,-13.4375
1589381094.3285866,-1.54,-3.42,8.84,0.5011111111111111,0.09222222222222222,-0.6233333333333333,1.6875,0.0,-27.4375
1589381094.3400016,-1.26,-3.35,9.02,0.4811111111111111,0.13111111111111112,-0.6311111111111111,5.1875,3.625,-20.125
1589381094.3460505,-1.43,-3.61,8.97,0.4811111111111111,0.13111111111111112,-0.6311111111111111,2.5625,2.375,-16.75
1589381094.3562427,-1.4,-3.73,8.82,0.4811111111111111,0.13111111111111112,-0.6311111111111111,2.4375,0.25,-14.625
1589381094.366056,-1.28,-3.55,8.84,0.4811111111111111,0.13111111111111112,-0.6311111111111111,-0.6875,1.25,-18.25
1589381094.37788,-1.27,-3.52,8.91,0.4811111111111111,0.13111111111111112,-0.6311111111111111,-38.0,9.3125,-29.625
1589381094.3859491,1.92,6.12,1.65,0.4688888888888889,0.16666666666666666,-0.6166666666666667,-33.0625,-2.75,-86.5
1589381094.3977757,-0.72,-0.33,15.21,0.4688888888888889,0.16666666666666666,-0.6166666666666667,0.0625,9.4375,-63.9375
1589381094.4067626,-0.43,0.17,7.96,0.4688888888888889,0.16666666666666666,-0.6166666666666667,1.6875,3.5,-56.75
1589381094.4191804,-0.71,0.47,9.22,0.4688888888888889,0.16666666666666666,-0.6166666666666667,3.6875,14.125,-53.8125
1589381094.429814,-0.42,0.67,9.2,0.4688888888888889,0.16666666666666666,-0.6166666666666667,7.875,10.3125,-44.0
1589381094.4390118,-1.21,0.55,9.24,0.4888888888888889,0.19333333333333333,-0.6311111111111111,-2.4375,4.625,-17.125
1589381094.450181,-2.59,-0.44,9.19,0.4888888888888889,0.19333333333333333,-0.6311111111111111,0.1875,-8.0625,-1.5
1589381094.4563904,-1.01,-2.63,8.86,0.4888888888888889,0.19333333333333333,-0.6311111111111111,1.5625,-2.5,9.6875
1589381094.470533,-1.02,-2.6,8.92,0.4888888888888889,0.19333333333333333,-0.6311111111111111,-1.0625,-7.4375,10.8125
1589381094.4780936,-1.08,-2.77,9.03,0.4888888888888889,0.19333333333333333,-0.6311111111111111,1.4375,-2.0,-4.375
1589381094.4891136,-1.1,-2.79,9.05,0.4833333333333333,0.2,-0.6166666666666667,-2.3125,-0.375,10.9375
1589381094.496617,-1.14,-2.87,8.89,0.4833333333333333,0.2,-0.6166666666666667,4.9375,-4.875,11.9375
1589381094.5071154,-1.25,-2.98,8.86,0.4833333333333333,0.2,-0.6166666666666667,-5.3125,-10.6875,15.25
1589381094.5162652,-1.3,-3.09,8.84,0.4833333333333333,0.2,-0.6166666666666667,-2.8125,-1.25,29.5
1589381094.5288124,-1.24,-3.28,9.02,0.4833333333333333,0.2,-0.6166666666666667,-5.1875,-7.9375,34.5
1589381094.5367165,-1.12,-3.28,8.88,0.4833333333333333,0.20222222222222225,-0.6233333333333333,-2.1875,2.5,30.875
1589381094.5466034,-1.16,-3.47,9.0,0.4833333333333333,0.20222222222222225,-0.6233333333333333,-9.0,0.25,6.0
1589381094.557468,-9.4,-26.27,7.2,0.4833333333333333,0.20222222222222225,-0.6233333333333333,3.0625,-4.875,-0.125
1589381094.57007,0.03,0.97,9.69,0.4833333333333333,0.20222222222222225,-0.6233333333333333,-1.8125,13.8125,3.75
1589381094.5802212,-1.43,-2.45,9.08,0.4833333333333333,0.20222222222222225,-0.6233333333333333,-5.3125,-4.375,6.5
1589381094.588401,-0.93,-2.73,9.11,0.4711111111111111,0.20222222222222225,-0.6166666666666667,-5.5625,-6.25,-1.75
1589381094.6004994,-2.08,-5.02,8.8,0.4711111111111111,0.20222222222222225,-0.6166666666666667,-3.9375,0.5,-0.5
1589381094.6067047,-1.04,-2.82,8.92,0.4711111111111111,0.20222222222222225,-0.6166666666666667,-1.6875,2.0,3.875
1589381094.612422,-1.04,-2.82,8.92,0.4711111111111111,0.20222222222222225,-0.6166666666666667,-1.6875,2.0,3.875
1589381094.623175,-1.63,-4.16,8.75,0.4711111111111111,0.20222222222222225,-0.6166666666666667,-2.5625,-4.25,6.625
1589381094.629482,-1.5,-3.86,8.89,0.4711111111111111,0.20222222222222225,-0.6166666666666667,0.9375,-6.875,-1.0
1589381094.6415734,-1.46,-3.86,8.95,0.4711111111111111,0.1955555555555556,-0.6233333333333333,-4.9375,-3.625,3.75
1589381094.6481564,-1.58,-3.94,8.87,0.4711111111111111,0.1955555555555556,-0.6233333333333333,2.6875,1.25,7.0625
1589381094.6583135,-1.52,-3.92,8.74,0.4711111111111111,0.1955555555555556,-0.6233333333333333,2.4375,-0.125,10.3125
1589381094.6683724,-1.53,-3.94,8.78,0.4711111111111111,0.1955555555555556,-0.6233333333333333,-3.3125,0.5,4.375
1589381094.680159,-1.52,-3.92,8.9,0.4711111111111111,0.1955555555555556,-0.6233333333333333,7.875,1.25,-0.25
1589381094.6881974,-1.51,-3.91,8.9,0.4755555555555556,0.1955555555555556,-0.6166666666666667,-3.3125,1.375,-2.5
1589381094.7006226,-1.54,-3.94,8.88,0.4755555555555556,0.1955555555555556,-0.6166666666666667,-1.9375,-3.25,-6.0
1589381094.708867,-1.56,-3.96,8.78,0.4755555555555556,0.1955555555555556,-0.6166666666666667,-0.1875,6.5,0.875
1589381094.7207634,-1.52,-3.91,8.82,0.4755555555555556,0.1955555555555556,-0.6166666666666667,-7.25,-5.25,-7.1875
1589381094.7305346,-1.53,-3.98,8.83,0.4755555555555556,0.1955555555555556,-0.6166666666666667,-1.8125,5.0,-6.75
1589381094.741867,-1.53,-3.88,8.88,0.4833333333333333,0.20222222222222225,-0.6166666666666667,2.8125,4.125,-0.25
1589381094.7538939,-1.53,-3.93,8.86,0.4833333333333333,0.20222222222222225,-0.6166666666666667,0.4375,2.125,-6.0
1589381094.7603831,-1.56,-3.93,8.74,0.4833333333333333,0.20222222222222225,-0.6166666666666667,0.3125,-1.75,2.75
1589381094.7689333,-1.56,-3.94,8.82,0.4833333333333333,0.20222222222222225,-0.6166666666666667,-1.3125,2.5,-0.25
1589381094.7806485,-1.53,-3.92,8.81,0.4833333333333333,0.20222222222222225,-0.6166666666666667,0.8125,1.0,-3.5
1589381094.7894235,-1.51,-3.92,8.93,0.49,0.1811111111111111,-0.6233333333333333,3.5625,0.125,-2.5
1589381094.799377,-1.53,-3.91,8.88,0.49,0.1811111111111111,-0.6233333333333333,0.5625,0.375,-2.0
1589381094.8128278,-1.52,-3.92,8.8,0.49,0.1811111111111111,-0.6233333333333333,2.5625,-1.375,1.0
1589381094.818722,-1.55,-3.94,8.84,0.49,0.1811111111111111,-0.6233333333333333,-0.6875,0.25,0.25
1589381094.8312805,-1.53,-3.93,8.88,0.49,0.1811111111111111,-0.6233333333333333,4.6875,1.75,1.625
1589381094.8386214,-1.54,-3.95,8.89,0.4977777777777778,0.1955555555555556,-0.6111111111111112,6.0625,0.625,2.375
1589381094.8515866,-1.53,-3.92,8.9,0.4977777777777778,0.1955555555555556,-0.6111111111111112,-0.8125,-4.875,7.0625
1589381094.859053,-1.53,-3.94,8.77,0.4977777777777778,0.1955555555555556,-0.6111111111111112,4.6875,2.875,-2.375
1589381094.8696392,-1.54,-3.95,8.84,0.4977777777777778,0.1955555555555556,-0.6111111111111112,1.5625,4.25,-7.8125
1589381094.88053,-1.55,-3.95,8.84,0.4977777777777778,0.1955555555555556,-0.6111111111111112,-1.8125,-7.1875,8.5625
1589381094.88932,-1.52,-3.93,8.91,0.4711111111111111,0.18777777777777774,-0.6466666666666666,1.3125,-1.5,-2.375
1589381094.9002035,-1.52,-3.91,8.88,0.4711111111111111,0.18777777777777774,-0.6466666666666666,5.1875,1.25,-2.5
1589381094.9116967,-1.54,-3.92,8.78,0.4711111111111111,0.18777777777777774,-0.6466666666666666,-0.9375,-0.375,2.875
1589381094.9201655,-1.53,-3.94,8.83,0.4711111111111111,0.18777777777777774,-0.6466666666666666,-3.9375,-2.25,0.0
1589381094.9313948,-1.54,-3.94,8.86,0.4711111111111111,0.18777777777777774,-0.6466666666666666,-1.3125,-6.875,-1.375
1589381094.938091,-1.51,-3.91,8.89,0.4633333333333333,0.20222222222222225,-0.6088888888888889,-4.4375,-7.6875,7.3125
1589381094.9499393,-1.52,-3.92,8.88,0.4633333333333333,0.20222222222222225,-0.6088888888888889,2.0625,-6.0,4.75
1589381094.9634564,-1.55,-3.93,8.81,0.4633333333333333,0.20222222222222225,-0.6088888888888889,0.0625,-5.25,-5.625
1589381094.9696734,-1.54,-3.94,8.84,0.4633333333333333,0.20222222222222225,-0.6088888888888889,-0.3125,-2.625,-3.25
1589381094.9815571,-1.52,-3.93,8.85,0.4633333333333333,0.20222222222222225,-0.6088888888888889,1.9375,0.75,13.3125
1589381094.988987,-1.53,-3.93,8.87,0.5022222222222222,0.1811111111111111,-0.6466666666666666,-4.5625,3.75,0.0
1589381095.0020866,-1.52,-3.94,8.84,0.5022222222222222,0.1811111111111111,-0.6466666666666666,8.5,5.0,0.5
1589381095.0094082,-1.53,-3.92,8.79,0.5022222222222222,0.1811111111111111,-0.6466666666666666,-1.5625,-0.125,3.125
1589381095.0201485,-1.53,-3.91,8.8,0.5022222222222222,0.1811111111111111,-0.6466666666666666,-1.4375,-2.375,0.5
1589381095.0310714,-1.54,-3.91,8.84,0.5022222222222222,0.1811111111111111,-0.6466666666666666,0.5625,-0.25,-4.125
1589381095.0398836,-1.53,-3.93,8.87,0.49,0.1955555555555556,-0.6377777777777778,-0.8125,1.25,1.75
1589381095.0504491,-1.55,-3.93,8.89,0.49,0.1955555555555556,-0.6377777777777778,5.6875,0.0,-5.25
1589381095.0605376,-1.55,-3.93,8.79,0.49,0.1955555555555556,-0.6377777777777778,-4.4375,-4.75,-0.875
1589381095.070398,-1.52,-3.93,8.82,0.49,0.1955555555555556,-0.6377777777777778,4.0625,-3.875,7.1875
1589381095.0815132,-1.53,-3.95,8.89,0.49,0.1955555555555556,-0.6377777777777778,2.9375,-2.25,-10.4375
1589381095.0896394,-1.54,-3.94,8.9,0.4833333333333333,0.18777777777777774,-0.6233333333333333,2.4375,-2.375,-0.125
1589381095.0993984,-1.53,-3.94,8.86,0.4833333333333333,0.18777777777777774,-0.6233333333333333,2.4375,4.5,-1.125
1589381095.1113198,-1.53,-3.92,8.79,0.4833333333333333,0.18777777777777774,-0.6233333333333333,-2.3125,-4.875,3.125
1589381095.120108,-1.53,-3.92,8.82,0.4833333333333333,0.18777777777777774,-0.6233333333333333,-0.0625,-3.375,-16.125
1589381095.1362002,-1.55,-3.95,8.83,0.4833333333333333,0.18777777777777774,-0.6233333333333333,-0.9375,-0.5,5.375
1589381095.1414852,-1.55,-3.92,8.88,0.49,0.1955555555555556,-0.6166666666666667,0.9375,-1.0,-2.125
1589381095.1546304,-1.54,-3.91,8.85,0.49,0.1955555555555556,-0.6166666666666667,0.8125,-4.5,2.125
1589381095.1608195,-1.53,-3.92,8.79,0.49,0.1955555555555556,-0.6166666666666667,3.0625,-2.875,-4.875
1589381095.1733398,-1.53,-3.93,8.81,0.49,0.1955555555555556,-0.6166666666666667,0.9375,0.125,5.5
1589381095.182026,-1.52,-3.94,8.86,0.49,0.1955555555555556,-0.6166666666666667,-3.8125,-5.375,0.875
1589381095.193894,-1.53,-3.94,8.88,0.49,0.20222222222222225,-0.6311111111111111,0.8125,-6.375,1.375
1589381095.1998966,-1.54,-3.93,8.91,0.49,0.20222222222222225,-0.6311111111111111,-4.8125,1.25,-13.8125
1589381095.2105956,-1.52,-3.93,8.8,0.49,0.20222222222222225,-0.6311111111111111,1.5625,-3.5,-0.875
1589381095.2207966,-1.51,-3.93,8.83,0.49,0.20222222222222225,-0.6311111111111111,-1.9375,4.75,1.0
1589381095.2320616,-1.54,-3.94,8.89,0.49,0.20222222222222225,-0.6311111111111111,2.3125,-0.625,0.5
1589381095.240756,-1.54,-3.94,8.88,0.4711111111111111,0.1811111111111111,-0.6166666666666667,-0.3125,0.875,1.375
1589381095.250771,-1.53,-3.92,8.82,0.4711111111111111,0.1811111111111111,-0.6166666666666667,1.0625,-3.0,3.875
1589381095.2623606,-1.55,-3.93,8.77,0.4711111111111111,0.1811111111111111,-0.6166666666666667,3.9375,2.0,1.375
1589381095.2703452,-1.52,-3.93,8.82,0.4711111111111111,0.1811111111111111,-0.6166666666666667,-6.4375,-3.5,-7.3125
1589381095.2877655,-1.55,-3.92,8.86,0.4711111111111111,0.1811111111111111,-0.6166666666666667,-1.0625,-0.5,3.125
1589381095.2938495,-1.54,-3.92,8.87,0.5022222222222222,0.18777777777777774,-0.6166666666666667,-0.6875,2.0,-6.75
1589381095.306094,-1.53,-3.93,8.88,0.5022222222222222,0.18777777777777774,-0.6166666666666667,-2.9375,3.75,-3.75
