time,acc_x,acc_y,acc_z,mag_x,mag_y,mag_z,gyr_x,gyr_y,gyr_z
1589381125.236593,-0.42,-4.12,8.74,0.5344444444444445,0.1988888888888889,-0.7711111111111111,-1.9375,0.0,1.75
1589381125.250068,-0.43,-4.12,8.78,0.5344444444444445,0.1988888888888889,-0.7711111111111111,-3.0625,-5.5,3.5
1589381125.2586346,-0.44,-4.14,8.89,0.5344444444444445,0.1988888888888889,-0.7711111111111111,-3.4375,-2.75,10.5625
1589381125.2671974,-0.43,-4.12,8.89,0.5344444444444445,0.1988888888888889,-0.7711111111111111,3.3125,-1.625,1.75
1589381125.2768846,-0.42,-4.12,8.91,0.5344444444444445,0.1988888888888889,-0.7711111111111111,-4.4375,-0.25,1.875
1589381125.2868276,-0.41,-4.12,8.81,0.5344444444444445,0.1988888888888889,-0.7711111111111111,9.375,-2.375,2.375
1589381125.2968967,-0.43,-4.13,8.84,0.5344444444444445,0.1988888888888889,-0.7711111111111111,1.0625,4.0,-2.75
1589381125.309773,-0.43,-4.13,8.88,0.5344444444444445,0.1988888888888889,-0.7711111111111111,3.0625,5.5,-5.375
1589381125.3173866,-0.42,-4.15,8.85,0.5222222222222223,0.20555555555555555,-0.7777777777777778,-0.6875,0.875,6.5
1589381125.3275373,-0.43,-4.12,8.78,0.5222222222222223,0.20555555555555555,-0.7777777777777778,-2.6875,-2.375,-0.5
1589381125.3376105,-0.44,-4.12,8.74,0.5222222222222223,0.20555555555555555,-0.7777777777777778,1.4375,-7.5625,6.0
1589381125.3497248,-0.45,-4.13,8.79,0.5222222222222223,0.20555555555555555,-0.7777777777777778,-3.9375,-0.375,-3.125
1589381125.3593154,-0.43,-4.11,8.85,0.5222222222222223,0.20555555555555555,-0.7777777777777778,-4.3125,0.5,-2.0
1589381125.371066,-0.42,-4.12,8.91,0.5344444444444445,0.1988888888888889,-0.7855555555555556,-2.8125,2.75,8.9375
1589381125.383259,-0.41,-4.13,8.91,0.5344444444444445,0.1988888888888889,-0.7855555555555556,-1.8125,-6.625,-3.875
1589381125.389758,-0.43,-4.15,8.83,0.5344444444444445,0.1988888888888889,-0.7855555555555556,-0.0625,2.5,-6.25
1589381125.4032214,-0.43,-4.14,8.88,0.5344444444444445,0.1988888888888889,-0.7855555555555556,0.3125,1.875,-0.875
1589381125.4089575,-0.44,-4.13,8.91,0.5344444444444445,0.1988888888888889,-0.7855555555555556,1.4375,5.25,0.875
1589381125.4209588,-0.43,-4.15,8.89,0.5344444444444445,0.19111111111111112,-0.7644444444444445,4.6875,-1.0,-1.0
1589381125.4272788,-0.43,-4.12,8.85,0.5344444444444445,0.19111111111111112,-0.7644444444444445,-1.5625,-2.75,3.75
1589381125.437953,-0.43,-4.11,8.71,0.5344444444444445,0.19111111111111112,-0.7644444444444445,7.5,-1.0,-1.625
1589381125.4480894,-0.42,-4.11,8.73,0.5344444444444445,0.19111111111111112,-0.7644444444444445,-3.4375,-3.625,-1.25
1589381125.4600046,-0.43,-4.13,8.77,0.5344444444444445,0.19111111111111112,-0.7644444444444445,-3.5625,-2.75,-2.125
1589381125.4674046,-0.44,-4.12,8.86,0.5222222222222223,0.18666666666666668,-0.7711111111111111,-3.3125,7.4375,-6.75
1589381125.4780984,-0.44,-4.14,8.88,0.5222222222222223,0.18666666666666668,-0.7711111111111111,-2.1875,1.125,2.375
1589381125.4878948,-0.44,-4.12,8.83,0.5222222222222223,0.18666666666666668,-0.7711111111111111,6.3125,0.625,10.3125
1589381125.4991539,-0.43,-4.13,8.89,0.5222222222222223,0.18666666666666668,-0.7711111111111111,0.0625,-1.875,-3.5
1589381125.5107613,-0.41,-4.12,8.9,0.5222222222222223,0.18666666666666668,-0.7711111111111111,-1.4375,3.625,-9.1875
1589381125.5227726,-0.4,-4.13,8.88,0.5488888888888889,0.1988888888888889,-0.7855555555555556,-4.8125,1.5,0.625
1589381125.5318177,-0.43,-4.12,8.88,0.5488888888888889,0.1988888888888889,-0.7855555555555556,-4.8125,-4.75,9.0625
1589381125.5384035,-0.44,-4.12,8.75,0.5488888888888889,0.1988888888888889,-0.7855555555555556,2.4375,0.875,-5.75
1589381125.5482798,-0.45,-4.12,8.76,0.5488888888888889,0.1988888888888889,-0.7855555555555556,0.0625,2.75,-1.375
1589381125.560284,-0.44,-4.14,8.79,0.5488888888888889,0.1988888888888889,-0.7855555555555556,-5.8125,2.0,1.5
1589381125.5674965,-0.43,-4.1,8.8,0.5422222222222223,0.18666666666666668,-0.78,3.0625,-7.6875,1.75
1589381125.5782206,-0.42,-4.12,8.87,0.5422222222222223,0.18666666666666668,-0.78,-1.8125,0.0,8.6875
1589381125.5908566,-0.44,-4.14,8.8,0.5422222222222223,0.18666666666666668,-0.78,6.5625,3.5,-4.75
1589381125.5982275,-0.43,-4.12,8.87,0.5422222222222223,0.18666666666666668,-0.78,-3.8125,-2.0,3.625
1589381125.6108208,-0.45,-4.13,8.91,0.5422222222222223,0.18666666666666668,-0.78,0.1875,-5.875,0.625
1589381125.618387,-0.44,-4.12,8.89,0.5488888888888889,0.18666666666666668,-0.7855555555555556,-2.9375,3.875,2.0
1589381125.6286619,-0.44,-4.15,8.86,0.5488888888888889,0.18666666666666668,-0.7855555555555556,-3.4375,-0.75,3.75
1589381125.638142,-0.39,-4.14,8.78,0.5488888888888889,0.18666666666666668,-0.7855555555555556,2.5625,6.875,1.75
1589381125.6519725,-0.39,-4.15,8.77,0.5488888888888889,0.18666666666666668,-0.7855555555555556,-2.9375,0.125,2.75
1589381125.6606655,-0.44,-4.14,8.84,0.5488888888888889,0.18666666666666668,-0.7855555555555556,3.1875,-1.5,0.5
1589381125.6684387,-0.45,-4.13,8.83,0.5422222222222223,0.19111111111111112,-0.8,-8.0,1.125,7.6875
1589381125.6787975,-0.45,-4.11,8.84,0.5422222222222223,0.19111111111111112,-0.8,-1.0625,1.375,6.625
1589381125.689356,-0.43,-4.13,8.78,0.5422222222222223,0.19111111111111112,-0.8,-5.4375,-3.5,-0.5
1589381125.6998234,-0.43,-4.13,8.84,0.5422222222222223,0.19111111111111112,-0.8,-4.8125,-1.25,5.125
1589381125.7106655,-0.42,-4.13,8.89,0.5422222222222223,0.19111111111111112,-0.8,0.0625,-4.625,-2.75
1589381125.7183695,-0.43,-4.13,8.91,0.5422222222222223,0.18666666666666668,-0.7566666666666667,2.4375,1.75,-5.625
1589381125.7289867,-0.45,-4.12,8.81,0.5422222222222223,0.18666666666666668,-0.7566666666666667,-2.9375,-3.375,5.0
1589381125.7402134,-0.47,-4.11,8.76,0.5422222222222223,0.18666666666666668,-0.7566666666666667,-4.9375,-1.875,-0.125
1589381125.748605,-0.49,-4.11,8.85,0.5422222222222223,0.18666666666666668,-0.7566666666666667,1.0625,1.25,6.125
1589381125.7617126,-0.34,-4.18,8.91,0.5422222222222223,0.18666666666666668,-0.7566666666666667,-4.8125,-1.125,-2.375
1589381125.7684007,-0.26,-4.15,8.75,0.5277777777777778,0.1988888888888889,-0.7777777777777778,2.9375,10.0625,0.75
1589381125.7842774,-0.42,-4.14,8.86,0.5277777777777778,0.1988888888888889,-0.7777777777777778,-2.1875,-4.625,1.625
1589381125.7915127,-0.41,-4.15,8.8,0.5277777777777778,0.1988888888888889,-0.7777777777777778,-1.9375,-2.375,-1.625
1589381125.7996988,-0.45,-4.14,8.87,0.5277777777777778,0.1988888888888889,-0.7777777777777778,-1.9375,-0.75,9.4375
1589381125.811102,-0.46,-4.12,8.91,0.5277777777777778,0.1988888888888889,-0.7777777777777778,0.6875,7.4375,0.0
1589381125.8221962,-0.43,-4.12,8.91,0.5488888888888889,0.1988888888888889,-0.7777777777777778,-4.8125,2.0,-0.25
1589381125.8297765,-0.42,-4.11,8.91,0.5488888888888889,0.1988888888888889,-0.7777777777777778,1.0625,-1.25,-3.375
1589381125.8415325,-0.41,-4.15,8.77,0.5488888888888889,0.1988888888888889,-0.7777777777777778,10.375,3.875,4.0
1589381125.8494534,-0.43,-4.15,8.81,0.5488888888888889,0.1988888888888889,-0.7777777777777778,-1.5625,2.0,-3.75
1589381125.861383,-0.45,-4.11,8.81,0.5488888888888889,0.1988888888888889,-0.7777777777777778,1.8125,2.25,0.625
1589381125.868555,-0.43,-4.14,8.8,0.5222222222222223,0.1988888888888889,-0.7855555555555556,-4.9375,-2.375,-4.0
1589381125.87926,-0.5,-4.06,8.64,0.5222222222222223,0.1988888888888889,-0.7855555555555556,0.0625,-0.875,-3.0
1589381125.8930955,-0.43,-4.15,8.75,0.5222222222222223,0.1988888888888889,-0.7855555555555556,2.6875,5.25,-6.75
1589381125.8990145,-0.44,-4.15,8.87,0.5222222222222223,0.1988888888888889,-0.7855555555555556,3.1875,-2.5,-5.5
1589381125.9136045,-0.42,-4.12,8.96,0.5222222222222223,0.1988888888888889,-0.7855555555555556,-0.6875,-0.875,3.25
1589381125.9200888,-0.42,-4.13,8.94,0.5422222222222223,0.19111111111111112,-0.7855555555555556,-2.1875,-7.8125,10.5625
1589381125.935373,-0.44,-4.13,8.91,0.5422222222222223,0.19111111111111112,-0.7855555555555556,2.0625,1.5,-3.0
1589381125.9412332,-0.45,-4.11,8.83,0.5422222222222223,0.19111111111111112,-0.7855555555555556,-4.3125,-7.9375,-6.125
1589381125.9506185,-0.46,-4.12,8.87,0.5422222222222223,0.19111111111111112,-0.7855555555555556,2.9375,2.125,-2.375
1589381125.9617233,-0.46,-4.12,8.83,0.5422222222222223,0.19111111111111112,-0.7855555555555556,1.3125,4.375,-0.125
1589381125.9736445,-0.44,-4.13,8.8,0.5544444444444444,0.19111111111111112,-0.7711111111111111,-3.9375,5.25,7.5625
1589381125.979183,-0.43,-4.12,8.71,0.5544444444444444,0.19111111111111112,-0.7711111111111111,2.3125,-5.375,1.375
1589381125.994018,-0.44,-4.13,8.7,0.5544444444444444,0.19111111111111112,-0.7711111111111111,-0.0625,-1.25,-1.75
1589381126.000628,-0.44,-4.12,8.8,0.5544444444444444,0.19111111111111112,-0.7711111111111111,2.8125,0.25,-5.375
1589381126.0116365,-0.46,-4.13,8.92,0.5544444444444444,0.19111111111111112,-0.7711111111111111,1.1875,0.5,0.5
1589381126.0194135,-0.44,-4.14,8.92,0.5277777777777778,0.1988888888888889,-0.7711111111111111,0.0625,-2.5,0.5
1589381126.0303626,-0.43,-4.13,8.89,0.5277777777777778,0.1988888888888889,-0.7711111111111111,3.9375,2.5,2.125
1589381126.0399756,-0.44,-4.12,8.81,0.5277777777777778,0.1988888888888889,-0.7711111111111111,1.9375,-3.25,-10.6875
1589381126.050299,-0.41,-4.12,8.89,0.5277777777777778,0.1988888888888889,-0.7711111111111111,1.5625,3.75,-0.5
1589381126.0676026,-0.44,-4.11,8.89,0.5277777777777778,0.1988888888888889,-0.7711111111111111,1.1875,2.625,-3.625
1589381126.0739632,-0.45,-4.12,8.84,0.5344444444444445,0.18666666666666668,-0.78,5.4375,-1.875,-3.25
1589381126.0860474,-0.46,-4.14,8.84,0.5344444444444445,0.18666666666666668,-0.78,3.1875,1.375,-0.5
1589381126.0925136,-0.44,-4.11,8.73,0.5344444444444445,0.18666666666666668,-0.78,2.6875,2.125,1.125
1589381126.1049187,-0.45,-4.12,8.8,0.5344444444444445,0.18666666666666668,-0.78,-5.6875,-0.125,6.375
1589381126.112604,-0.43,-4.13,8.87,0.5344444444444445,0.18666666666666668,-0.78,-1.1875,2.5,5.875
1589381126.124224,-0.42,-4.12,8.92,0.5277777777777778,0.18666666666666668,-0.7777777777777778,-1.4375,-4.0,9.5625
1589381126.1302464,-0.44,-4.13,8.84,0.5277777777777778,0.18666666666666668,-0.7777777777777778,-1.4375,4.375,6.5
1589381126.1449695,-0.44,-4.11,8.76,0.5277777777777778,0.18666666666666668,-0.7777777777777778,-4.8125,-2.625,2.375
1589381126.1508985,-0.45,-4.13,8.8,0.5277777777777778,0.18666666666666668,-0.7777777777777778,-2.9375,-3.5,2.25
1589381126.1634047,-0.45,-4.13,8.91,0.5277777777777778,0.18666666666666668,-0.7777777777777778,-2.6875,0.5,-0.625
1589381126.1707392,-0.43,-4.12,8.88,0.5277777777777778,0.18666666666666668,-0.7711111111111111,-0.5625,0.0,-0.125
1589381126.18159,-0.42,-4.14,8.87,0.5277777777777778,0.18666666666666668,-0.7711111111111111,-0.6875,-2.25,-1.0
1589381126.190689,-0.42,-4.11,8.71,0.5277777777777778,0.18666666666666668,-0.7711111111111111,1.9375,-3.5,3.5
1589381126.2042005,-0.45,-4.14,8.8,0.5277777777777778,0.18666666666666668,-0.7711111111111111,0.3125,-0.5,-5.875
1589381126.2162926,-0.47,-4.14,8.84,0.5277777777777778,0.18666666666666668,-0.7711111111111111,-1.5625,-1.0,2.375
1589381126.2234118,-0.45,-4.12,8.89,0.5344444444444445,0.19111111111111112,-0.7644444444444445,0.6875,2.125,-5.875
1589381126.2317472,-0.44,-4.14,8.88,0.5344444444444445,0.19111111111111112,-0.7644444444444445,3.5625,5.25,0.625
1589381126.243593,-0.42,-4.13,8.8,0.5344444444444445,0.19111111111111112,-0.7644444444444445,2.3125,4.25,2.0
1589381126.250848,-0.42,-4.11,8.84,0.5344444444444445,0.19111111111111112,-0.7644444444444445,-2.6875,-3.875,-7.9375
1589381126.2630675,-0.42,-4.13,8.89,0.5344444444444445,0.19111111111111112,-0.7644444444444445,3.9375,4.125,-1.25
1589381126.2758794,-0.44,-4.13,8.9,0.5344444444444445,0.18666666666666668,-0.7777777777777778,-2.3125,0.5,-1.625
1589381126.2822404,-0.45,-4.13,8.87,0.5344444444444445,0.18666666666666668,-0.7777777777777778,0.8125,2.875,-7.1875
1589381126.2956069,-0.45,-4.12,8.73,0.5344444444444445,0.18666666666666668,-0.7777777777777778,-2.9375,-6.25,-5.25
1589381126.3016589,-0.46,-4.13,8.79,0.5344444444444445,0.18666666666666668,-0.7777777777777778,4.6875,2.0,-0.125
1589381126.3151722,-0.43,-4.12,8.86,0.5344444444444445,0.18666666666666668,-0.7777777777777778,2.1875,-1.625,-0.375
1589381126.320424,-0.44,-4.11,8.89,0.5277777777777778,0.19111111111111112,-0.7644444444444445,-0.0625,-2.875,3.0
1589381126.3321064,-0.42,-4.12,8.96,0.5277777777777778,0.19111111111111112,-0.7644444444444445,-1.4375,-1.5,4.75
1589381126.3415165,-0.44,-4.12,8.82,0.5277777777777778,0.19111111111111112,-0.7644444444444445,-4.4375,-1.375,2.5
1589381126.3544338,-0.42,-4.13,8.84,0.5277777777777778,0.19111111111111112,-0.7644444444444445,-5.1875,-5.75,8.9375
1589381126.365941,-0.42,-4.14,8.87,0.5277777777777778,0.19111111111111112,-0.7644444444444445,3.5625,-0.875,-0.25
1589381126.3731024,-0.42,-4.13,8.88,0.5344444444444445,0.1988888888888889,-0.7777777777777778,-0.9375,-3.875,-6.25
1589381126.3822892,-0.42,-4.13,8.84,0.5344444444444445,0.1988888888888889,-0.7777777777777778,-0.3125,-1.125,2.875
1589381126.3941073,-0.43,-4.13,8.73,0.5344444444444445,0.1988888888888889,-0.7777777777777778,-2.6875,-4.25,-1.0
1589381126.4016495,-0.43,-4.12,8.71,0.5344444444444445,0.1988888888888889,-0.7777777777777778,-4.4375,-3.625,4.125
1589381126.4139948,-0.45,-4.12,8.81,0.5344444444444445,0.1988888888888889,-0.7777777777777778,4.0625,-6.875,1.375
1589381126.424648,-0.44,-4.13,8.88,0.5488888888888889,0.18666666666666668,-0.7855555555555556,10.125,0.25,-5.375
1589381126.4317482,-0.46,-4.12,8.92,0.5488888888888889,0.18666666666666668,-0.7855555555555556,-1.4375,-0.375,0.75
1589381126.446835,-0.44,-4.12,8.85,0.5488888888888889,0.18666666666666668,-0.7855555555555556,1.0625,-2.625,4.0
1589381126.4528053,-0.43,-4.12,8.88,0.5488888888888889,0.18666666666666668,-0.7855555555555556,1.0625,-0.25,-2.5
1589381126.4682345,-0.42,-4.1,8.9,0.5488888888888889,0.18666666666666668,-0.7855555555555556,0.8125,0.0,2.0
1589381126.4740846,-0.45,-4.08,8.9,0.5488888888888889,0.17888888888888888,-0.7644444444444445,4.8125,-1.125,-6.375
1589381126.4854126,-0.52,-4.11,8.83,0.5488888888888889,0.17888888888888888,-0.7644444444444445,0.0625,4.0,8.4375
1589381126.492261,-0.54,-4.1,8.74,0.5488888888888889,0.17888888888888888,-0.7644444444444445,-4.3125,-1.25,-1.75
1589381126.5061193,-0.54,-4.09,8.78,0.5488888888888889,0.17888888888888888,-0.7644444444444445,0.9375,-2.375,0.5
1589381126.5143025,-0.52,-4.06,8.81,0.5488888888888889,0.17888888888888888,-0.7644444444444445,-1.6875,5.875,-5.5
1589381126.5260286,-0.51,-4.02,8.84,0.5155555555555555,0.18666666666666668,-0.78,0.0625,-2.375,1.625
1589381126.5330124,-0.54,-4.01,8.86,0.5155555555555555,0.18666666666666668,-0.78,0.8125,1.25,2.75
1589381126.5426128,-0.53,-3.94,8.81,0.5155555555555555,0.18666666666666668,-0.78,-3.4375,-4.625,0.25
1589381126.5523908,-0.57,-3.94,8.89,0.5155555555555555,0.18666666666666668,-0.78,2.0625,4.25,-1.125
1589381126.5645082,-0.54,-3.84,8.91,0.5155555555555555,0.18666666666666668,-0.78,-1.1875,9.9375,-5.25
1589381126.5706332,-0.46,-3.72,8.97,0.5344444444444445,0.19111111111111112,-0.7644444444444445,1.9375,5.0,-6.375
1589381126.5820956,-0.53,-3.31,8.94,0.5344444444444445,0.19111111111111112,-0.7644444444444445,2.0625,-1.625,3.5
1589381126.5922565,-1.18,-2.19,8.94,0.5344444444444445,0.19111111111111112,-0.7644444444444445,0.6875,-1.125,32.625
1589381126.6034806,-1.08,-2.16,8.82,0.5344444444444445,0.19111111111111112,-0.7644444444444445,-6.5625,-0.5,40.6875
1589381126.619102,-0.81,-2.34,8.93,0.5344444444444445,0.19111111111111112,-0.7644444444444445,-4.8125,-6.125,57.75
1589381126.6249373,-0.47,-2.53,8.95,0.5544444444444444,0.1988888888888889,-0.7922222222222223,-3.1875,-5.125,59.875
1589381126.6343956,-0.43,-2.6,8.99,0.5544444444444444,0.1988888888888889,-0.7922222222222223,-3.1875,-0.375,58.75
1589381126.6427224,-0.34,-2.7,8.91,0.5544444444444444,0.1988888888888889,-0.7922222222222223,-1.0625,-3.875,65.6875
1589381126.6576905,-0.4,-2.68,8.92,0.5544444444444444,0.1988888888888889,-0.7922222222222223,4.6875,-9.8125,54.8125
1589381126.6639798,-0.47,-2.69,9.08,0.5544444444444444,0.1988888888888889,-0.7922222222222223,-9.625,-7.4375,66.9375
1589381126.677419,-0.58,-2.68,9.04,0.5344444444444445,0.17888888888888888,-0.7566666666666667,2.4375,-4.5,65.6875
1589381126.6834881,-0.72,-2.65,9.11,0.5344444444444445,0.17888888888888888,-0.7566666666666667,-2.9375,-5.375,67.3125
1589381126.6935284,-0.84,-2.58,8.96,0.5344444444444445,0.17888888888888888,-0.7566666666666667,2.6875,-13.4375,69.8125
1589381126.7030013,-0.77,-2.68,8.91,0.5344444444444445,0.17888888888888888,-0.7566666666666667,-4.3125,-8.0625,82.6875
1589381126.7143195,-0.77,-2.74,8.96,0.5344444444444445,0.17888888888888888,-0.7566666666666667,-8.5,-12.6875,87.875
1589381126.7233095,-0.62,-2.76,8.94,0.5488888888888889,0.16,-0.7855555555555556,-0.9375,-12.9375,86.125
1589381126.7335458,-0.63,-2.62,8.92,0.5488888888888889,0.16,-0.7855555555555556,-0.0625,-13.0625,84.875
1589381126.743299,-0.64,-2.72,8.87,0.5488888888888889,0.16,-0.7855555555555556,-7.25,-13.3125,100.25
1589381126.7552323,-0.66,-2.74,8.92,0.5488888888888889,0.16,-0.7855555555555556,-7.0,-8.1875,96.3125
1589381126.7652574,-0.66,-2.77,9.0,0.5488888888888889,0.16,-0.7855555555555556,-1.4375,-8.9375,92.9375
1589381126.7753446,-0.68,-2.8,9.08,0.5333333333333333,0.13333333333333333,-0.8355555555555556,1.5625,-8.3125,84.125
1589381126.7889154,-0.71,-2.81,9.05,0.5333333333333333,0.13333333333333333,-0.8355555555555556,-2.6875,-9.4375,89.75
1589381126.795576,-0.74,-2.78,8.91,0.5333333333333333,0.13333333333333333,-0.8355555555555556,-1.5625,-8.5625,102.75
1589381126.80779,-0.96,-2.76,8.91,0.5333333333333333,0.13333333333333333,-0.8355555555555556,-0.6875,-13.6875,83.3125
1589381126.815993,-0.94,-2.74,8.94,0.5333333333333333,0.13333333333333333,-0.8355555555555556,2.5625,-8.6875,105.9375
1589381126.8275805,-0.93,-2.77,9.0,0.5255555555555556,0.09888888888888887,-0.8422222222222222,-10.125,-12.4375,93.8125
1589381126.8332744,-0.9,-2.76,8.94,0.5255555555555556,0.09888888888888887,-0.8422222222222222,-8.375,-12.3125,99.75
1589381126.8441205,-0.89,-2.81,8.85,0.5255555555555556,0.09888888888888887,-0.8422222222222222,-7.875,-12.1875,96.1875
1589381126.8543878,-0.95,-2.81,8.92,0.5255555555555556,0.09888888888888887,-0.8422222222222222,-2.5625,-6.5,101.75
1589381126.86597,-0.88,-2.8,8.98,0.5255555555555556,0.09888888888888887,-0.8422222222222222,4.0625,-3.125,97.0625
1589381126.873257,-0.87,-2.81,9.0,0.4933333333333334,0.06555555555555556,-0.9011111111111112,-7.375,-10.3125,91.5625
1589381126.8874106,-0.87,-2.76,9.01,0.4933333333333334,0.06555555555555556,-0.9011111111111112,0.1875,-6.0,100.875
1589381126.8946393,-0.91,-2.76,8.94,0.4933333333333334,0.06555555555555556,-0.9011111111111112,-1.9375,-6.0,91.8125
1589381126.9056244,-0.93,-2.76,8.96,0.4933333333333334,0.06555555555555556,-0.9011111111111112,0.8125,-6.875,80.8125
1589381126.9165027,-1.0,-2.77,9.0,0.4933333333333334,0.06555555555555556,-0.9011111111111112,-0.1875,-2.5,79.6875
1589381126.9280784,-1.01,-2.78,8.96,0.4066666666666667,-0.0011111111111111113,-0.88,-1.9375,-9.1875,77.9375
1589381126.9343116,-1.0,-2.78,8.93,0.4066666666666667,-0.0011111111111111113,-0.88,-3.4375,-8.0625,66.4375
1589381126.9440038,-1.03,-2.73,8.82,0.4066666666666667,-0.0011111111111111113,-0.88,-2.6875,-4.625,72.25
1589381126.9541636,-1.06,-2.75,8.91,0.4066666666666667,-0.0011111111111111113,-0.88,-7.25,-6.25,60.375
1589381126.9662735,-1.13,-2.75,8.98,0.4066666666666667,-0.0011111111111111113,-0.88,-8.375,-15.0,57.0
1589381126.9739187,-1.17,-2.77,9.0,0.3422222222222222,-0.09333333333333334,-0.8711111111111111,1.6875,-8.3125,56.375
1589381126.984532,-1.23,-2.81,8.97,0.3422222222222222,-0.09333333333333334,-0.8711111111111111,-2.4375,-7.3125,59.25
1589381126.995434,-1.22,-2.8,8.92,0.3422222222222222,-0.09333333333333334,-0.8711111111111111,-5.1875,-11.0625,54.5625
1589381127.004634,-1.18,-2.76,8.97,0.3422222222222222,-0.09333333333333334,-0.8711111111111111,-0.3125,-3.125,49.3125
1589381127.0173635,-1.24,-2.79,8.97,0.3422222222222222,-0.09333333333333334,-0.8711111111111111,-8.125,-8.9375,49.6875
1589381127.0242295,-1.28,-2.81,8.97,0.32666666666666666,-0.1811111111111111,-0.8011111111111111,-3.8125,-3.5,40.9375
1589381127.0358574,-1.29,-2.83,8.92,0.32666666666666666,-0.1811111111111111,-0.8011111111111111,-0.0625,-9.4375,30.375
1589381127.0451891,-1.28,-2.78,8.82,0.32666666666666666,-0.1811111111111111,-0.8011111111111111,-4.3125,-1.625,36.4375
1589381127.05697,-1.35,-2.81,8.9,0.32666666666666666,-0.1811111111111111,-0.8011111111111111,-0.8125,1.875,26.3125
1589381127.0666852,-1.44,-2.88,8.94,0.32666666666666666,-0.1811111111111111,-0.8011111111111111,-2.5625,-3.625,31.875
1589381127.0780716,-1.48,-2.85,8.96,0.3922222222222223,-0.2466666666666667,-0.7233333333333334,-0.0625,5.625,31.75
1589381127.0845215,-1.51,-2.88,9.02,0.3922222222222223,-0.2466666666666667,-0.7233333333333334,-2.3125,-3.75,23.8125
1589381127.0948124,-1.48,-2.81,8.9,0.3922222222222223,-0.2466666666666667,-0.7233333333333334,2.8125,0.0,22.6875
1589381127.105031,-1.39,-2.77,8.97,0.3922222222222223,-0.2466666666666667,-0.7233333333333334,0.6875,-2.125,18.875
1589381127.117013,-1.36,-2.72,8.97,0.3922222222222223,-0.2466666666666667,-0.7233333333333334,-2.9375,-0.125,10.0625
1589381127.124133,-1.4,-2.74,8.99,0.4455555555555555,-0.24,-0.7088888888888889,-5.3125,0.25,14.25
1589381127.1349006,-1.52,-2.85,8.9,0.4455555555555555,-0.24,-0.7088888888888889,0.6875,-1.125,10.6875
1589381127.1449974,-1.51,-2.81,8.84,0.4455555555555555,-0.24,-0.7088888888888889,-1.8125,1.125,3.125
1589381127.1553755,-1.45,-2.74,8.9,0.4455555555555555,-0.24,-0.7088888888888889,1.1875,-4.75,5.0
1589381127.170035,-1.61,-3.15,8.94,0.4455555555555555,-0.24,-0.7088888888888889,-3.9375,5.125,1.625
1589381127.176226,-1.63,-3.1,8.99,0.5133333333333333,-0.2311111111111111,-0.6877777777777778,8.25,-1.875,-4.625
1589381127.1893704,-1.52,-2.72,8.88,0.5133333333333333,-0.2311111111111111,-0.6877777777777778,1.4375,-0.625,-2.875
1589381127.1954346,-1.55,-2.85,9.07,0.5133333333333333,-0.2311111111111111,-0.6877777777777778,-2.5625,-1.125,-9.6875
1589381127.2058115,-1.55,-2.87,9.0,0.5133333333333333,-0.2311111111111111,-0.6877777777777778,-3.3125,-0.125,-8.8125
1589381127.2179167,-1.55,-2.86,8.97,0.5133333333333333,-0.2311111111111111,-0.6877777777777778,5.9375,3.0,-12.5625
1589381127.2297676,-1.55,-2.91,9.01,0.5733333333333334,-0.1955555555555556,-0.6666666666666666,-2.1875,-4.5,-25.6875
1589381127.2356608,-1.52,-2.86,8.91,0.5733333333333334,-0.1955555555555556,-0.6666666666666666,-5.1875,5.5,-14.875
1589381127.2459269,-1.56,-2.93,8.86,0.5733333333333334,-0.1955555555555556,-0.6666666666666666,-2.4375,2.875,-20.5
1589381127.2552993,-1.55,-2.95,8.86,0.5733333333333334,-0.1955555555555556,-0.6666666666666666,-2.1875,0.75,-19.75
1589381127.2673845,-1.55,-2.94,8.93,0.5733333333333334,-0.1955555555555556,-0.6666666666666666,2.1875,5.0,-22.8125
1589381127.2746644,-1.56,-2.95,9.0,0.6111111111111112,-0.17777777777777778,-0.7088888888888889,-0.6875,5.625,-30.375
1589381127.2860215,-1.55,-2.97,8.97,0.6111111111111112,-0.17777777777777778,-0.7088888888888889,0.5625,1.375,-38.0625
1589381127.2962234,-1.55,-2.94,8.9,0.6111111111111112,-0.17777777777777778,-0.7088888888888889,5.0625,7.5625,-32.875
1589381127.308362,-1.54,-2.96,8.95,0.6111111111111112,-0.17777777777777778,-0.7088888888888889,2.8125,7.3125,-32.75
1589381127.3217664,-1.52,-3.01,9.01,0.6111111111111112,-0.17777777777777778,-0.7088888888888889,0.9375,2.875,-31.625
1589381127.3272245,-1.49,-2.99,8.98,0.6522222222222223,-0.2533333333333333,-0.7155555555555555,1.0625,7.3125,-34.0
1589381127.3398798,-1.5,-2.94,8.99,0.6522222222222223,-0.2533333333333333,-0.7155555555555555,-2.1875,6.0,-41.3125
1589381127.3458266,-1.46,-2.93,8.82,0.6522222222222223,-0.2533333333333333,-0.7155555555555555,2.5625,5.0,-32.375
1589381127.3604329,-1.44,-2.92,8.91,0.6522222222222223,-0.2533333333333333,-0.7155555555555555,6.4375,8.1875,-43.0
1589381127.368629,-1.47,-2.94,8.94,0.6522222222222223,-0.2533333333333333,-0.7155555555555555,3.0625,0.625,-34.25
1589381127.3791053,-1.45,-2.93,8.93,0.5522222222222222,-0.22333333333333333,-0.67,-4.9375,6.25,-32.5
1589381127.3860085,-1.54,-2.99,8.91,0.5522222222222222,-0.22333333333333333,-0.67,0.1875,7.4375,-45.75
1589381127.3974304,-1.43,-3.06,8.86,0.5522222222222222,-0.22333333333333333,-0.67,1.5625,0.375,-41.4375
1589381127.4067097,-1.45,-3.05,8.93,0.5522222222222222,-0.22333333333333333,-0.67,2.5625,9.0625,-37.5625
1589381127.4181464,-1.52,-3.02,8.97,0.5522222222222222,-0.22333333333333333,-0.67,-0.4375,7.1875,-38.1875
1589381127.42551,-1.48,-3.05,9.02,0.5522222222222222,-0.14333333333333334,-0.6644444444444444,5.3125,6.125,-46.25
1589381127.4367368,-1.57,-3.08,9.02,0.5522222222222222,-0.14333333333333334,-0.6644444444444444,3.8125,10.0625,-41.4375
1589381127.446226,-1.64,-3.11,8.87,0.5522222222222222,-0.14333333333333334,-0.6644444444444444,-4.3125,4.125,-30.25
1589381127.4601176,-1.47,-3.04,8.76,0.5522222222222222,-0.14333333333333334,-0.6644444444444444,-6.6875,-5.25,-30.875
1589381127.470291,-1.54,-3.14,9.1,0.5522222222222222,-0.14333333333333334,-0.6644444444444444,-7.0,1.125,-25.8125
1589381127.4772437,-1.61,-3.18,8.89,0.54,-0.08444444444444445,-0.6444444444444445,2.9375,-8.3125,-21.3125
1589381127.491276,-1.55,-3.17,8.88,0.54,-0.08444444444444445,-0.6444444444444445,3.9375,-1.375,-25.8125
1589381127.4979782,-1.62,-3.27,8.87,0.54,-0.08444444444444445,-0.6444444444444445,2.0625,0.375,-25.9375
1589381127.5120356,-1.57,-3.25,8.88,0.54,-0.08444444444444445,-0.6444444444444445,1.9375,3.625,-21.4375
1589381127.5186565,-1.48,-3.19,8.96,0.54,-0.08444444444444445,-0.6444444444444445,1.3125,-4.625,-17.25
1589381127.5307114,-1.39,-3.1,9.04,0.5522222222222222,-0.057777777777777775,-0.65,5.4375,0.25,-14.5
1589381127.5366552,-1.39,-3.09,9.01,0.5522222222222222,-0.057777777777777775,-0.65,0.4375,-3.125,-20.75
1589381127.547304,-1.36,-3.14,8.85,0.5522222222222222,-0.057777777777777775,-0.65,-1.0625,5.5,-11.0625
1589381127.55756,-1.35,-3.14,8.9,0.5522222222222222,-0.057777777777777775,-0.65,9.375,-1.875,-27.3125
1589381127.568901,-1.39,-3.2,8.93,0.5522222222222222,-0.057777777777777775,-0.65,-4.4375,-1.0,-17.0
1589381127.5766346,-1.39,-3.38,8.89,0.5466666666666666,-0.031111111111111114,-0.6666666666666666,-1.5625,6.625,-25.1875
1589381127.5885866,-1.27,-3.16,8.98,0.5466666666666666,-0.031111111111111114,-0.6666666666666666,0.0625,0.25,-26.0625
1589381127.5974994,-1.27,-3.15,8.84,0.5466666666666666,-0.031111111111111114,-0.6666666666666666,-0.9375,7.1875,-12.3125
1589381127.60693,-1.26,-3.18,8.91,0.5466666666666666,-0.031111111111111114,-0.6666666666666666,0.9375,0.625,-23.9375
1589381127.61988,-1.25,-3.13,8.93,0.5466666666666666,-0.031111111111111114,-0.6666666666666666,-4.5625,-4.5,-20.25
1589381127.6319165,-1.22,-3.12,8.97,0.5877777777777777,-0.031111111111111114,-0.6877777777777778,0.0625,5.25,-28.625
1589381127.6433725,-1.26,-3.19,8.95,0.5877777777777777,-0.031111111111111114,-0.6877777777777778,0.5625,-1.375,-33.0
1589381127.6492734,-1.27,-3.19,8.88,0.5877777777777777,-0.031111111111111114,-0.6877777777777778,-2.6875,4.25,-16.375
1589381127.6632578,-1.26,-3.2,8.89,0.5877777777777777,-0.031111111111111114,-0.6877777777777778,1.1875,3.0,-30.375
1589381127.6701248,-1.31,-3.27,8.96,0.5877777777777777,-0.031111111111111114,-0.6877777777777778,2.1875,10.6875,-25.8125
1589381127.681679,-1.35,-3.31,8.94,0.5955555555555555,-0.027777777777777776,-0.6855555555555556,-0.5625,3.5,-22.3125
1589381127.6870852,-1.34,-3.33,8.95,0.5955555555555555,-0.027777777777777776,-0.6855555555555556,2.9375,1.0,-21.0625
1589381127.6980612,-1.34,-3.29,8.84,0.5955555555555555,-0.027777777777777776,-0.6855555555555556,2.0625,1.125,-24.6875
1589381127.7075474,-1.5,-3.46,8.98,0.5955555555555555,-0.027777777777777776,-0.6855555555555556,-2.0625,2.5,-15.625
1589381127.7205484,-1.2,-3.22,8.68,0.5955555555555555,-0.027777777777777776,-0.6855555555555556,-1.1875,5.125,-23.3125
1589381127.727651,-1.02,-3.25,8.78,0.6533333333333333,-0.08666666666666667,-0.6711111111111111,3.5625,-4.875,-20.875
1589381127.7375958,-1.39,-3.41,9.2,0.6533333333333333,-0.08666666666666667,-0.6711111111111111,-4.1875,1.875,-28.875
1589381127.748134,-1.2,-3.58,8.7,0.6533333333333333,-0.08666666666666667,-0.6711111111111111,-0.5625,-0.75,-23.4375
1589381127.7582026,-1.13,-3.54,8.92,0.6533333333333333,-0.08666666666666667,-0.6711111111111111,-0.9375,1.0,-26.3125
1589381127.7699366,-1.2,-3.5,8.98,0.6533333333333333,-0.08666666666666667,-0.6711111111111111,-5.8125,1.625,-14.5
1589381127.7806375,-1.15,-3.59,8.93,0.9366666666666666,-0.3111111111111111,-0.5955555555555555,-3.8125,4.5,-27.6875
1589381127.788507,-1.2,-3.5,8.89,0.9366666666666666,-0.3111111111111111,-0.5955555555555555,-4.9375,-2.875,-27.0625
1589381127.7994304,-1.22,-3.52,8.83,0.9366666666666666,-0.3111111111111111,-0.5955555555555555,0.9375,-2.5,-33.0
1589381127.808704,-1.04,-3.44,8.89,0.9366666666666666,-0.3111111111111111,-0.5955555555555555,-0.6875,8.4375,-25.0625
1589381127.821659,-1.18,-3.51,8.89,0.9366666666666666,-0.3111111111111111,-0.5955555555555555,7.625,8.1875,-30.875
1589381127.8279154,-1.12,-3.43,8.98,1.6444444444444444,-0.1988888888888889,-0.4133333333333333,3.9375,10.1875,-41.6875
1589381127.8378015,-1.17,-3.41,9.05,1.6444444444444444,-0.1988888888888889,-0.4133333333333333,-0.3125,4.875,-35.4375
1589381127.8534267,-1.19,-3.34,8.84,1.6444444444444444,-0.1988888888888889,-0.4133333333333333,1.6875,2.375,-34.625
1589381127.859713,-1.18,-3.29,8.99,1.6444444444444444,-0.1988888888888889,-0.4133333333333333,2.1875,9.4375,-27.6875
1589381127.874596,-1.16,-3.27,8.94,1.6444444444444444,-0.1988888888888889,-0.4133333333333333,1.6875,5.375,-22.1875
1589381127.880058,-1.11,-3.23,8.95,0.8133333333333334,-0.02666666666666667,-0.68,0.5625,1.875,-13.6875
1589381127.8914585,-1.16,-3.31,8.87,0.8133333333333334,-0.02666666666666667,-0.68,5.5625,1.25,-8.6875
1589381127.8981245,-1.08,-3.31,8.86,0.8133333333333334,-0.02666666666666667,-0.68,4.6875,8.5625,-15.25
1589381127.9117367,-1.11,-3.41,8.8,0.8133333333333334,-0.02666666666666667,-0.68,1.3125,-2.625,-14.875
1589381127.9204278,-1.05,-3.45,8.93,0.8133333333333334,-0.02666666666666667,-0.68,2.1875,-1.625,-16.625
1589381127.9313142,-1.06,-3.55,8.94,0.6411111111111111,0.03888888888888889,-0.6877777777777778,0.6875,-3.75,-6.5
1589381127.9380286,-1.09,-3.58,8.89,0.6411111111111111,0.03888888888888889,-0.6877777777777778,-2.1875,2.5,7.5625
1589381127.9486337,-1.02,-3.54,8.88,0.6411111111111111,0.03888888888888889,-0.6877777777777778,1.8125,4.5,10.0625
1589381127.9586565,-0.9,-3.33,8.92,0.6411111111111111,0.03888888888888889,-0.6877777777777778,5.6875,0.625,0.0
1589381127.9708807,-0.89,-3.3,8.93,0.6411111111111111,0.03888888888888889,-0.6877777777777778,1.1875,-1.875,-0.625
1589381127.9771528,-0.96,-3.3,9.02,0.6111111111111112,0.03,-0.7022222222222222,2.0625,2.75,-4.0
1589381127.988091,-0.96,-3.3,9.02,0.6111111111111112,0.03,-0.7022222222222222,2.0625,2.75,-4.0
1589381127.99814,-1.22,-3.48,8.84,0.6111111111111112,0.03,-0.7022222222222222,-4.3125,1.125,0.5
1589381128.0114973,-1.12,-3.53,8.83,0.6111111111111112,0.03,-0.7022222222222222,1.5625,-1.625,1.375
1589381128.0247185,-1.06,-3.64,8.94,0.6111111111111112,0.03,-0.7022222222222222,0.6875,-0.5,8.0625
1589381128.0309427,-0.67,-3.54,8.96,0.5933333333333334,0.03666666666666667,-0.6588888888888889,-2.1875,5.75,1.125
1589381128.0377119,-0.73,-3.56,8.9,0.5933333333333334,0.03666666666666667,-0.6588888888888889,3.6875,0.625,0.5
1589381128.049327,-0.74,-3.5,8.86,0.5933333333333334,0.03666666666666667,-0.6588888888888889,-3.6875,-1.625,-8.5625
1589381128.062298,-1.03,-3.85,8.9,0.5933333333333334,0.03666666666666667,-0.6588888888888889,-1.8125,0.0,-2.625
1589381128.0704553,-1.17,-3.73,8.91,0.5933333333333334,0.03666666666666667,-0.6588888888888889,3.4375,1.875,4.625
1589381128.0820973,-1.46,-4.36,8.84,0.5788888888888889,0.057777777777777775,-0.6355555555555555,5.9375,1.375,5.875
1589381128.0879185,-3.18,-6.12,7.15,0.5788888888888889,0.057777777777777775,-0.6355555555555555,-52.5,191.6875,-222.6875
1589381128.10246,10.77,19.65,3.82,0.5788888888888889,0.057777777777777775,-0.6355555555555555,-26.25,-9.8125,-291.9375
1589381128.108712,-1.83,-2.8,-1.16,0.5788888888888889,0.057777777777777775,-0.6355555555555555,-55.125,11.4375,-282.125
1589381128.1204762,-1.56,-1.79,7.04,0.5788888888888889,0.057777777777777775,-0.6355555555555555,113.0625,-12.0625,-262.6875
1589381128.127856,-0.71,-1.07,10.5,0.5611111111111111,0.08444444444444445,-0.6233333333333333,57.3125,143.625,-240.75
1589381128.1382973,-3.1,0.96,10.8,0.5611111111111111,0.08444444444444445,-0.6233333333333333,-40.375,-1.125,-226.5
1589381128.1482224,-0.68,-1.27,8.6,0.5611111111111111,0.08444444444444445,-0.6233333333333333,9.875,24.6875,-215.0
1589381128.1589987,-0.14,-0.37,9.04,0.5611111111111111,0.08444444444444445,-0.6233333333333333,6.1875,21.4375,-188.625
1589381128.175104,-1.89,0.37,8.54,0.5611111111111111,0.08444444444444445,-0.6233333333333333,8.25,9.5625,-139.8125
1589381128.180884,-1.41,0.43,9.58,0.5155555555555555,0.17888888888888888,-0.6133333333333333,-0.8125,7.8125,-101.375
1589381128.1888082,-1.21,0.43,9.73,0.5155555555555555,0.17888888888888888,-0.6133333333333333,-2.8125,5.25,-67.1875
1589381128.2006814,-0.82,0.34,9.16,0.5155555555555555,0.17888888888888888,-0.6133333333333333,3.8125,-1.125,-30.0
1589381128.2137976,0.6,-1.19,8.48,0.5155555555555555,0.17888888888888888,-0.6133333333333333,-0.6875,1.0,-8.3125
1589381128.2207258,0.15,-2.56,9.24,0.5155555555555555,0.17888888888888888,-0.6133333333333333,-3.6875,-4.25,11.8125
1589381128.232792,-0.57,-2.86,9.05,0.5044444444444445,0.2577777777777778,-0.6111111111111112,0.3125,1.375,18.875
1589381128.2388651,-0.6,-2.8,8.81,0.5044444444444445,0.2577777777777778,-0.6111111111111112,0.3125,-1.25,31.375
1589381128.253565,-0.21,-2.95,8.68,0.5044444444444445,0.2577777777777778,-0.6111111111111112,0.6875,-1.25,37.9375
1589381128.2597742,0.0,-2.88,8.96,0.5044444444444445,0.2577777777777778,-0.6111111111111112,2.4375,-4.875,20.75
1589381128.2707934,-0.01,-2.96,9.05,0.5044444444444445,0.2577777777777778,-0.6111111111111112,-2.0625,1.25,22.6875
1589381128.2790186,-0.15,-2.94,9.09,0.49,0.27555555555555555,-0.6322222222222222,2.3125,-5.875,27.6875
1589381128.29051,-0.24,-3.03,8.82,0.49,0.27555555555555555,-0.6322222222222222,2.8125,-7.1875,22.5625
1589381128.2997582,-0.45,-3.14,8.97,0.49,0.27555555555555555,-0.6322222222222222,0.9375,-4.75,32.625
1589381128.3106024,-0.58,-3.22,9.0,0.49,0.27555555555555555,-0.6322222222222222,3.1875,-6.125,51.8125
1589381128.3265734,-0.48,-3.16,8.92,0.49,0.27555555555555555,-0.6322222222222222,-3.8125,-2.0,47.125
1589381128.3329055,-0.33,-3.13,8.82,0.5111111111111111,0.2677777777777778,-0.6377777777777778,-5.4375,-6.125,48.25
1589381128.3412235,-0.17,-3.05,8.96,0.5111111111111111,0.2677777777777778,-0.6377777777777778,-2.4375,-4.75,49.5625
1589381128.3528328,-0.31,-3.16,8.86,0.5111111111111111,0.2677777777777778,-0.6377777777777778,-0.1875,-2.375,59.75
1589381128.3651528,-0.46,-3.22,8.97,0.5111111111111111,0.2677777777777778,-0.6377777777777778,-3.6875,-1.125,63.4375
1589381128.3724868,-0.5,-3.22,8.87,0.5111111111111111,0.2677777777777778,-0.6377777777777778,2.9375,-2.375,64.0625
1589381128.3847096,-0.46,-3.26,8.91,0.5255555555555556,0.25,-0.6255555555555555,1.8125,-8.5625,71.625
1589381128.3903234,-0.53,-3.27,8.83,0.5255555555555556,0.25,-0.6255555555555555,-6.0625,-6.375,69.1875
1589381128.4045827,-0.43,-3.28,8.87,0.5255555555555556,0.25,-0.6255555555555555,2.8125,-6.0,73.75
1589381128.4114149,-0.43,-3.35,8.94,0.5255555555555556,0.25,-0.6255555555555555,-1.1875,-12.4375,69.5625
1589381128.4219909,-0.41,-3.38,8.79,0.5255555555555556,0.25,-0.6255555555555555,0.1875,-6.25,66.0625
1589381128.4295194,3.46,-26.54,9.87,0.5077777777777778,0.2311111111111111,-0.6377777777777778,16.9375,-7.9375,-51.0625
1589381128.4432821,-2.81,-10.86,3.91,0.5077777777777778,0.2311111111111111,-0.6377777777777778,14.0625,22.5625,-42.5
1589381128.4506373,-0.82,1.53,11.58,0.5077777777777778,0.2311111111111111,-0.6377777777777778,2.3125,-7.3125,-28.25
1589381128.4643404,-0.68,-2.98,9.07,0.5077777777777778,0.2311111111111111,-0.6377777777777778,3.0625,6.125,-7.4375
1589381128.4717536,-0.67,-9.22,8.71,0.5077777777777778,0.2311111111111111,-0.6377777777777778,-0.9375,-0.625,-9.0625
1589381128.4827151,-0.53,-2.36,8.88,0.54,0.21777777777777774,-0.6311111111111111,3.9375,0.75,-9.5625
1589381128.490434,-0.86,-4.94,8.74,0.54,0.21777777777777774,-0.6311111111111111,-1.9375,2.0,-6.875
1589381128.5000591,-0.52,-4.34,8.85,0.54,0.21777777777777774,-0.6311111111111111,4.4375,3.625,1.625
1589381128.5101793,-0.53,-4.04,8.82,0.54,0.21777777777777774,-0.6311111111111111,-2.4375,5.375,0.0
1589381128.5219865,-0.55,-4.15,8.85,0.54,0.21777777777777774,-0.6311111111111111,-8.375,-5.0,6.75
1589381128.5299597,-0.55,-4.16,8.86,0.5133333333333333,0.22333333333333333,-0.64,-2.0625,2.75,4.75
1589381128.541286,-0.49,-4.08,8.86,0.5133333333333333,0.22333333333333333,-0.64,5.8125,4.875,-9.5625
1589381128.550068,-0.54,-4.2,8.76,0.5133333333333333,0.22333333333333333,-0.64,4.5625,3.75,-1.875
1589381128.561767,-0.52,-4.07,8.8,0.5133333333333333,0.22333333333333333,-0.64,0.9375,-0.5,-5.0
1589381128.5757847,-0.51,-4.1,8.85,0.5133333333333333,0.22333333333333333,-0.64,0.3125,-1.75,0.875
1589381128.5816991,-0.53,-4.17,8.86,0.52,0.2311111111111111,-0.6255555555555555,-1.1875,-5.5,-1.875
1589381128.5946758,-0.53,-4.16,8.89,0.52,0.2311111111111111,-0.6255555555555555,4.4375,0.0,3.875
1589381128.601233,-0.53,-4.13,8.76,0.52,0.2311111111111111,-0.6255555555555555,2.6875,3.375,-7.1875
1589381128.6157134,-0.53,-4.12,8.86,0.52,0.2311111111111111,-0.6255555555555555,1.6875,-4.375,2.5
1589381128.6230779,-0.52,-4.08,8.87,0.52,0.2311111111111111,-0.6255555555555555,1.8125,-2.375,-6.5
1589381128.6317143,-0.52,-4.15,8.9,0.5133333333333333,0.2311111111111111,-0.6444444444444445,-2.4375,-1.25,0.75
1589381128.6418545,-0.52,-4.18,8.82,0.5133333333333333,0.2311111111111111,-0.6444444444444445,-2.1875,2.0,4.75
1589381128.6513007,-0.52,-4.13,8.77,0.5133333333333333,0.2311111111111111,-0.6444444444444445,0.0625,-6.0,-5.125
1589381128.6622348,-0.52,-4.13,8.81,0.5133333333333333,0.2311111111111111,-0.6444444444444445,0.1875,3.5,-2.75
1589381128.6733508,-0.53,-4.14,8.85,0.5133333333333333,0.2311111111111111,-0.6444444444444445,-1.3125,0.25,0.875
1589381128.680957,-0.53,-4.13,8.89,0.5333333333333333,0.22333333333333333,-0.6522222222222223,4.3125,-1.5,-2.125
1589381128.6914651,-0.53,-4.14,8.88,0.5333333333333333,0.22333333333333333,-0.6522222222222223,3.1875,-2.0,8.0625
1589381128.702701,-0.52,-4.15,8.76,0.5333333333333333,0.22333333333333333,-0.6522222222222223,1.6875,5.0,-4.75
1589381128.7145154,-0.54,-4.1,8.83,0.5333333333333333,0.22333333333333333,-0.6522222222222223,1.8125,1.0,7.5625
1589381128.7290275,-0.53,-4.11,8.9,0.5333333333333333,0.22333333333333333,-0.6522222222222223,-2.3125,-2.25,7.1875
1589381128.734823,-0.53,-4.11,8.89,0.52,0.2311111111111111,-0.6377777777777778,3.1875,1.125,-2.125
1589381128.7462661,-0.51,-4.12,8.87,0.52,0.2311111111111111,-0.6377777777777778,-3.5625,-1.5,-1.25
1589381128.7524393,-0.52,-4.13,8.73,0.52,0.2311111111111111,-0.6377777777777778,-2.9375,-0.375,4.5
1589381128.7658894,-0.51,-4.17,8.81,0.52,0.2311111111111111,-0.6377777777777778,-0.0625,0.75,-1.0
1589381128.7737296,-0.51,-4.13,8.86,0.52,0.2311111111111111,-0.6377777777777778,1.0625,2.125,-3.75
1589381128.7810636,-0.52,-4.14,8.9,0.5277777777777778,0.2311111111111111,-0.6377777777777778,4.3125,-0.25,3.5
1589381128.792917,-0.53,-4.12,8.85,0.5277777777777778,0.2311111111111111,-0.6377777777777778,6.3125,-0.25,1.125
1589381128.804618,-0.53,-4.14,8.75,0.5277777777777778,0.2311111111111111,-0.6377777777777778,2.4375,-5.875,5.75
1589381128.8120213,-0.52,-4.13,8.79,0.5277777777777778,0.2311111111111111,-0.6377777777777778,2.9375,-1.75,-2.375
1589381128.8238235,-0.52,-4.12,8.9,0.5277777777777778,0.2311111111111111,-0.6377777777777778,-5.8125,-1.0,-0.75
1589381128.8317807,-0.52,-4.12,8.88,0.51,0.2311111111111111,-0.6377777777777778,-2.8125,3.625,0.625
1589381128.8428724,-0.53,-4.12,8.89,0.51,0.2311111111111111,-0.6377777777777778,-4.4375,-7.1875,0.75
1589381128.8528304,-0.53,-4.14,8.78,0.51,0.2311111111111111,-0.6377777777777778,-1.1875,1.0,2.375
1589381128.8650944,-0.53,-4.15,8.82,0.51,0.2311111111111111,-0.6377777777777778,-4.0625,4.625,-2.625
1589381128.8800325,-0.5,-4.1,8.88,0.51,0.2311111111111111,-0.6377777777777778,-1.5625,-6.0,-2.75
1589381128.8858323,-0.53,-4.14,8.88,0.5222222222222223,0.22333333333333333,-0.6166666666666667,-0.9375,0.75,-5.375
1589381128.8949404,-0.53,-4.13,8.8,0.5222222222222223,0.22333333333333333,-0.6166666666666667,-5.3125,-5.375,7.1875
1589381128.9034493,-0.53,-4.15,8.77,0.5222222222222223,0.22333333333333333,-0.6166666666666667,0.3125,5.875,1.875
1589381128.9124374,-0.53,-4.13,8.8,0.5222222222222223,0.22333333333333333,-0.6166666666666667,6.0625,-3.125,7.5625
1589381128.9244132,-0.51,-4.16,8.84,0.5222222222222223,0.22333333333333333,-0.6166666666666667,0.1875,-0.375,-3.25
1589381128.936024,-0.54,-4.13,8.88,0.5222222222222223,0.21777777777777774,-0.6311111111111111,1.0625,3.375,2.875
1589381128.9429545,-0.52,-4.14,8.87,0.5222222222222223,0.21777777777777774,-0.6311111111111111,2.8125,-2.375,2.625
1589381128.9566195,-0.53,-4.13,8.77,0.5222222222222223,0.21777777777777774,-0.6311111111111111,0.6875,0.0,-4.0
1589381128.9625664,-0.53,-4.14,8.81,0.5222222222222223,0.21777777777777774,-0.6311111111111111,8.375,3.875,-5.125
1589381128.9751475,-0.53,-4.14,8.85,0.5222222222222223,0.21777777777777774,-0.6311111111111111,6.8125,4.0,-2.0
1589381128.9827027,-0.52,-4.14,8.91,0.5222222222222223,0.21777777777777774,-0.6311111111111111,-2.3125,2.5,-0.875
1589381128.9965491,-0.55,-4.14,8.9,0.5222222222222223,0.21777777777777774,-0.6311111111111111,3.0625,-1.5,-0.375
1589381129.0029511,-0.5,-4.14,8.79,0.5222222222222223,0.21777777777777774,-0.6311111111111111,-9.875,-3.125,4.75
1589381129.0136435,-0.54,-4.15,8.79,0.5222222222222223,0.21777777777777774,-0.6311111111111111,-2.0625,-3.625,-2.75
1589381129.0250466,-0.53,-4.15,8.83,0.5222222222222223,0.21777777777777774,-0.6311111111111111,0.3125,0.375,3.0
1589381129.0358539,-0.54,-4.13,8.87,0.5277777777777778,0.22333333333333333,-0.6377777777777778,-2.6875,5.25,9.0625
1589381129.046231,-0.53,-4.13,8.88,0.5277777777777778,0.22333333333333333,-0.6377777777777778,1.6875,-7.4375,10.0625
1589381129.0536034,-0.53,-4.14,8.78,0.5277777777777778,0.22333333333333333,-0.6377777777777778,-8.25,7.8125,-1.375
1589381129.0683565,-0.53,-4.15,8.8,0.5277777777777778,0.22333333333333333,-0.6377777777777778,-5.0625,2.125,-0.375
1589381129.0756946,-0.53,-4.14,8.84,0.5277777777777778,0.22333333333333333,-0.6377777777777778,0.0625,3.5,-4.25
1589381129.0884724,-0.52,-4.13,8.88,0.51,0.23555555555555555,-0.64,-0.3125,1.25,1.0
1589381129.0953047,-0.52,-4.12,8.89,0.51,0.23555555555555555,-0.64,-0.4375,1.125,2.875
1589381129.10453,-0.51,-4.14,8.79,0.51,0.23555555555555555,-0.64,-0.9375,8.0625,0.625
1589381129.114171,-0.54,-4.16,8.83,0.51,0.23555555555555555,-0.64,1.8125,4.375,3.375
1589381129.1260862,-0.5,-4.13,8.84,0.51,0.23555555555555555,-0.64,2.4375,5.125,-3.625
1589381129.1333122,-0.5,-4.14,8.89,0.5222222222222223,0.21777777777777774,-0.6311111111111111,0.1875,-1.5,-0.375
1589381129.1476905,-0.51,-4.12,8.83,0.5222222222222223,0.21777777777777774,-0.6311111111111111,2.9375,-3.625,-5.625
1589381129.1536527,-0.52,-4.15,8.76,0.5222222222222223,0.21777777777777774,-0.6311111111111111,-4.8125,-0.75,8.0625
1589381129.1663725,-0.54,-4.13,8.81,0.5222222222222223,0.21777777777777774,-0.6311111111111111,2.9375,0.0,2.75
1589381129.1756752,-0.52,-4.13,8.82,0.5222222222222223,0.21777777777777774,-0.6311111111111111,0.9375,-2.25,-2.0
1589381129.1874914,-0.52,-4.14,8.89,0.5277777777777778,0.2311111111111111,-0.64,-2.1875,0.25,3.125
1589381129.1936016,-0.52,-4.15,8.86,0.5277777777777778,0.2311111111111111,-0.64,-1.8125,-0.625,-5.75
1589381129.2056375,-0.53,-4.14,8.77,0.5277777777777778,0.2311111111111111,-0.64,-6.4375,0.125,2.75
1589381129.2195144,-0.53,-4.13,8.83,0.5277777777777778,0.2311111111111111,-0.64,3.1875,1.0,0.5
1589381129.2258267,-0.51,-4.13,8.87,0.5277777777777778,0.2311111111111111,-0.64,7.625,-0.875,-3.875
1589381129.233088,-0.52,-4.12,8.87,0.5344444444444445,0.21777777777777774,-0.6533333333333333,6.6875,-0.75,1.5
1589381129.2449672,-0.53,-4.14,8.87,0.5344444444444445,0.21777777777777774,-0.6533333333333333,-0.1875,-2.25,-10.3125
1589381129.2582073,-0.52,-4.13,8.76,0.5344444444444445,0.21777777777777774,-0.6533333333333333,1.5625,1.625,-1.625
1589381129.2643855,-0.53,-4.13,8.82,0.5344444444444445,0.21777777777777774,-0.6533333333333333,-2.3125,0.375,0.5
1589381129.2759366,-0.51,-4.12,8.84,0.5344444444444445,0.21777777777777774,-0.6533333333333333,-3.8125,-8.3125,-0.125
1589381129.2837827,-0.51,-4.14,8.88,0.5277777777777778,0.2311111111111111,-0.6255555555555555,-1.8125,1.625,-0.375
