time,acc_x,acc_y,acc_z,mag_x,mag_y,mag_z,gyr_x,gyr_y,gyr_z
1589381158.339794,-0.38,-4.13,8.76,0.5188888888888888,0.19333333333333333,-0.7911111111111111,0.9375,-8.4375,-3.375
1589381158.352002,-0.33,-4.11,8.85,0.5188888888888888,0.19333333333333333,-0.7911111111111111,-1.9375,-3.625,3.625
1589381158.3595061,-0.34,-4.13,8.91,0.5044444444444445,0.1811111111111111,-0.7977777777777778,1.3125,3.375,-2.125
1589381158.3710046,-0.32,-4.11,8.9,0.5044444444444445,0.1811111111111111,-0.7977777777777778,1.5625,4.5,-2.375
1589381158.3809035,-0.33,-4.14,8.8,0.5044444444444445,0.1811111111111111,-0.7977777777777778,-4.0625,0.0,1.5
1589381158.3925896,-0.37,-4.1,8.82,0.5044444444444445,0.1811111111111111,-0.7977777777777778,-4.3125,-0.375,1.625
1589381158.4061015,-0.37,-4.13,8.85,0.5044444444444445,0.1811111111111111,-0.7977777777777778,-2.3125,-1.5,-2.0
1589381158.4115908,-0.37,-4.13,8.89,0.5111111111111111,0.18777777777777774,-0.7977777777777778,-1.0625,-3.75,0.25
1589381158.424647,-0.35,-4.13,8.85,0.5111111111111111,0.18777777777777774,-0.7977777777777778,2.4375,2.875,-0.625
1589381158.4309256,-0.32,-4.14,8.77,0.5111111111111111,0.18777777777777774,-0.7977777777777778,2.8125,-1.125,-7.0625
1589381158.4443893,-0.29,-4.15,8.78,0.5111111111111111,0.18777777777777774,-0.7977777777777778,7.0,-2.75,-2.875
1589381158.4523287,-0.28,-4.14,8.85,0.5111111111111111,0.18777777777777774,-0.7977777777777778,1.4375,2.375,-0.75
1589381158.463965,-0.33,-4.14,8.89,0.5188888888888888,0.17333333333333334,-0.7911111111111111,-5.8125,-5.375,10.1875
1589381158.470443,-0.37,-4.14,8.91,0.5188888888888888,0.17333333333333334,-0.7911111111111111,1.6875,-1.5,-1.5
1589381158.4803152,-0.36,-4.11,8.78,0.5188888888888888,0.17333333333333334,-0.7911111111111111,2.9375,0.375,-3.0
1589381158.490492,-0.34,-4.11,8.84,0.5188888888888888,0.17333333333333334,-0.7911111111111111,1.8125,-2.25,-3.375
1589381158.5039597,-0.34,-4.14,8.87,0.5188888888888888,0.17333333333333334,-0.7911111111111111,-2.1875,0.625,4.625
1589381158.5099304,-0.33,-4.11,8.86,0.5044444444444445,0.18777777777777774,-0.7977777777777778,5.1875,3.0,2.0
1589381158.522843,-0.33,-4.12,8.85,0.5044444444444445,0.18777777777777774,-0.7977777777777778,-1.5625,-1.625,6.125
1589381158.5310204,-0.35,-4.13,8.75,0.5044444444444445,0.18777777777777774,-0.7977777777777778,-1.4375,4.25,3.75
1589381158.542836,-0.34,-4.12,8.82,0.5044444444444445,0.18777777777777774,-0.7977777777777778,1.9375,-1.625,1.0
1589381158.5531802,-0.36,-4.12,8.81,0.5044444444444445,0.18777777777777774,-0.7977777777777778,-2.5625,2.625,2.25
1589381158.5646212,-0.33,-4.12,8.88,0.5188888888888888,0.17333333333333334,-0.7977777777777778,-6.4375,-3.25,5.25
1589381158.5764227,-0.34,-4.14,8.85,0.5188888888888888,0.17333333333333334,-0.7977777777777778,0.1875,1.5,13.5625
1589381158.5825818,-0.34,-4.13,8.8,0.5188888888888888,0.17333333333333334,-0.7977777777777778,-2.0625,-5.0,-4.25
1589381158.5950134,-0.34,-4.12,8.86,0.5188888888888888,0.17333333333333334,-0.7977777777777778,5.4375,2.5,-2.625
1589381158.602953,-0.36,-4.15,8.89,0.5188888888888888,0.17333333333333334,-0.7977777777777778,-1.4375,5.625,-1.5
1589381158.6149542,-0.34,-4.13,8.86,0.5111111111111111,0.1811111111111111,-0.7911111111111111,-1.3125,2.5,-8.6875
1589381158.6210413,-0.34,-4.14,8.86,0.5111111111111111,0.1811111111111111,-0.7911111111111111,-2.8125,5.0,-2.625
1589381158.6316323,-0.33,-4.14,8.73,0.5111111111111111,0.1811111111111111,-0.7911111111111111,-1.4375,1.25,-1.875
1589381158.6409347,-0.35,-4.11,8.78,0.5111111111111111,0.1811111111111111,-0.7911111111111111,4.8125,5.375,1.375
1589381158.654676,-0.34,-4.12,8.83,0.5111111111111111,0.1811111111111111,-0.7911111111111111,0.3125,-0.875,6.75
1589381158.660693,-0.37,-4.11,8.83,0.5188888888888888,0.1811111111111111,-0.7911111111111111,-2.5625,1.25,-0.625
1589381158.6738513,-0.32,-4.15,8.8,0.5188888888888888,0.1811111111111111,-0.7911111111111111,4.6875,4.75,4.125
1589381158.6812234,-0.33,-4.12,8.79,0.5188888888888888,0.1811111111111111,-0.7911111111111111,2.0625,0.0,4.0
1589381158.6914654,-0.33,-4.12,8.86,0.5188888888888888,0.1811111111111111,-0.7911111111111111,-2.9375,4.25,-1.25
1589381158.7032394,-0.34,-4.13,8.92,0.5188888888888888,0.1811111111111111,-0.7911111111111111,4.4375,2.125,6.0
1589381158.7146811,-0.36,-4.12,8.92,0.4922222222222222,0.18777777777777774,-0.7833333333333333,-0.8125,-6.375,8.1875
1589381158.7219348,-0.34,-4.12,8.89,0.4922222222222222,0.18777777777777774,-0.7833333333333333,-0.0625,5.5,-7.1875
1589381158.7313511,-0.34,-4.13,8.74,0.4922222222222222,0.18777777777777774,-0.7833333333333333,-0.6875,1.125,1.375
1589381158.7465305,-0.33,-4.14,8.79,0.4922222222222222,0.18777777777777774,-0.7833333333333333,0.9375,4.0,3.625
1589381158.7536464,-0.33,-4.13,8.81,0.4922222222222222,0.18777777777777774,-0.7833333333333333,-0.6875,2.875,1.0
1589381158.7612257,-0.33,-4.12,8.85,0.5188888888888888,0.16666666666666666,-0.8122222222222222,1.6875,2.25,-4.0
1589381158.7727628,-0.33,-4.14,8.86,0.5188888888888888,0.16666666666666666,-0.8122222222222222,6.5625,0.75,-13.6875
1589381158.7831151,-0.34,-4.11,8.77,0.5188888888888888,0.16666666666666666,-0.8122222222222222,-0.0625,-2.375,4.5
1589381158.791799,-0.35,-4.12,8.81,0.5188888888888888,0.16666666666666666,-0.8122222222222222,-0.6875,-2.0,0.0
1589381158.8037386,-0.36,-4.14,8.88,0.5188888888888888,0.16666666666666666,-0.8122222222222222,0.8125,-0.125,6.75
1589381158.8110347,-0.34,-4.13,8.95,0.5111111111111111,0.1811111111111111,-0.8122222222222222,2.9375,2.5,1.0
1589381158.8224175,-0.36,-4.12,8.89,0.5111111111111111,0.1811111111111111,-0.8122222222222222,2.3125,-1.125,-1.25
1589381158.8314474,-0.34,-4.14,8.8,0.5111111111111111,0.1811111111111111,-0.8122222222222222,-5.0625,-3.0,7.1875
1589381158.84325,-0.35,-4.14,8.79,0.5111111111111111,0.1811111111111111,-0.8122222222222222,-0.4375,1.125,-2.0
1589381158.854702,-0.35,-4.12,8.79,0.5111111111111111,0.1811111111111111,-0.8122222222222222,-5.8125,-1.125,8.4375
1589381158.864875,-0.35,-4.11,8.82,0.5111111111111111,0.16666666666666666,-0.8122222222222222,-4.9375,-4.75,6.125
1589381158.8736105,-0.35,-4.15,8.83,0.5111111111111111,0.16666666666666666,-0.8122222222222222,0.9375,-5.75,4.5
1589381158.8824565,-0.35,-4.12,8.76,0.5111111111111111,0.16666666666666666,-0.8122222222222222,-2.9375,2.5,-3.625
1589381158.8928695,-0.35,-4.13,8.79,0.5111111111111111,0.16666666666666666,-0.8122222222222222,0.8125,5.625,2.125
1589381158.90435,-0.34,-4.13,8.85,0.5111111111111111,0.16666666666666666,-0.8122222222222222,-1.9375,3.0,-1.5
1589381158.911981,-0.34,-4.12,8.9,0.5188888888888888,0.1811111111111111,-0.7911111111111111,-1.1875,4.5,-1.125
1589381158.924015,-0.35,-4.15,8.89,0.5188888888888888,0.1811111111111111,-0.7911111111111111,5.3125,-0.125,-1.25
1589381158.932017,-0.35,-4.13,8.83,0.5188888888888888,0.1811111111111111,-0.7911111111111111,-0.9375,-3.5,-9.4375
1589381158.9423854,-0.34,-4.11,8.83,0.5188888888888888,0.1811111111111111,-0.7911111111111111,4.6875,5.125,1.375
1589381158.9579108,-0.34,-4.14,8.82,0.5188888888888888,0.1811111111111111,-0.7911111111111111,4.3125,-3.125,-6.125
1589381158.964232,-0.33,-4.13,8.82,0.5044444444444445,0.18777777777777774,-0.8122222222222222,-6.8125,0.875,0.5
1589381158.9769044,-0.35,-4.14,8.81,0.5044444444444445,0.18777777777777774,-0.8122222222222222,2.5625,-2.25,-5.5
1589381158.982691,-0.36,-4.13,8.74,0.5044444444444445,0.18777777777777774,-0.8122222222222222,-6.8125,-4.25,6.75
1589381158.9953587,-0.33,-4.15,8.76,0.5044444444444445,0.18777777777777774,-0.8122222222222222,-8.5,0.75,5.625
1589381159.0046144,-0.33,-4.13,8.86,0.5044444444444445,0.18777777777777774,-0.8122222222222222,1.1875,-3.0,4.125
1589381159.0167048,-0.34,-4.14,8.88,0.5188888888888888,0.1811111111111111,-0.8044444444444444,-9.375,-2.0,-6.375
1589381159.0221734,-0.37,-4.16,8.9,0.5188888888888888,0.1811111111111111,-0.8044444444444444,2.6875,0.75,0.75
1589381159.033403,-0.34,-4.13,8.75,0.5188888888888888,0.1811111111111111,-0.8044444444444444,-3.0625,-2.125,1.25
1589381159.0424733,-0.36,-4.13,8.77,0.5188888888888888,0.1811111111111111,-0.8044444444444444,6.3125,-3.0,2.75
1589381159.0547733,-0.35,-4.12,8.81,0.5188888888888888,0.1811111111111111,-0.8044444444444444,0.0625,-1.75,1.0
1589381159.0623953,-0.34,-4.14,8.81,0.5188888888888888,0.18777777777777774,-0.8044444444444444,-5.0625,-2.0,0.625
1589381159.0742908,-0.33,-4.14,8.81,0.5188888888888888,0.18777777777777774,-0.8044444444444444,-0.6875,3.375,-4.25
1589381159.0828788,-0.32,-4.17,8.79,0.5188888888888888,0.18777777777777774,-0.8044444444444444,0.1875,-4.625,1.0
1589381159.092836,-0.33,-4.13,8.81,0.5188888888888888,0.18777777777777774,-0.8044444444444444,-0.6875,2.5,1.875
1589381159.10574,-0.34,-4.13,8.92,0.5188888888888888,0.18777777777777774,-0.8044444444444444,2.6875,-4.375,-9.6875
1589381159.1129534,-0.35,-4.12,8.92,0.5166666666666667,0.18777777777777774,-0.7833333333333333,2.1875,0.5,5.25
1589381159.1225796,-0.37,-4.09,8.92,0.5166666666666667,0.18777777777777774,-0.7833333333333333,-0.1875,-9.1875,16.0
1589381159.1340766,-0.45,-4.05,8.81,0.5166666666666667,0.18777777777777774,-0.7833333333333333,-3.4375,-1.125,-4.0
1589381159.1472168,-0.64,-3.99,8.82,0.5166666666666667,0.18777777777777774,-0.7833333333333333,2.3125,1.625,7.1875
1589381159.1559696,-0.62,-3.95,8.84,0.5166666666666667,0.18777777777777774,-0.7833333333333333,-1.4375,5.625,3.875
1589381159.1664262,-0.56,-3.93,8.88,0.51,0.1811111111111111,-0.8044444444444444,-3.4375,5.125,15.0
1589381159.1735713,-0.54,-4.02,8.85,0.51,0.1811111111111111,-0.8044444444444444,9.75,1.625,1.5
1589381159.1837685,-0.48,-3.99,8.73,0.51,0.1811111111111111,-0.8044444444444444,-3.4375,0.125,5.375
1589381159.193251,-0.48,-3.96,8.81,0.51,0.1811111111111111,-0.8044444444444444,-1.5625,1.875,4.375
1589381159.205408,-0.48,-3.99,8.85,0.51,0.1811111111111111,-0.8044444444444444,-0.5625,0.5,4.625
1589381159.2129338,-0.33,-3.98,8.93,0.5244444444444445,0.17333333333333334,-0.7977777777777778,3.1875,0.125,5.625
1589381159.22424,-0.3,-4.08,8.88,0.5244444444444445,0.17333333333333334,-0.7977777777777778,-2.3125,5.0,7.9375
1589381159.2325606,-0.21,-4.14,8.78,0.5244444444444445,0.17333333333333334,-0.7977777777777778,3.4375,0.5,5.5
1589381159.2466235,-0.13,-4.3,8.82,0.5244444444444445,0.17333333333333334,-0.7977777777777778,-1.0625,-4.75,5.875
1589381159.2554145,0.0,-4.61,8.84,0.5244444444444445,0.17333333333333334,-0.7977777777777778,-3.1875,-5.0,3.25
1589381159.2656727,0.04,-4.54,8.85,0.51,0.19333333333333333,-0.7977777777777778,-8.5,-7.3125,7.1875
1589381159.2729595,-0.03,-4.37,8.88,0.51,0.19333333333333333,-0.7977777777777778,-1.3125,0.375,-1.125
1589381159.284589,-0.4,-4.07,8.73,0.51,0.19333333333333333,-0.7977777777777778,-0.5625,3.125,-3.375
1589381159.2929704,-0.44,-4.05,8.79,0.51,0.19333333333333333,-0.7977777777777778,2.4375,3.75,-1.0
1589381159.3050785,-0.5,-4.14,8.85,0.51,0.19333333333333333,-0.7977777777777778,3.8125,5.0,0.375
1589381159.3171914,-0.53,-4.14,8.91,0.5244444444444445,0.17333333333333334,-0.8044444444444444,-2.3125,1.375,-0.75
1589381159.3233366,-1.29,-3.67,9.09,0.5244444444444445,0.17333333333333334,-0.8044444444444444,3.9375,-1.125,12.8125
1589381159.3374348,-1.11,-2.91,8.65,0.5244444444444445,0.17333333333333334,-0.8044444444444444,-0.5625,-1.25,35.9375
1589381159.343364,-0.46,-2.09,9.08,0.5244444444444445,0.17333333333333334,-0.8044444444444444,-2.9375,-6.5,41.0625
1589381159.3561242,-0.52,-2.43,9.05,0.5244444444444445,0.17333333333333334,-0.8044444444444444,2.5625,3.875,37.3125
1589381159.3628194,-0.47,-2.54,9.02,0.5166666666666667,0.2,-0.7766666666666666,7.125,-3.0,41.4375
1589381159.3741016,-0.45,-2.67,9.02,0.5166666666666667,0.2,-0.7766666666666666,-1.5625,-7.8125,46.25
1589381159.3837738,-0.43,-2.71,8.83,0.5166666666666667,0.2,-0.7766666666666666,-1.8125,-5.75,42.25
1589381159.3941329,-0.43,-2.76,8.89,0.5166666666666667,0.2,-0.7766666666666666,-0.3125,-0.125,52.5625
1589381159.406275,-0.48,-2.76,8.95,0.5166666666666667,0.2,-0.7766666666666666,1.8125,-4.375,53.9375
1589381159.41438,-0.54,-2.82,9.03,0.51,0.17333333333333334,-0.7833333333333333,5.4375,-1.125,47.5
1589381159.4254956,-0.58,-2.85,9.11,0.51,0.17333333333333334,-0.7833333333333333,3.8125,-6.25,54.3125
1589381159.4371595,-0.73,-2.85,8.91,0.51,0.17333333333333334,-0.7833333333333333,-0.6875,3.625,56.25
1589381159.4442227,-0.78,-2.84,8.92,0.51,0.17333333333333334,-0.7833333333333333,-1.6875,-7.9375,67.4375
1589381159.4557388,-0.83,-2.83,8.93,0.51,0.17333333333333334,-0.7833333333333333,2.1875,-12.6875,75.0
1589381159.466617,-0.69,-2.87,8.99,0.51,0.14666666666666667,-0.8188888888888889,-5.5625,-11.6875,80.6875
1589381159.474615,-0.62,-2.95,8.96,0.51,0.14666666666666667,-0.8188888888888889,-11.0,-4.875,74.375
1589381159.4888177,-0.6,-3.02,8.87,0.51,0.14666666666666667,-0.8188888888888889,-5.0625,-6.625,75.5
1589381159.4955945,-0.55,-3.0,8.82,0.51,0.14666666666666667,-0.8188888888888889,1.8125,-3.875,77.3125
1589381159.5072167,-0.56,-3.0,8.87,0.51,0.14666666666666667,-0.8188888888888889,-0.8125,-8.6875,74.375
1589381159.5143328,-0.63,-3.08,8.98,0.5288888888888889,0.12777777777777774,-0.8266666666666667,3.1875,-6.75,81.9375
1589381159.524526,-0.67,-3.08,9.05,0.5288888888888889,0.12777777777777774,-0.8266666666666667,-8.625,-18.0,74.375
1589381159.534948,-0.8,-3.04,8.96,0.5288888888888889,0.12777777777777774,-0.8266666666666667,-8.5,-11.0625,73.25
1589381159.5453124,-0.83,-3.0,8.91,0.5288888888888889,0.12777777777777774,-0.8266666666666667,-3.6875,-10.3125,75.625
1589381159.5571704,-0.8,-3.03,8.92,0.5288888888888889,0.12777777777777774,-0.8266666666666667,-0.6875,-12.6875,81.8125
1589381159.5649045,-0.89,-3.03,9.0,0.5244444444444445,0.10111111111111112,-0.84,-3.6875,-2.75,80.8125
1589381159.5749073,-0.95,-3.05,8.93,0.5244444444444445,0.10111111111111112,-0.84,-0.5625,-2.625,79.3125
1589381159.584869,-0.91,-3.05,8.88,0.5244444444444445,0.10111111111111112,-0.84,-4.5625,-5.125,80.0625
1589381159.5949671,-0.89,-3.06,8.84,0.5244444444444445,0.10111111111111112,-0.84,0.5625,-2.125,87.0
1589381159.6070325,-0.91,-3.08,8.89,0.5244444444444445,0.10111111111111112,-0.84,-1.8125,-7.9375,84.875
1589381159.6155412,-0.95,-3.04,8.96,0.49,0.09555555555555556,-0.8844444444444445,-0.6875,-8.3125,85.75
1589381159.6252074,-0.96,-3.03,9.0,0.49,0.09555555555555556,-0.8844444444444445,-4.6875,-6.75,80.9375
1589381159.6350214,-0.96,-3.04,8.92,0.49,0.09555555555555556,-0.8844444444444445,-6.8125,-9.1875,88.75
1589381159.6453388,-0.97,-3.01,8.97,0.49,0.09555555555555556,-0.8844444444444445,0.0625,-8.9375,82.4375
1589381159.6574314,-1.0,-2.95,8.94,0.49,0.09555555555555556,-0.8844444444444445,-1.3125,-11.4375,72.25
1589381159.6676776,-0.92,-2.94,8.96,0.44222222222222224,0.02666666666666667,-0.9066666666666666,-4.1875,-8.9375,83.3125
1589381159.6758564,-0.94,-2.96,9.0,0.44222222222222224,0.02666666666666667,-0.9066666666666666,-0.4375,-3.625,67.4375
1589381159.6854556,-1.02,-3.04,8.83,0.44222222222222224,0.02666666666666667,-0.9066666666666666,-0.1875,-10.1875,73.0
1589381159.6965976,-1.01,-3.02,8.88,0.44222222222222224,0.02666666666666667,-0.9066666666666666,-2.8125,-8.0625,63.8125
1589381159.7076044,-1.03,-3.03,8.9,0.44222222222222224,0.02666666666666667,-0.9066666666666666,-5.6875,-6.25,61.25
1589381159.71985,-1.08,-3.02,9.0,0.3711111111111111,-0.03555555555555556,-0.9255555555555556,-0.5625,-8.9375,59.25
1589381159.7276301,-1.1,-3.04,8.92,0.3711111111111111,-0.03555555555555556,-0.9255555555555556,4.6875,-5.125,51.0625
1589381159.7382884,-1.12,-3.08,8.93,0.3711111111111111,-0.03555555555555556,-0.9255555555555556,1.0625,-5.125,53.4375
1589381159.7462385,-1.2,-3.11,8.91,0.3711111111111111,-0.03555555555555556,-0.9255555555555556,-0.1875,-0.875,41.0625
1589381159.7579346,-1.2,-3.07,8.97,0.3711111111111111,-0.03555555555555556,-0.9255555555555556,-0.8125,3.125,45.5
1589381159.7662928,-1.2,-3.1,8.97,0.33555555555555555,-0.13444444444444445,-0.8977777777777778,0.1875,-3.0,40.5625
1589381159.775461,-1.22,-3.08,8.97,0.33555555555555555,-0.13444444444444445,-0.8977777777777778,-2.0625,4.125,35.0625
1589381159.7900145,-1.23,-3.01,8.83,0.33555555555555555,-0.13444444444444445,-0.8977777777777778,-2.1875,-5.75,33.25
1589381159.7956982,-1.28,-3.04,8.88,0.33555555555555555,-0.13444444444444445,-0.8977777777777778,2.0625,-3.625,27.3125
1589381159.8127804,-1.33,-3.08,8.89,0.33555555555555555,-0.13444444444444445,-0.8977777777777778,-9.75,-5.25,28.0
1589381159.8191314,-1.31,-3.04,8.91,0.3333333333333333,-0.20777777777777776,-0.8033333333333333,3.5625,-5.25,19.125
1589381159.8304148,-1.35,-3.08,8.86,0.3333333333333333,-0.20777777777777776,-0.8033333333333333,2.0625,2.125,12.1875
1589381159.8363268,-1.34,-3.1,8.88,0.3333333333333333,-0.20777777777777776,-0.8033333333333333,-1.3125,1.25,14.25
1589381159.8500571,-1.35,-3.13,8.9,0.3333333333333333,-0.20777777777777776,-0.8033333333333333,-8.125,3.0,1.75
1589381159.8582444,-1.33,-3.07,8.96,0.3333333333333333,-0.20777777777777776,-0.8033333333333333,-2.6875,-2.875,1.875
1589381159.8662574,-1.41,-3.15,8.96,0.38666666666666666,-0.23222222222222225,-0.7588888888888888,-4.6875,-3.25,2.625
1589381159.8766186,-1.41,-3.13,8.94,0.38666666666666666,-0.23222222222222225,-0.7588888888888888,0.4375,3.25,1.375
1589381159.8897648,-1.4,-3.13,8.84,0.38666666666666666,-0.23222222222222225,-0.7588888888888888,2.5625,9.9375,-3.625
1589381159.896062,-1.45,-3.15,8.88,0.38666666666666666,-0.23222222222222225,-0.7588888888888888,-5.5625,-2.375,-6.375
1589381159.908406,-1.53,-3.17,8.88,0.38666666666666666,-0.23222222222222225,-0.7588888888888888,-2.1875,5.375,6.125
1589381159.9164312,-1.5,-3.19,8.9,0.4444444444444444,-0.24,-0.7155555555555555,3.1875,5.375,-6.875
1589381159.9267213,-1.46,-3.2,8.91,0.4444444444444444,-0.24,-0.7155555555555555,0.0625,5.875,-10.3125
1589381159.9369695,-1.5,-3.23,8.81,0.4444444444444444,-0.24,-0.7155555555555555,2.1875,2.25,-11.4375
1589381159.9462357,-1.54,-3.26,8.9,0.4444444444444444,-0.24,-0.7155555555555555,1.3125,4.125,-14.125
1589381159.963468,-1.53,-3.25,8.96,0.4444444444444444,-0.24,-0.7155555555555555,1.1875,1.875,-4.0
1589381159.969336,-1.59,-3.65,8.93,0.5066666666666667,-0.21777777777777774,-0.7,-1.3125,3.875,-27.0625
1589381159.9757762,-1.59,-3.5,8.82,0.5066666666666667,-0.21777777777777774,-0.7,5.1875,-0.375,-29.25
1589381159.9857645,-1.61,-3.41,8.92,0.5066666666666667,-0.21777777777777774,-0.7,1.6875,-1.25,-19.25
1589381159.9991555,-1.54,-3.26,8.79,0.5066666666666667,-0.21777777777777774,-0.7,-0.6875,-0.625,-20.25
1589381160.0086718,-1.57,-3.36,8.9,0.5066666666666667,-0.21777777777777774,-0.7,-5.4375,6.625,-29.375
1589381160.020608,-1.57,-3.37,8.9,0.5333333333333333,-0.18777777777777774,-0.68,3.5625,-1.0,-30.5
1589381160.0270069,-1.54,-3.42,8.94,0.5333333333333333,-0.18777777777777774,-0.68,-3.8125,6.125,-22.3125
1589381160.0400553,-1.58,-3.46,8.82,0.5333333333333333,-0.18777777777777774,-0.68,-5.0625,2.5,-38.1875
1589381160.0474873,-1.56,-3.43,8.88,0.5333333333333333,-0.18777777777777774,-0.68,7.875,5.5,-35.1875
1589381160.0593095,-1.55,-3.38,8.91,0.5333333333333333,-0.18777777777777774,-0.68,2.1875,0.375,-26.8125
1589381160.0667233,-1.56,-3.46,8.94,0.6055555555555555,-0.14666666666666667,-0.6877777777777778,-0.4375,-1.125,-37.6875
1589381160.0776258,-1.52,-3.41,8.92,0.6055555555555555,-0.14666666666666667,-0.6877777777777778,0.8125,5.0,-26.3125
1589381160.087142,-1.6,-3.47,8.8,0.6055555555555555,-0.14666666666666667,-0.6877777777777778,-1.6875,6.625,-27.8125
1589381160.0977173,-1.5,-3.43,8.85,0.6055555555555555,-0.14666666666666667,-0.6877777777777778,1.6875,1.25,-34.375
1589381160.1143675,-1.49,-3.44,8.89,0.6055555555555555,-0.14666666666666667,-0.6877777777777778,-3.6875,4.375,-32.375
1589381160.1199176,-1.5,-3.4,8.91,0.6644444444444444,-0.13111111111111112,-0.7388888888888889,-0.3125,1.875,-28.5
1589381160.1274235,-1.44,-3.41,8.9,0.6644444444444444,-0.13111111111111112,-0.7388888888888889,-2.1875,-2.75,-33.25
1589381160.1377578,-1.52,-3.44,8.83,0.6644444444444444,-0.13111111111111112,-0.7388888888888889,-3.6875,3.125,-25.5625
1589381160.1505,-1.51,-3.41,8.9,0.6644444444444444,-0.13111111111111112,-0.7388888888888889,8.125,2.625,-25.8125
1589381160.1598506,-1.49,-3.38,8.91,0.6644444444444444,-0.13111111111111112,-0.7388888888888889,-0.0625,2.625,-23.6875
1589381160.1723993,-1.49,-3.41,8.94,0.6166666666666667,-0.21777777777777774,-0.7533333333333333,6.6875,-1.375,-27.1875
1589381160.1793644,-1.45,-3.38,8.95,0.6166666666666667,-0.21777777777777774,-0.7533333333333333,-2.5625,1.0,-37.5625
1589381160.1918414,-1.46,-3.42,8.81,0.6166666666666667,-0.21777777777777774,-0.7533333333333333,2.6875,5.625,-30.375
1589381160.1984107,-1.43,-3.4,8.88,0.6166666666666667,-0.21777777777777774,-0.7533333333333333,6.5625,2.75,-28.25
1589381160.210033,-1.43,-3.4,8.91,0.6166666666666667,-0.21777777777777774,-0.7533333333333333,0.9375,-2.375,-25.1875
1589381160.2173321,-1.43,-3.39,8.92,0.5577777777777778,-0.17222222222222222,-0.7022222222222222,5.8125,5.0,-31.75
1589381160.228358,-1.41,-3.39,8.88,0.5577777777777778,-0.17222222222222222,-0.7022222222222222,1.0625,-2.25,-22.9375
1589381160.2383974,-1.39,-3.44,8.79,0.5577777777777778,-0.17222222222222222,-0.7022222222222222,0.3125,-8.8125,-24.6875
1589381160.2510655,-1.39,-3.47,8.84,0.5577777777777778,-0.17222222222222222,-0.7022222222222222,0.1875,6.875,-17.75
1589381160.2601204,-1.35,-3.39,8.94,0.5577777777777778,-0.17222222222222222,-0.7022222222222222,2.4375,1.75,-23.8125
1589381160.271584,-1.38,-3.48,8.92,0.5722222222222222,-0.1111111111111111,-0.6666666666666666,3.5625,2.25,-4.75
1589381160.278784,-1.38,-3.52,8.94,0.5722222222222222,-0.1111111111111111,-0.6666666666666666,3.1875,4.25,-18.25
1589381160.288505,-1.37,-3.53,8.84,0.5722222222222222,-0.1111111111111111,-0.6666666666666666,3.3125,1.625,-11.3125
1589381160.2985382,-1.38,-3.57,8.86,0.5722222222222222,-0.1111111111111111,-0.6666666666666666,-3.0625,-1.75,-20.875
1589381160.3100967,-1.33,-3.56,8.9,0.5722222222222222,-0.1111111111111111,-0.6666666666666666,3.0625,-4.75,-18.25
1589381160.3185134,-1.35,-3.62,8.86,0.5511111111111111,-0.06,-0.6611111111111111,0.6875,0.375,-17.875
1589381160.330329,-1.35,-3.65,8.85,0.5511111111111111,-0.06,-0.6611111111111111,3.4375,4.25,-11.5625
1589381160.339065,-1.28,-3.64,8.78,0.5511111111111111,-0.06,-0.6611111111111111,-0.6875,-0.625,-14.5
1589381160.3510413,-1.28,-3.66,8.86,0.5511111111111111,-0.06,-0.6611111111111111,-0.1875,3.625,-16.75
1589381160.3607435,-1.29,-3.62,8.88,0.5511111111111111,-0.06,-0.6611111111111111,3.9375,1.125,-8.0625
1589381160.3675375,-1.35,-3.76,8.91,0.5377777777777778,-0.03333333333333333,-0.6522222222222223,1.4375,2.5,-12.6875
1589381160.3825786,-1.34,-3.83,8.9,0.5377777777777778,-0.03333333333333333,-0.6522222222222223,11.25,-0.375,-6.75
1589381160.3884554,-1.34,-3.84,8.79,0.5377777777777778,-0.03333333333333333,-0.6522222222222223,-4.1875,-2.0,-6.625
1589381160.402647,-1.21,-3.77,8.9,0.5377777777777778,-0.03333333333333333,-0.6522222222222223,-1.5625,-3.0,-17.5
1589381160.4105382,-1.18,-3.69,8.91,0.5377777777777778,-0.03333333333333333,-0.6522222222222223,-2.3125,0.25,-10.0625
1589381160.4184833,-1.23,-3.7,8.91,0.5522222222222222,-0.013333333333333334,-0.6822222222222222,-0.6875,3.25,-14.625
1589381160.4282813,-1.25,-3.65,8.91,0.5522222222222222,-0.013333333333333334,-0.6822222222222222,-5.4375,8.8125,-11.9375
1589381160.4397054,-1.22,-3.63,8.79,0.5522222222222222,-0.013333333333333334,-0.6822222222222222,-6.0625,-2.0,-16.25
1589381160.4485028,-1.21,-3.62,8.85,0.5522222222222222,-0.013333333333333334,-0.6822222222222222,2.4375,-7.5625,-22.5625
1589381160.460439,-1.23,-3.56,8.91,0.5522222222222222,-0.013333333333333334,-0.6822222222222222,0.9375,8.6875,-3.75
1589381160.4736702,-1.22,-3.56,8.93,0.54,0.0,-0.6466666666666666,-2.6875,2.125,-14.0
1589381160.479463,-1.23,-3.56,8.89,0.54,0.0,-0.6466666666666666,1.6875,4.75,-10.6875
1589381160.4897995,-1.16,-3.52,8.82,0.54,0.0,-0.6466666666666666,3.0625,-4.875,-8.3125
1589381160.5016418,-1.15,-3.49,8.88,0.54,0.0,-0.6466666666666666,10.125,0.75,-24.5625
1589381160.5151894,-1.15,-3.49,8.93,0.54,0.0,-0.6466666666666666,1.6875,2.25,-8.3125
1589381160.522094,-1.14,-3.51,8.92,0.56,0.004444444444444445,-0.6666666666666666,-4.4375,3.375,-20.75
1589381160.533168,-1.19,-3.54,8.91,0.56,0.004444444444444445,-0.6666666666666666,9.5,8.4375,-17.25
1589381160.5394592,-1.15,-3.55,8.83,0.56,0.004444444444444445,-0.6666666666666666,3.4375,10.3125,-15.625
1589381160.5538466,-1.14,-3.56,8.87,0.56,0.004444444444444445,-0.6666666666666666,2.4375,-3.5,-14.5
1589381160.5610328,-1.16,-3.58,8.93,0.56,0.004444444444444445,-0.6666666666666666,-3.6875,3.5,-8.0625
1589381160.5727468,-1.21,-3.65,8.91,0.5811111111111111,-0.006666666666666667,-0.6877777777777778,2.4375,3.75,-10.6875
1589381160.5792148,-1.2,-3.73,8.84,0.5811111111111111,-0.006666666666666667,-0.6877777777777778,0.8125,5.75,-13.8125
1589381160.590198,-1.18,-3.67,8.79,0.5811111111111111,-0.006666666666666667,-0.6877777777777778,6.6875,2.875,-16.625
1589381160.599226,-1.24,-3.77,8.86,0.5811111111111111,-0.006666666666666667,-0.6877777777777778,-3.9375,5.25,-2.0
1589381160.6122813,-1.23,-3.76,8.84,0.5811111111111111,-0.006666666666666667,-0.6877777777777778,4.3125,-3.75,-0.5
1589381160.6183965,-1.23,-3.7,8.91,0.62,-0.013333333333333334,-0.6755555555555556,3.9375,3.75,-6.375
1589381160.6291687,-1.21,-3.68,8.9,0.62,-0.013333333333333334,-0.6755555555555556,-0.0625,-1.125,-1.25
1589381160.6400127,-1.19,-3.68,8.76,0.62,-0.013333333333333334,-0.6755555555555556,4.3125,2.0,5.625
1589381160.6521122,-1.27,-3.52,8.69,0.62,-0.013333333333333334,-0.6755555555555556,-2.3125,3.0,9.0625
1589381160.6665502,-1.23,-3.94,9.22,0.62,-0.013333333333333334,-0.6755555555555556,-1.3125,-6.5,4.875
1589381160.6724102,-0.68,-3.59,8.86,0.72,-0.06555555555555556,-0.6666666666666666,5.4375,1.75,8.5625
1589381160.6856177,-1.24,-3.76,8.73,0.72,-0.06555555555555556,-0.6666666666666666,0.1875,-3.25,-3.0
1589381160.6918573,-1.21,-3.88,8.64,0.72,-0.06555555555555556,-0.6666666666666666,2.4375,0.25,-4.0
1589381160.705044,-1.14,-3.82,8.85,0.72,-0.06555555555555556,-0.6666666666666666,1.9375,6.125,3.5
1589381160.711749,-1.28,-3.81,9.01,0.72,-0.06555555555555556,-0.6666666666666666,0.4375,-6.0,11.1875
1589381160.7242422,-1.23,-3.81,8.89,1.1144444444444443,-0.2977777777777777,-0.5877777777777777,-1.0625,-0.625,20.0
1589381160.7297466,-1.17,-3.84,8.91,1.1144444444444443,-0.2977777777777777,-0.5877777777777777,-3.3125,-0.25,12.6875
1589381160.7403574,-1.26,-3.88,8.76,1.1144444444444443,-0.2977777777777777,-0.5877777777777777,-2.8125,-2.875,15.5
1589381160.7507875,-1.13,-3.77,8.79,1.1144444444444443,-0.2977777777777777,-0.5877777777777777,-3.0625,-1.125,14.375
1589381160.7622955,-1.18,-3.89,8.87,1.1144444444444443,-0.2977777777777777,-0.5877777777777777,3.0625,7.0625,2.875
1589381160.770062,-1.06,-3.81,8.94,1.6455555555555557,-0.20444444444444448,-0.51,-1.5625,0.375,14.75
1589381160.7814913,-1.16,-3.85,8.9,1.6455555555555557,-0.20444444444444448,-0.51,-3.9375,-4.0,13.0625
1589381160.7905052,-1.12,-3.84,8.77,1.6455555555555557,-0.20444444444444448,-0.51,0.6875,-7.9375,15.5
1589381160.8002813,-1.03,-3.7,8.84,1.6455555555555557,-0.20444444444444448,-0.51,-1.9375,1.625,12.9375
1589381160.8121164,-0.98,-3.59,8.92,1.6455555555555557,-0.20444444444444448,-0.51,4.6875,0.25,7.0625
1589381160.823185,-1.02,-3.53,8.92,0.9133333333333332,-0.06555555555555556,-0.7111111111111111,-1.9375,5.75,-1.125
1589381160.830029,-0.95,-3.32,8.91,0.9133333333333332,-0.06555555555555556,-0.7111111111111111,2.8125,-1.0,13.8125
1589381160.8410113,-0.95,-3.3,8.78,0.9133333333333332,-0.06555555555555556,-0.7111111111111111,-4.8125,0.5,1.5
1589381160.8504677,-0.96,-3.24,8.88,0.9133333333333332,-0.06555555555555556,-0.7111111111111111,1.9375,3.0,-10.6875
1589381160.8614824,-0.94,-3.22,8.92,0.9133333333333332,-0.06555555555555556,-0.7111111111111111,2.1875,2.0,-5.875
1589381160.8693097,-0.91,-3.24,9.01,0.6622222222222223,-0.012222222222222223,-0.7322222222222222,2.0625,-0.375,-5.0
1589381160.881018,-0.91,-3.3,8.94,0.6622222222222223,-0.012222222222222223,-0.7322222222222222,-3.9375,2.625,-17.5
1589381160.895138,-0.85,-3.24,8.85,0.6622222222222223,-0.012222222222222223,-0.7322222222222222,-0.6875,7.9375,-4.75
1589381160.901182,-0.74,-3.23,8.91,0.6622222222222223,-0.012222222222222223,-0.7322222222222222,-10.0,-2.625,-18.125
1589381160.9131973,-0.78,-3.2,8.94,0.6622222222222223,-0.012222222222222223,-0.7322222222222222,3.0625,1.25,-27.5625
1589381160.9204702,-0.88,-3.3,8.93,0.5966666666666667,-0.0011111111111111113,-0.7177777777777777,0.1875,3.25,-26.3125
1589381160.9342456,-1.09,-3.52,8.96,0.5966666666666667,-0.0011111111111111113,-0.7177777777777777,-3.9375,6.125,-36.8125
1589381160.9408548,-0.85,-3.49,8.9,0.5966666666666667,-0.0011111111111111113,-0.7177777777777777,-4.6875,2.625,-25.1875
1589381160.950782,-0.79,-3.47,8.83,0.5966666666666667,-0.0011111111111111113,-0.7177777777777777,1.3125,9.1875,-29.125
1589381160.962973,-0.78,-3.52,8.91,0.5966666666666667,-0.0011111111111111113,-0.7177777777777777,4.8125,7.4375,-35.4375
1589381160.9737802,-0.91,-3.57,8.94,0.5644444444444444,0.012222222222222223,-0.6966666666666667,-1.5625,-4.5,-32.875
1589381160.9805415,-0.96,-3.54,8.9,0.5644444444444444,0.012222222222222223,-0.6966666666666667,0.4375,5.75,-32.25
1589381160.9933336,-0.92,-3.51,8.84,0.5644444444444444,0.012222222222222223,-0.6966666666666667,2.8125,1.75,-29.125
1589381161.01525,-0.89,-3.44,8.87,0.5644444444444444,0.012222222222222223,-0.6966666666666667,1.6875,5.125,-43.5
1589381161.0367565,-1.01,-3.65,8.92,0.5577777777777778,0.021111111111111112,-0.6822222222222222,-0.6875,3.75,-37.3125
1589381161.0440204,-1.41,-4.36,8.75,0.5577777777777778,0.021111111111111112,-0.6822222222222222,5.8125,1.375,-2.5
1589381161.0615218,-1.35,-4.96,8.78,0.5577777777777778,0.021111111111111112,-0.6822222222222222,-0.6875,1.75,-0.5
1589381161.0916386,-1.64,-6.36,8.59,0.5511111111111111,0.04777777777777778,-0.6666666666666666,2.9375,2.375,24.1875
1589381161.1005983,-0.55,-3.94,8.78,0.5511111111111111,0.04777777777777778,-0.6666666666666666,2.6875,1.125,7.1875
1589381161.1145794,-7.18,-11.11,7.18,0.5511111111111111,0.04777777777777778,-0.6666666666666666,-76.5625,52.9375,-208.0625
1589381161.1416302,3.67,7.36,2.93,0.4988888888888889,0.0811111111111111,-0.6611111111111111,-26.0,-5.0,-233.4375
1589381161.153719,-1.35,0.73,8.48,0.4988888888888889,0.0811111111111111,-0.6611111111111111,-20.4375,3.5,-199.875
1589381161.1640284,-0.81,-1.04,10.06,0.4988888888888889,0.0811111111111111,-0.6611111111111111,6.5625,16.125,-178.6875
1589381161.1918411,-0.72,-0.43,9.23,0.5066666666666667,0.1288888888888889,-0.6466666666666666,3.8125,5.0,-162.1875
1589381161.211265,-0.64,0.14,9.08,0.5066666666666667,0.1288888888888889,-0.6466666666666666,1.5625,11.8125,-80.9375
1589381161.220698,0.55,-1.47,9.09,0.4833333333333333,0.19111111111111112,-0.6522222222222223,3.0625,5.375,-36.4375
1589381161.2260768,0.55,-1.47,9.09,0.4833333333333333,0.19111111111111112,-0.6522222222222223,3.0625,5.375,-36.4375
1589381161.2381845,-0.58,-2.78,9.08,0.4833333333333333,0.19111111111111112,-0.6522222222222223,-0.6875,5.0,-16.625
1589381161.2440715,-0.71,-2.85,8.67,0.4833333333333333,0.19111111111111112,-0.6522222222222223,-1.6875,-1.125,10.9375
1589381161.2555814,-0.87,-3.04,8.93,0.4833333333333333,0.19111111111111112,-0.6522222222222223,0.1875,-8.0625,30.0
1589381161.2629998,-0.71,-3.07,8.9,0.4833333333333333,0.19111111111111112,-0.6522222222222223,1.9375,-3.75,44.0
1589381161.2751422,-0.41,-3.05,9.08,0.4711111111111111,0.2311111111111111,-0.6611111111111111,1.9375,-3.25,43.0
1589381161.2812831,-0.1,-2.89,8.83,0.4711111111111111,0.2311111111111111,-0.6611111111111111,-1.4375,-2.125,50.9375
1589381161.2957385,0.07,-2.87,8.85,0.4711111111111111,0.2311111111111111,-0.6611111111111111,-1.1875,-5.75,51.3125
1589381161.3022776,0.24,-2.79,8.8,0.4711111111111111,0.2311111111111111,-0.6611111111111111,-0.6875,0.0,39.1875
1589381161.3132846,-0.13,-2.95,9.02,0.4711111111111111,0.2311111111111111,-0.6611111111111111,-3.1875,-4.5,43.375
1589381161.3208554,-0.43,-3.04,9.02,0.4922222222222222,0.2411111111111111,-0.6611111111111111,-5.4375,-8.5625,42.375
1589381161.3314278,-0.52,-3.08,8.76,0.4922222222222222,0.2411111111111111,-0.6611111111111111,-3.4375,-2.375,53.3125
1589381161.3369372,-0.52,-3.08,8.76,0.4922222222222222,0.2411111111111111,-0.6611111111111111,-3.4375,-2.375,53.3125
1589381161.343694,-0.27,-3.07,8.8,0.4922222222222222,0.2411111111111111,-0.6611111111111111,-3.6875,-3.125,47.875
1589381161.3521545,-0.14,-3.04,8.96,0.4922222222222222,0.2411111111111111,-0.6611111111111111,-1.5625,-2.0,46.875
1589381161.3700447,-0.21,-3.05,8.94,0.4922222222222222,0.2411111111111111,-0.6611111111111111,-0.4375,-5.75,54.6875
1589381161.3760448,-0.19,-3.11,9.04,0.4922222222222222,0.2111111111111111,-0.6666666666666666,-0.9375,-6.125,37.9375
1589381161.3833401,-0.26,-3.14,8.94,0.4922222222222222,0.2111111111111111,-0.6666666666666666,-6.5625,-10.1875,51.4375
1589381161.3950634,0.36,-3.41,8.76,0.4922222222222222,0.2111111111111111,-0.6666666666666666,-2.9375,-19.5,-63.8125
1589381161.401551,0.43,-30.63,4.66,0.4922222222222222,0.2111111111111111,-0.6666666666666666,19.3125,14.625,-51.6875
1589381161.4103944,0.43,-30.63,4.66,0.4922222222222222,0.2111111111111111,-0.6666666666666666,19.3125,14.625,-51.6875
1589381161.4164245,-0.72,0.1,8.71,0.4922222222222222,0.2111111111111111,-0.6666666666666666,-6.0625,0.25,-43.125
1589381161.4269874,-0.92,-2.7,9.39,0.5011111111111111,0.2111111111111111,-0.6755555555555556,-2.0625,4.25,-13.4375
1589381161.4330187,-0.68,-2.86,9.07,0.5011111111111111,0.2111111111111111,-0.6755555555555556,-9.5,-7.3125,-19.875
1589381161.4464128,-0.24,-1.71,8.03,0.5011111111111111,0.2111111111111111,-0.6755555555555556,4.0625,7.0625,-2.375
1589381161.452393,-0.44,-5.61,9.18,0.5011111111111111,0.2111111111111111,-0.6755555555555556,-4.4375,-1.125,-4.375
1589381161.4674165,-0.32,-4.17,8.71,0.5011111111111111,0.2111111111111111,-0.6755555555555556,-3.3125,5.875,-4.625
1589381161.4733422,-0.32,-4.06,8.92,0.4933333333333334,0.23777777777777775,-0.6755555555555556,-0.8125,-1.625,-4.75
1589381161.4852085,-0.32,-4.12,8.79,0.4933333333333334,0.23777777777777775,-0.6755555555555556,2.1875,0.0,3.25
1589381161.4919207,-0.32,-4.21,8.84,0.4933333333333334,0.23777777777777775,-0.6755555555555556,-4.5625,0.25,4.375
1589381161.5043914,-0.39,-4.1,8.73,0.4933333333333334,0.23777777777777775,-0.6755555555555556,-2.0625,-2.375,0.625
1589381161.518665,-0.36,-4.15,8.88,0.4933333333333334,0.23777777777777775,-0.6755555555555556,2.9375,2.625,-1.25
1589381161.524931,-0.33,-4.14,8.86,0.4888888888888889,0.22,-0.6466666666666666,4.0625,2.125,-6.25
1589381161.5326192,-0.31,-4.17,8.92,0.4888888888888889,0.22,-0.6466666666666666,1.4375,-1.875,1.875
1589381161.5430574,-0.36,-4.09,8.78,0.4888888888888889,0.22,-0.6466666666666666,-2.6875,-0.25,11.8125
1589381161.5534544,-0.32,-4.17,8.85,0.4888888888888889,0.22,-0.6466666666666666,-2.6875,-2.75,3.25
1589381161.565508,-0.37,-4.1,8.81,0.4888888888888889,0.22,-0.6466666666666666,1.1875,0.875,-7.6875
1589381161.576309,-0.31,-4.2,8.89,0.4811111111111111,0.22,-0.6666666666666666,1.9375,5.0,-2.625
1589381161.5832696,-0.35,-4.13,8.91,0.4811111111111111,0.22,-0.6666666666666666,-0.8125,-1.0,-1.5
1589381161.5991485,-0.31,-4.15,8.79,0.4811111111111111,0.22,-0.6666666666666666,-2.9375,-4.125,3.5
1589381161.6058335,-0.37,-4.13,8.76,0.4811111111111111,0.22,-0.6666666666666666,0.0625,1.25,-3.875
1589381161.6160204,-0.33,-4.18,8.81,0.4811111111111111,0.22,-0.6666666666666666,-1.4375,-4.25,0.375
1589381161.6233287,-0.33,-4.16,8.89,0.4933333333333334,0.22,-0.6311111111111111,1.9375,1.875,-8.4375
1589381161.63475,-0.33,-4.1,8.91,0.4933333333333334,0.22,-0.6311111111111111,5.4375,-2.25,1.5
1589381161.643584,-0.34,-4.13,8.74,0.4933333333333334,0.22,-0.6311111111111111,-0.9375,4.625,-0.625
1589381161.654751,-0.31,-4.18,8.79,0.4933333333333334,0.22,-0.6311111111111111,6.3125,3.375,3.75
1589381161.6668866,-0.34,-4.16,8.81,0.4933333333333334,0.22,-0.6311111111111111,2.5625,-1.875,-3.0
1589381161.6733935,-0.36,-4.13,8.87,0.4933333333333334,0.2255555555555556,-0.6666666666666666,0.8125,0.5,-5.375
1589381161.6837838,-0.35,-4.15,8.88,0.4933333333333334,0.2255555555555556,-0.6666666666666666,-2.1875,-0.25,5.875
1589381161.6955748,-0.35,-4.11,8.79,0.4933333333333334,0.2255555555555556,-0.6666666666666666,-0.8125,-7.6875,-0.625
1589381161.7047124,-0.33,-4.15,8.79,0.4933333333333334,0.2255555555555556,-0.6666666666666666,0.0625,0.625,-1.125
1589381161.715881,-0.33,-4.16,8.86,0.4933333333333334,0.2255555555555556,-0.6666666666666666,-1.0625,6.75,-7.8125
1589381161.7292066,-0.34,-4.15,8.87,0.4755555555555556,0.22,-0.6466666666666666,0.4375,6.375,3.125
1589381161.7358785,-0.33,-4.12,8.84,0.4755555555555556,0.22,-0.6466666666666666,0.5625,-0.875,0.625
1589381161.7486596,-0.34,-4.12,8.76,0.4755555555555556,0.22,-0.6466666666666666,2.3125,2.875,6.125
1589381161.7548368,-0.33,-4.15,8.8,0.4755555555555556,0.22,-0.6466666666666666,-0.5625,0.25,3.0
1589381161.7668116,-0.34,-4.17,8.83,0.4755555555555556,0.22,-0.6466666666666666,2.4375,-2.125,5.125
1589381161.7762632,-0.33,-4.14,8.88,0.49,0.22,-0.6755555555555556,2.4375,6.25,0.25
1589381161.7878144,-0.35,-4.13,8.87,0.49,0.22,-0.6755555555555556,2.4375,-1.375,-4.0
1589381161.7950425,-0.33,-4.14,8.79,0.49,0.22,-0.6755555555555556,6.8125,2.75,-8.8125
1589381161.8049898,-0.33,-4.15,8.82,0.49,0.22,-0.6755555555555556,5.8125,-3.75,6.5
1589381161.8166938,-0.35,-4.14,8.85,0.49,0.22,-0.6755555555555556,1.6875,3.625,6.5
1589381161.828005,-0.35,-4.13,8.83,0.4955555555555556,0.2255555555555556,-0.6755555555555556,-3.4375,1.375,2.625
1589381161.8345802,-0.33,-4.15,8.88,0.4955555555555556,0.2255555555555556,-0.6755555555555556,-1.6875,1.625,-3.5
1589381161.844305,-0.34,-4.13,8.76,0.4955555555555556,0.2255555555555556,-0.6755555555555556,-0.6875,7.5625,5.875
1589381161.8543744,-0.32,-4.14,8.82,0.4955555555555556,0.2255555555555556,-0.6755555555555556,-0.4375,3.625,-1.625
1589381161.8666856,-0.35,-4.14,8.82,0.4955555555555556,0.2255555555555556,-0.6755555555555556,0.4375,-2.125,3.375
1589381161.8743546,-0.33,-4.14,8.87,0.5077777777777778,0.22,-0.6522222222222223,-1.4375,-3.375,5.375
1589381161.8849368,-0.36,-4.17,8.83,0.5077777777777778,0.22,-0.6522222222222223,3.0625,-0.625,0.375
1589381161.9000912,-0.36,-4.14,8.77,0.5077777777777778,0.22,-0.6522222222222223,0.0625,-4.25,-1.875
1589381161.9060645,-0.36,-4.13,8.81,0.5077777777777778,0.22,-0.6522222222222223,-1.4375,4.625,1.75
1589381161.9208806,-0.35,-4.15,8.84,0.5077777777777778,0.22,-0.6522222222222223,0.5625,4.875,0.875
1589381161.9267313,-0.34,-4.17,8.84,0.4833333333333333,0.22,-0.6666666666666666,-0.6875,2.5,-1.0
1589381161.9364758,-0.34,-4.14,8.89,0.4833333333333333,0.22,-0.6666666666666666,-4.5625,-0.375,2.875
1589381161.944756,-0.34,-4.14,8.78,0.4833333333333333,0.22,-0.6666666666666666,-3.6875,1.25,0.25
1589381161.957338,-0.33,-4.15,8.79,0.4833333333333333,0.22,-0.6666666666666666,6.6875,-2.25,-3.875
1589381161.9671273,-0.31,-4.16,8.83,0.4833333333333333,0.22,-0.6666666666666666,6.3125,-3.25,3.0
1589381161.9790516,-0.33,-4.15,8.86,0.4633333333333333,0.2255555555555556,-0.6588888888888889,4.6875,4.625,-2.75
1589381161.9851165,-0.34,-4.15,8.79,0.4633333333333333,0.2255555555555556,-0.6588888888888889,-6.0625,-1.125,2.5
1589381161.9956267,-0.33,-4.14,8.77,0.4633333333333333,0.2255555555555556,-0.6588888888888889,-1.1875,1.0,-1.75
1589381162.0053859,-0.33,-4.13,8.81,0.4633333333333333,0.2255555555555556,-0.6588888888888889,6.8125,4.875,-4.625
1589381162.017282,-0.33,-4.14,8.85,0.4633333333333333,0.2255555555555556,-0.6588888888888889,-1.9375,-2.875,7.5625
1589381162.0245633,-0.36,-4.17,8.87,0.4755555555555556,0.22,-0.6377777777777778,4.5625,4.5,-5.75
1589381162.0360065,-0.34,-4.15,8.85,0.4755555555555556,0.22,-0.6377777777777778,2.8125,-2.375,1.0
1589381162.0449893,-0.33,-4.14,8.77,0.4755555555555556,0.22,-0.6377777777777778,-2.6875,1.75,2.375
1589381162.0562813,-0.38,-4.14,8.83,0.4755555555555556,0.22,-0.6377777777777778,-2.4375,-0.375,-2.375
1589381162.0675054,-0.33,-4.13,8.85,0.4755555555555556,0.22,-0.6377777777777778,1.5625,-2.75,2.375
1589381162.0753431,-0.34,-4.14,8.87,0.4955555555555556,0.21333333333333332,-0.6466666666666666,2.4375,-1.75,-2.625
1589381162.0859065,-0.34,-4.17,8.87,0.4955555555555556,0.21333333333333332,-0.6466666666666666,-3.5625,2.25,8.8125
1589381162.0954304,-0.33,-4.13,8.76,0.4955555555555556,0.21333333333333332,-0.6466666666666666,-0.6875,3.25,0.75
