time,acc_x,acc_y,acc_z,mag_x,mag_y,mag_z,gyr_x,gyr_y,gyr_z
1589381170.7925625,-0.28,-4.14,8.77,0.5255555555555556,0.19666666666666666,-0.7822222222222223,-0.9375,-5.125,0.375
1589381170.8042338,-0.31,-4.14,8.89,0.5255555555555556,0.19666666666666666,-0.7822222222222223,-0.8125,-2.875,0.75
1589381170.815678,-0.32,-4.16,8.88,0.54,0.19111111111111112,-0.7955555555555556,-6.8125,-2.375,5.625
1589381170.8216364,-0.3,-4.13,8.89,0.54,0.19111111111111112,-0.7955555555555556,-0.5625,-0.625,-2.75
1589381170.8325882,-0.29,-4.14,8.75,0.54,0.19111111111111112,-0.7955555555555556,-1.4375,0.0,1.125
1589381170.8427293,-0.3,-4.14,8.79,0.54,0.19111111111111112,-0.7955555555555556,4.3125,3.75,-4.5
1589381170.854417,-0.29,-4.15,8.84,0.54,0.19111111111111112,-0.7955555555555556,2.5625,4.625,4.5
1589381170.8617275,-0.3,-4.12,8.84,0.5255555555555556,0.19111111111111112,-0.8033333333333333,-1.5625,4.25,-7.4375
1589381170.8739107,-0.28,-4.14,8.83,0.5255555555555556,0.19111111111111112,-0.8033333333333333,-0.3125,4.25,3.75
1589381170.884966,-0.29,-4.16,8.73,0.5255555555555556,0.19111111111111112,-0.8033333333333333,-0.9375,5.625,0.125
1589381170.8925302,-0.26,-4.14,8.8,0.5255555555555556,0.19111111111111112,-0.8033333333333333,-1.9375,-4.875,0.625
1589381170.9075632,-0.27,-4.11,8.84,0.5255555555555556,0.19111111111111112,-0.8033333333333333,-7.0,-4.25,7.1875
1589381170.9137824,-0.29,-4.14,8.88,0.5466666666666666,0.19111111111111112,-0.7955555555555556,6.3125,7.8125,-4.625
1589381170.9284735,-0.3,-4.15,8.88,0.5466666666666666,0.19111111111111112,-0.7955555555555556,8.5,6.125,-2.875
1589381170.9348938,-0.28,-4.14,8.78,0.5466666666666666,0.19111111111111112,-0.7955555555555556,-2.1875,-2.0,2.125
1589381170.946518,-0.31,-4.15,8.79,0.5466666666666666,0.19111111111111112,-0.7955555555555556,-1.4375,-1.375,0.75
1589381170.9546974,-0.31,-4.14,8.82,0.5466666666666666,0.19111111111111112,-0.7955555555555556,1.4375,5.125,5.375
1589381170.9663634,-0.3,-4.14,8.83,0.5333333333333333,0.18444444444444444,-0.7888888888888889,4.6875,5.125,3.125
1589381170.9729345,-0.29,-4.14,8.87,0.5333333333333333,0.18444444444444444,-0.7888888888888889,1.1875,1.875,2.125
1589381170.9846306,-0.31,-4.14,8.74,0.5333333333333333,0.18444444444444444,-0.7888888888888889,5.1875,-3.0,-1.875
1589381170.993368,-0.31,-4.13,8.8,0.5333333333333333,0.18444444444444444,-0.7888888888888889,-1.4375,-0.5,6.375
1589381171.005111,-0.28,-4.15,8.87,0.5333333333333333,0.18444444444444444,-0.7888888888888889,-0.1875,-1.375,5.0
1589381171.012073,-0.31,-4.16,8.91,0.5333333333333333,0.19111111111111112,-0.8033333333333333,5.0625,-5.75,-2.5
1589381171.022438,-0.29,-4.13,8.85,0.5333333333333333,0.19111111111111112,-0.8033333333333333,5.4375,1.75,-7.1875
1589381171.0362315,-0.31,-4.15,8.77,0.5333333333333333,0.19111111111111112,-0.8033333333333333,2.3125,8.4375,2.625
1589381171.0461295,-0.29,-4.15,8.77,0.5333333333333333,0.19111111111111112,-0.8033333333333333,0.9375,-2.625,10.0625
1589381171.059366,-0.32,-4.12,8.81,0.5333333333333333,0.19111111111111112,-0.8033333333333333,-3.4375,0.375,-0.75
1589381171.0656679,-0.33,-4.14,8.83,0.5333333333333333,0.19111111111111112,-0.8033333333333333,-4.8125,-2.625,-1.75
1589381171.072768,-0.38,-4.13,8.88,0.5333333333333333,0.19111111111111112,-0.8033333333333333,2.4375,-1.75,-3.375
1589381171.0849652,-0.36,-4.11,8.79,0.5333333333333333,0.19111111111111112,-0.8033333333333333,-6.3125,-3.625,1.75
1589381171.0978055,-0.26,-4.15,8.83,0.5333333333333333,0.19111111111111112,-0.8033333333333333,0.5625,0.75,-9.5625
1589381171.1054626,-0.22,-4.14,8.84,0.5333333333333333,0.19111111111111112,-0.8033333333333333,-3.1875,2.0,3.875
1589381171.116715,-0.18,-4.18,8.86,0.5255555555555556,0.19111111111111112,-0.76,-0.9375,-6.375,5.0
1589381171.1230648,-0.27,-4.14,8.84,0.5255555555555556,0.19111111111111112,-0.76,0.4375,0.125,1.0
1589381171.1373312,-0.28,-4.15,8.76,0.5255555555555556,0.19111111111111112,-0.76,5.0625,3.5,-0.5
1589381171.1434412,-0.29,-4.15,8.78,0.5255555555555556,0.19111111111111112,-0.76,0.1875,1.125,2.125
1589381171.1552253,-0.33,-4.13,8.8,0.5255555555555556,0.19111111111111112,-0.76,-5.1875,4.375,3.125
1589381171.1629605,-0.33,-4.14,8.83,0.5333333333333333,0.18444444444444444,-0.7677777777777778,-3.4375,-2.125,1.125
1589381171.1741714,-0.32,-4.14,8.85,0.5333333333333333,0.18444444444444444,-0.7677777777777778,-4.4375,-1.875,8.5625
1589381171.1838558,-0.33,-4.16,8.75,0.5333333333333333,0.18444444444444444,-0.7677777777777778,1.4375,-0.875,2.75
1589381171.1936266,-0.29,-4.13,8.83,0.5333333333333333,0.18444444444444444,-0.7677777777777778,-1.9375,-0.125,-1.25
1589381171.2060993,-0.3,-4.11,8.82,0.5333333333333333,0.18444444444444444,-0.7677777777777778,-1.9375,6.125,-5.5
1589381171.2142475,-0.28,-4.13,8.83,0.5255555555555556,0.19111111111111112,-0.7744444444444445,0.6875,4.625,-6.25
1589381171.2235925,-0.31,-4.14,8.86,0.5255555555555556,0.19111111111111112,-0.7744444444444445,4.4375,-0.25,-6.375
1589381171.2352786,-0.3,-4.12,8.78,0.5255555555555556,0.19111111111111112,-0.7744444444444445,-0.9375,-2.375,2.375
1589381171.2462947,-0.33,-4.12,8.83,0.5255555555555556,0.19111111111111112,-0.7744444444444445,-2.6875,2.5,5.125
1589381171.2560961,-0.35,-4.1,8.84,0.5255555555555556,0.19111111111111112,-0.7744444444444445,-2.1875,-4.625,5.375
1589381171.2676382,-0.44,-4.0,8.86,0.5333333333333333,0.18444444444444444,-0.7888888888888889,2.0625,0.125,6.125
1589381171.2731953,-0.44,-3.98,8.85,0.5333333333333333,0.18444444444444444,-0.7888888888888889,3.9375,-0.75,-7.4375
1589381171.2865615,-0.44,-4.08,8.77,0.5333333333333333,0.18444444444444444,-0.7888888888888889,-2.0625,-1.75,1.0
1589381171.2938287,-0.37,-4.15,8.77,0.5333333333333333,0.18444444444444444,-0.7888888888888889,-2.1875,-4.25,11.1875
1589381171.3064814,-0.37,-4.16,8.8,0.5333333333333333,0.18444444444444444,-0.7888888888888889,-1.5625,3.375,1.5
1589381171.313208,-0.52,-4.11,8.9,0.5333333333333333,0.18444444444444444,-0.8033333333333333,5.0625,-0.625,4.75
1589381171.3269842,-0.68,-4.08,8.94,0.5333333333333333,0.18444444444444444,-0.8033333333333333,-1.4375,-3.0,9.5625
1589381171.3340893,-0.89,-3.94,8.82,0.5333333333333333,0.18444444444444444,-0.8033333333333333,1.6875,0.625,17.25
1589381171.3470097,-0.96,-3.76,8.94,0.5333333333333333,0.18444444444444444,-0.8033333333333333,1.5625,3.25,12.8125
1589381171.3556044,-0.73,-3.88,8.94,0.5333333333333333,0.18444444444444444,-0.8033333333333333,-0.1875,-2.0,22.0625
1589381171.3646948,-0.24,-4.06,8.93,0.52,0.19666666666666666,-0.7888888888888889,3.1875,1.875,26.4375
1589381171.373834,-0.01,-4.25,8.76,0.52,0.19666666666666666,-0.7888888888888889,0.0625,-3.625,24.0625
1589381171.383554,-0.03,-4.37,8.62,0.52,0.19666666666666666,-0.7888888888888889,4.1875,-0.875,16.875
1589381171.3942654,-0.05,-4.48,8.72,0.52,0.19666666666666666,-0.7888888888888889,-0.3125,5.125,9.8125
1589381171.4055774,0.03,-4.45,8.72,0.52,0.19666666666666666,-0.7888888888888889,-1.6875,-0.25,13.0625
1589381171.4129386,0.02,-4.27,8.82,0.5255555555555556,0.17777777777777778,-0.7888888888888889,-5.6875,-0.75,9.9375
1589381171.425299,-0.13,-4.2,8.86,0.5255555555555556,0.17777777777777778,-0.7888888888888889,-2.6875,-5.25,0.5
1589381171.434435,-0.26,-4.11,8.83,0.5255555555555556,0.17777777777777778,-0.7888888888888889,-1.0625,3.75,9.5625
1589381171.445461,-0.57,-3.87,8.81,0.5255555555555556,0.17777777777777778,-0.7888888888888889,2.6875,-1.25,3.0
1589381171.4584124,-0.72,-3.86,9.0,0.5255555555555556,0.17777777777777778,-0.7888888888888889,1.6875,-2.25,0.875
1589381171.4646356,-0.73,-3.94,8.96,0.5466666666666666,0.17,-0.8033333333333333,0.5625,1.75,6.875
1589381171.4780676,-0.56,-4.12,8.92,0.5466666666666666,0.17,-0.8033333333333333,-5.1875,0.375,9.9375
1589381171.4848726,-0.03,-4.47,8.71,0.5466666666666666,0.17,-0.8033333333333333,-3.6875,0.0,7.8125
1589381171.4983168,0.11,-4.58,8.68,0.5466666666666666,0.17,-0.8033333333333333,-2.9375,-1.25,1.75
1589381171.5055091,0.08,-4.5,8.76,0.5466666666666666,0.17,-0.8033333333333333,3.9375,-1.375,-5.125
1589381171.5167696,-0.15,-4.33,8.85,0.5255555555555556,0.18444444444444444,-0.7955555555555556,0.3125,1.0,4.0
1589381171.5243044,-0.45,-4.15,8.89,0.5255555555555556,0.18444444444444444,-0.7955555555555556,-5.1875,1.875,-0.125
1589381171.5350466,-0.46,-4.16,8.79,0.5255555555555556,0.18444444444444444,-0.7955555555555556,-1.5625,5.0,-2.375
1589381171.5441847,-0.43,-4.18,8.79,0.5255555555555556,0.18444444444444444,-0.7955555555555556,-5.5625,-1.125,-2.625
1589381171.556207,-0.41,-4.1,8.81,0.5255555555555556,0.18444444444444444,-0.7955555555555556,0.1875,4.375,4.625
1589381171.5636098,-0.59,-3.87,8.83,0.5466666666666666,0.17777777777777778,-0.8033333333333333,0.0625,-1.25,-7.8125
1589381171.574306,-0.9,-3.84,8.98,0.5466666666666666,0.17777777777777778,-0.8033333333333333,2.4375,4.0,2.875
1589381171.5851002,-1.66,-3.27,8.83,0.5466666666666666,0.17777777777777778,-0.8033333333333333,-0.6875,-2.375,21.6875
1589381171.5948055,-1.54,-2.89,8.91,0.5466666666666666,0.17777777777777778,-0.8033333333333333,10.25,6.125,27.6875
1589381171.6116588,-0.25,-2.31,9.06,0.5466666666666666,0.17777777777777778,-0.8033333333333333,4.9375,-3.25,37.3125
1589381171.617591,-0.12,-2.36,8.75,0.54,0.17,-0.7955555555555556,2.6875,-1.25,43.0
1589381171.628771,-0.22,-2.69,8.98,0.54,0.17,-0.7955555555555556,3.8125,-4.875,41.4375
1589381171.6353483,-0.25,-2.76,8.89,0.54,0.17,-0.7955555555555556,-5.1875,-12.9375,40.1875
1589381171.6490574,-0.36,-2.81,8.95,0.54,0.17,-0.7955555555555556,1.4375,-2.5,52.4375
1589381171.6569386,-0.46,-2.81,8.96,0.54,0.17,-0.7955555555555556,-0.0625,-5.125,46.875
1589381171.6683884,-0.63,-2.8,8.97,0.5522222222222222,0.17,-0.7955555555555556,3.6875,-4.875,56.125
1589381171.675865,-0.6,-2.83,9.02,0.5522222222222222,0.17,-0.7955555555555556,-1.8125,-3.625,60.25
1589381171.686276,-0.57,-2.82,8.96,0.5522222222222222,0.17,-0.7955555555555556,0.5625,-1.125,59.75
1589381171.69548,-0.53,-2.81,8.98,0.5522222222222222,0.17,-0.7955555555555556,4.9375,-9.0625,54.4375
1589381171.7080064,-0.56,-2.85,8.91,0.5522222222222222,0.17,-0.7955555555555556,0.9375,-5.875,63.5625
1589381171.7158275,-0.6,-2.85,8.91,0.56,0.15777777777777774,-0.81,-3.5625,-8.5625,70.5
1589381171.7265694,-0.65,-2.88,8.93,0.56,0.15777777777777774,-0.81,-8.125,-4.875,72.375
1589381171.736416,-0.65,-3.01,8.85,0.56,0.15777777777777774,-0.81,0.3125,-12.1875,71.25
1589381171.749001,-0.61,-3.04,8.91,0.56,0.15777777777777774,-0.81,4.0625,-8.4375,68.0625
1589381171.7635796,-0.67,-3.02,8.91,0.56,0.15777777777777774,-0.81,-6.0625,-6.5,65.4375
1589381171.7701495,-0.7,-3.03,8.98,0.5455555555555556,0.12444444444444445,-0.8244444444444444,-3.5625,-5.5,72.625
1589381171.7784336,-0.77,-3.1,8.94,0.5455555555555556,0.12444444444444445,-0.8244444444444444,-4.0625,-6.5,81.3125
1589381171.7863073,-0.8,-3.11,8.91,0.5455555555555556,0.12444444444444445,-0.8244444444444444,-3.5625,-1.75,76.25
1589381171.8000386,-0.81,-3.12,8.96,0.5455555555555556,0.12444444444444445,-0.8244444444444444,-1.4375,-1.5,75.25
1589381171.8084958,-0.86,-3.17,8.92,0.5455555555555556,0.12444444444444445,-0.8244444444444444,-1.4375,-3.875,85.625
1589381171.820683,-0.86,-3.08,8.93,0.5377777777777778,0.1111111111111111,-0.86,-5.8125,-13.4375,82.5625
1589381171.8270054,-0.88,-3.03,8.9,0.5377777777777778,0.1111111111111111,-0.86,-2.6875,-6.625,76.375
1589381171.8367546,-0.91,-3.05,8.82,0.5377777777777778,0.1111111111111111,-0.86,-2.4375,-8.3125,76.5
1589381171.8467875,-0.94,-3.12,8.95,0.5377777777777778,0.1111111111111111,-0.86,-1.6875,-13.4375,90.625
1589381171.8584569,-0.97,-3.12,8.96,0.5377777777777778,0.1111111111111111,-0.86,-0.6875,-9.3125,82.8125
1589381171.8655381,-0.94,-3.03,8.94,0.5244444444444445,0.09222222222222222,-0.8833333333333333,-3.1875,-14.375,85.125
1589381171.8765562,-1.01,-3.13,8.94,0.5244444444444445,0.09222222222222222,-0.8833333333333333,-0.1875,-5.5,83.6875
1589381171.8867116,-1.03,-3.21,8.87,0.5244444444444445,0.09222222222222222,-0.8833333333333333,-0.6875,-10.5625,87.75
1589381171.8966687,-1.01,-3.2,8.91,0.5244444444444445,0.09222222222222222,-0.8833333333333333,-2.5625,-4.625,89.5
1589381171.9144726,-1.03,-3.2,8.95,0.5244444444444445,0.09222222222222222,-0.8833333333333333,4.4375,-7.6875,78.4375
1589381171.9205856,-1.12,-3.13,8.9,0.4633333333333333,0.03666666666666667,-0.8977777777777778,1.5625,0.125,86.0
1589381171.9285808,-1.08,-3.12,8.91,0.4633333333333333,0.03666666666666667,-0.8977777777777778,-3.9375,-3.875,78.5625
1589381171.939382,-1.08,-3.16,8.79,0.4633333333333333,0.03666666666666667,-0.8977777777777778,-1.8125,-7.4375,72.625
1589381171.952357,-1.18,-3.17,8.94,0.4633333333333333,0.03666666666666667,-0.8977777777777778,-5.0625,-9.3125,71.625
1589381171.9588225,-1.27,-3.2,8.91,0.4633333333333333,0.03666666666666667,-0.8977777777777778,0.0625,-8.9375,69.0625
1589381171.9726064,-1.29,-3.26,8.95,0.4033333333333333,-0.01888888888888889,-0.9466666666666668,0.3125,-7.5625,70.375
1589381171.9791825,-1.29,-3.32,8.97,0.4033333333333333,-0.01888888888888889,-0.9466666666666668,-6.3125,-8.5625,75.5
1589381171.9908009,-1.37,-3.33,8.85,0.4033333333333333,-0.01888888888888889,-0.9466666666666668,3.1875,-7.5625,69.3125
1589381171.997819,-1.41,-3.46,8.93,0.4033333333333333,-0.01888888888888889,-0.9466666666666668,-8.0,-2.375,83.0625
1589381172.0094042,-1.42,-3.53,8.92,0.4033333333333333,-0.01888888888888889,-0.9466666666666668,6.3125,2.125,72.875
1589381172.0167634,-1.38,-3.53,8.91,0.3333333333333333,-0.11,-0.91,-6.0625,-6.0,76.5
1589381172.0274525,-1.37,-3.58,8.82,0.3333333333333333,-0.11,-0.91,2.0625,-7.3125,76.625
1589381172.0374234,-1.32,-3.55,8.79,0.3333333333333333,-0.11,-0.91,-3.8125,-7.9375,63.1875
1589381172.0479348,-1.29,-3.44,8.79,0.3333333333333333,-0.11,-0.91,2.9375,3.625,58.0
1589381172.059269,-1.37,-3.39,8.93,0.3333333333333333,-0.11,-0.91,-3.4375,-4.375,55.5625
1589381172.0705519,-1.45,-3.38,8.89,0.31222222222222223,-0.19666666666666666,-0.8511111111111112,0.0625,-9.1875,50.5625
1589381172.0782251,-1.52,-3.43,8.94,0.31222222222222223,-0.19666666666666666,-0.8511111111111112,4.9375,-3.625,42.875
1589381172.0893805,-1.47,-3.39,8.82,0.31222222222222223,-0.19666666666666666,-0.8511111111111112,1.4375,-2.125,35.5625
1589381172.1031914,-1.51,-3.31,8.92,0.31222222222222223,-0.19666666666666666,-0.8511111111111112,-6.6875,-12.1875,33.375
1589381172.1098304,-1.56,-3.37,8.92,0.31222222222222223,-0.19666666666666666,-0.8511111111111112,-2.6875,-1.375,18.125
1589381172.116562,-1.59,-3.35,8.96,0.3588888888888889,-0.26222222222222225,-0.8011111111111111,1.9375,-5.75,4.5
1589381172.128293,-1.68,-3.31,8.86,0.3588888888888889,-0.26222222222222225,-0.8011111111111111,-3.5625,3.75,9.4375
1589381172.142193,-1.66,-3.25,8.77,0.3588888888888889,-0.26222222222222225,-0.8011111111111111,-6.1875,0.375,6.625
1589381172.1482756,-1.7,-3.27,8.85,0.3588888888888889,-0.26222222222222225,-0.8011111111111111,-5.9375,-3.5,4.375
1589381172.1599894,-1.7,-3.28,8.88,0.3588888888888889,-0.26222222222222225,-0.8011111111111111,0.8125,2.0,-9.8125
1589381172.1672304,-1.8,-3.32,8.94,0.4177777777777778,-0.2766666666666667,-0.7444444444444445,-2.5625,0.125,-22.1875
1589381172.18256,-1.77,-3.27,8.88,0.4177777777777778,-0.2766666666666667,-0.7444444444444445,3.1875,1.5,-18.25
1589381172.18828,-1.8,-3.35,8.85,0.4177777777777778,-0.2766666666666667,-0.7444444444444445,-0.5625,4.125,-17.125
1589381172.2009304,-1.81,-3.36,8.84,0.4177777777777778,-0.2766666666666667,-0.7444444444444445,1.4375,-0.875,-26.0625
1589381172.2099862,-1.89,-3.42,8.94,0.4177777777777778,-0.2766666666666667,-0.7444444444444445,0.5625,6.625,-27.6875
1589381172.2200167,-1.94,-3.47,8.9,0.48,-0.27555555555555555,-0.7155555555555555,-3.6875,3.875,-25.8125
1589381172.2287257,-1.98,-3.48,8.93,0.48,-0.27555555555555555,-0.7155555555555555,1.1875,10.5625,-34.625
1589381172.2389874,-1.97,-3.52,8.78,0.48,-0.27555555555555555,-0.7155555555555555,-5.0625,4.75,-38.0625
1589381172.2480779,-1.97,-3.44,8.87,0.48,-0.27555555555555555,-0.7155555555555555,-0.6875,0.875,-36.5625
1589381172.2602859,-1.86,-3.4,8.85,0.48,-0.27555555555555555,-0.7155555555555555,1.6875,5.0,-29.5
1589381172.2681026,-1.86,-3.45,8.86,0.5155555555555555,-0.2344444444444445,-0.6711111111111111,-3.3125,4.375,-43.5
1589381172.2804866,-1.94,-3.73,8.83,0.5155555555555555,-0.2344444444444445,-0.6711111111111111,-6.1875,8.9375,-29.5
1589381172.2888384,-1.83,-3.49,8.81,0.5155555555555555,-0.2344444444444445,-0.6711111111111111,0.6875,8.3125,-42.0
1589381172.3010778,-1.82,-3.48,8.86,0.5155555555555555,-0.2344444444444445,-0.6711111111111111,4.4375,8.5625,-31.625
1589381172.31474,-1.79,-3.47,8.91,0.5155555555555555,-0.2344444444444445,-0.6711111111111111,-0.5625,0.75,-33.5
1589381172.3213592,-1.82,-3.46,8.94,0.5733333333333334,-0.2,-0.68,0.9375,6.625,-36.5625
1589381172.3333342,-1.86,-3.48,8.98,0.5733333333333334,-0.2,-0.68,2.8125,5.875,-42.75
1589381172.3401086,-1.85,-3.47,8.77,0.5733333333333334,-0.2,-0.68,4.6875,10.8125,-42.0
1589381172.3521414,-1.87,-3.46,8.85,0.5733333333333334,-0.2,-0.68,-1.3125,-0.25,-39.1875
1589381172.3603046,-1.85,-3.4,8.85,0.5733333333333334,-0.2,-0.68,0.3125,3.125,-40.1875
1589381172.368374,-1.87,-3.44,8.92,0.6266666666666667,-0.1511111111111111,-0.6944444444444444,-0.3125,-0.125,-37.1875
1589381172.37818,-1.84,-3.4,8.92,0.6266666666666667,-0.1511111111111111,-0.6944444444444444,0.8125,6.125,-29.125
1589381172.3893332,-1.88,-3.37,8.81,0.6266666666666667,-0.1511111111111111,-0.6944444444444444,1.8125,-2.875,-28.375
1589381172.3988755,-1.88,-3.4,8.87,0.6266666666666667,-0.1511111111111111,-0.6944444444444444,-5.5625,-3.875,-21.8125
1589381172.4117274,-1.87,-3.38,8.91,0.6266666666666667,-0.1511111111111111,-0.6944444444444444,3.5625,-1.0,-18.5
1589381172.4184935,-1.83,-3.38,8.97,0.6844444444444444,-0.12222222222222222,-0.7733333333333333,8.375,0.875,-29.0
1589381172.429993,-1.8,-3.34,8.92,0.6844444444444444,-0.12222222222222222,-0.7733333333333333,9.625,-2.375,-14.25
1589381172.439509,-1.79,-3.36,8.8,0.6844444444444444,-0.12222222222222222,-0.7733333333333333,-1.6875,0.5,-14.75
1589381172.4494472,-1.76,-3.38,8.84,0.6844444444444444,-0.12222222222222222,-0.7733333333333333,3.1875,2.875,-13.1875
1589381172.4669607,-1.77,-3.41,8.91,0.6844444444444444,-0.12222222222222222,-0.7733333333333333,2.6875,-0.25,-9.1875
1589381172.4737015,-1.8,-3.4,8.92,0.6977777777777778,-0.23555555555555555,-0.8311111111111111,-4.4375,-1.0,-11.0625
1589381172.4849806,-1.82,-3.45,8.91,0.6977777777777778,-0.23555555555555555,-0.8311111111111111,2.9375,-0.125,-1.875
1589381172.4915366,-1.77,-3.44,8.8,0.6977777777777778,-0.23555555555555555,-0.8311111111111111,-1.0625,-1.125,-4.125
1589381172.499247,-1.71,-3.42,8.87,0.6977777777777778,-0.23555555555555555,-0.8311111111111111,-0.9375,-1.5,-9.1875
1589381172.5118012,-1.65,-3.38,8.92,0.6977777777777778,-0.23555555555555555,-0.8311111111111111,-10.375,-5.375,0.5
1589381172.5230596,-1.65,-3.4,8.93,0.5933333333333334,-0.25555555555555554,-0.7377777777777778,3.6875,1.25,-6.25
1589381172.5286796,-1.67,-3.46,8.87,0.5933333333333334,-0.25555555555555554,-0.7377777777777778,4.9375,-4.5,-7.6875
1589381172.5433688,-1.66,-3.45,8.81,0.5933333333333334,-0.25555555555555554,-0.7377777777777778,-0.5625,5.0,-4.625
1589381172.5500119,-1.7,-3.49,8.86,0.5933333333333334,-0.25555555555555554,-0.7377777777777778,-2.8125,1.375,-9.4375
1589381172.563946,-1.65,-3.47,8.91,0.5933333333333334,-0.25555555555555554,-0.7377777777777778,-0.5625,-3.875,-7.1875
1589381172.570052,-1.63,-3.49,8.92,0.5433333333333333,-0.17555555555555555,-0.6822222222222222,1.6875,3.75,-4.0
1589381172.579425,-1.66,-3.52,8.93,0.5433333333333333,-0.17555555555555555,-0.6822222222222222,1.1875,0.875,-12.0625
1589381172.5892186,-1.61,-3.5,8.8,0.5433333333333333,-0.17555555555555555,-0.6822222222222222,1.1875,2.875,-0.75
1589381172.6008868,-1.64,-3.57,8.89,0.5433333333333333,-0.17555555555555555,-0.6822222222222222,2.9375,-0.25,-10.6875
1589381172.6118288,-1.67,-3.58,8.91,0.5433333333333333,-0.17555555555555555,-0.6822222222222222,-2.9375,2.875,-15.25
1589381172.623543,-1.62,-3.56,8.92,0.5433333333333333,-0.1288888888888889,-0.6611111111111111,0.9375,3.875,-12.1875
1589381172.630232,-1.62,-3.55,8.93,0.5433333333333333,-0.1288888888888889,-0.6611111111111111,3.3125,1.125,-11.1875
1589381172.6422114,-1.66,-3.58,8.82,0.5433333333333333,-0.1288888888888889,-0.6611111111111111,-0.3125,5.5,-14.375
1589381172.6553855,-1.65,-3.57,8.86,0.5433333333333333,-0.1288888888888889,-0.6611111111111111,-1.5625,2.5,-6.0
1589381172.6616108,-1.63,-3.58,8.88,0.5433333333333333,-0.1288888888888889,-0.6611111111111111,2.1875,-0.625,-9.5625
1589381172.6743946,-1.59,-3.57,8.93,0.5455555555555556,-0.09777777777777777,-0.6611111111111111,4.1875,-0.25,-17.75
1589381172.6801322,-1.6,-3.58,8.89,0.5455555555555556,-0.09777777777777777,-0.6611111111111111,2.9375,-4.625,-18.5
1589381172.6943812,-1.57,-3.57,8.8,0.5455555555555556,-0.09777777777777777,-0.6611111111111111,3.8125,1.375,-25.0625
1589381172.7002726,-1.53,-3.54,8.81,0.5455555555555556,-0.09777777777777777,-0.6611111111111111,2.0625,3.75,-23.0625
1589381172.7122824,-1.52,-3.53,8.9,0.5455555555555556,-0.09777777777777777,-0.6611111111111111,-3.4375,0.875,-15.125
1589381172.7196836,-1.5,-3.52,8.93,0.5455555555555556,-0.08444444444444445,-0.6611111111111111,-5.0625,-3.625,-31.5
1589381172.7325199,-1.52,-3.56,8.92,0.5455555555555556,-0.08444444444444445,-0.6611111111111111,-1.5625,1.125,-31.875
1589381172.740318,-1.55,-3.55,8.81,0.5455555555555556,-0.08444444444444445,-0.6611111111111111,1.6875,7.3125,-25.1875
1589381172.7511432,-1.6,-3.56,8.88,0.5455555555555556,-0.08444444444444445,-0.6611111111111111,-0.9375,1.25,-24.8125
1589381172.7621672,-1.57,-3.56,8.9,0.5455555555555556,-0.08444444444444445,-0.6611111111111111,1.4375,7.0625,-24.5625
1589381172.7701495,-1.63,-3.61,8.94,0.5666666666666667,-0.057777777777777775,-0.6588888888888889,3.0625,-1.0,-26.1875
1589381172.7796464,-1.57,-3.58,8.87,0.5666666666666667,-0.057777777777777775,-0.6588888888888889,1.8125,1.25,-15.25
1589381172.7914488,-1.67,-3.66,8.8,0.5666666666666667,-0.057777777777777775,-0.6588888888888889,-1.5625,5.875,-17.5
1589381172.8004966,-1.65,-3.68,8.83,0.5666666666666667,-0.057777777777777775,-0.6588888888888889,1.6875,-1.5,-12.4375
1589381172.8124864,-1.63,-3.63,8.87,0.5666666666666667,-0.057777777777777775,-0.6588888888888889,-0.9375,4.0,-22.0625
1589381172.8211973,-1.55,-3.6,8.93,0.5722222222222222,-0.031111111111111114,-0.6666666666666666,3.9375,6.5,-17.0
1589381172.8315654,-1.58,-3.66,8.92,0.5722222222222222,-0.031111111111111114,-0.6666666666666666,4.5625,-1.875,-27.3125
1589381172.8451188,-1.55,-3.59,8.81,0.5722222222222222,-0.031111111111111114,-0.6666666666666666,-0.4375,3.0,-13.4375
1589381172.8513258,-1.51,-3.56,8.87,0.5722222222222222,-0.031111111111111114,-0.6666666666666666,4.3125,9.6875,-11.5625
1589381172.863061,-1.54,-3.62,8.92,0.5722222222222222,-0.031111111111111114,-0.6666666666666666,5.5625,1.875,-9.3125
1589381172.8707,-1.54,-3.6,8.91,0.5688888888888889,-0.031111111111111114,-0.6666666666666666,0.9375,-4.0,-5.375
1589381172.8846426,-1.54,-3.62,8.94,0.5688888888888889,-0.031111111111111114,-0.6666666666666666,-5.8125,0.5,-10.8125
1589381172.8907394,-1.52,-3.71,8.78,0.5688888888888889,-0.031111111111111114,-0.6666666666666666,6.4375,-3.25,-9.1875
1589381172.9012475,-1.51,-3.64,8.83,0.5688888888888889,-0.031111111111111114,-0.6666666666666666,7.125,-1.125,-6.0
1589381172.9126961,-1.48,-3.64,8.88,0.5688888888888889,-0.031111111111111114,-0.6666666666666666,0.9375,2.125,-9.4375
1589381172.9240901,-1.47,-3.64,8.93,0.5733333333333334,-0.024444444444444446,-0.6733333333333333,-1.6875,3.75,-9.6875
1589381172.930406,-1.44,-3.61,8.9,0.5733333333333334,-0.024444444444444446,-0.6733333333333333,0.6875,-5.125,-3.5
1589381172.9436376,-1.4,-3.56,8.8,0.5733333333333334,-0.024444444444444446,-0.6733333333333333,-0.6875,-1.625,-6.0
1589381172.9507885,-1.4,-3.54,8.83,0.5733333333333334,-0.024444444444444446,-0.6733333333333333,6.5625,5.5,-10.4375
1589381172.9629855,-1.42,-3.6,8.92,0.5733333333333334,-0.024444444444444446,-0.6733333333333333,-2.9375,2.5,0.5
1589381172.9702795,-1.45,-3.6,8.91,0.5955555555555555,-0.024444444444444446,-0.6966666666666667,-2.9375,-8.5625,-1.75
1589381172.9805908,-1.47,-3.61,8.92,0.5955555555555555,-0.024444444444444446,-0.6966666666666667,1.0625,2.375,-7.6875
1589381172.995856,-1.41,-3.53,8.82,0.5955555555555555,-0.024444444444444446,-0.6966666666666667,2.4375,2.5,-7.3125
1589381173.0019252,-1.5,-3.63,8.84,0.5955555555555555,-0.024444444444444446,-0.6966666666666667,-4.4375,-2.875,9.3125
1589381173.0178592,-1.51,-3.62,8.87,0.5955555555555555,-0.024444444444444446,-0.6966666666666667,2.0625,7.0625,-3.75
1589381173.0242927,-1.78,-3.76,8.95,0.6466666666666666,-0.03888888888888889,-0.7022222222222222,-5.6875,-8.1875,1.625
1589381173.0355663,-1.12,-3.75,8.81,0.6466666666666666,-0.03888888888888889,-0.7022222222222222,4.8125,7.3125,-8.9375
1589381173.0422778,-1.91,-3.78,8.74,0.6466666666666666,-0.03888888888888889,-0.7022222222222222,-9.0,3.25,2.0
1589381173.0545552,-1.27,-3.77,8.77,0.6466666666666666,-0.03888888888888889,-0.7022222222222222,-0.5625,-1.375,3.125
1589381173.062316,-1.23,-3.7,8.95,0.6466666666666666,-0.03888888888888889,-0.7022222222222222,-6.0625,-2.375,8.8125
1589381173.0736153,-1.36,-3.7,8.88,0.7511111111111111,-0.06,-0.6888888888888889,5.0625,4.5,-9.4375
1589381173.0802145,-1.35,-3.73,8.91,0.7511111111111111,-0.06,-0.6888888888888889,-3.1875,-0.5,3.125
1589381173.0878115,-1.35,-3.73,8.91,0.7511111111111111,-0.06,-0.6888888888888889,-3.1875,-0.5,3.125
1589381173.1016707,-1.5,-3.77,8.83,0.7511111111111111,-0.06,-0.6888888888888889,0.8125,4.625,-4.625
1589381173.1136286,-1.46,-3.74,8.9,0.7511111111111111,-0.06,-0.6888888888888889,3.8125,4.0,-5.625
1589381173.1215873,-1.4,-3.74,8.91,1.0488888888888892,-0.15222222222222226,-0.7022222222222222,4.6875,4.5,-3.375
1589381173.1320422,-1.43,-3.77,8.91,1.0488888888888892,-0.15222222222222226,-0.7022222222222222,4.9375,-1.0,-10.4375
1589381173.1414845,-1.37,-3.74,8.78,1.0488888888888892,-0.15222222222222226,-0.7022222222222222,2.1875,5.5,-2.375
1589381173.1515837,-1.35,-3.7,8.83,1.0488888888888892,-0.15222222222222226,-0.7022222222222222,6.5625,5.0,1.375
1589381173.1683474,-1.35,-3.62,8.88,1.0488888888888892,-0.15222222222222226,-0.7022222222222222,-10.625,-2.375,-2.625
1589381173.174517,-1.32,-3.61,8.91,1.7455555555555555,-0.3855555555555555,-0.81,3.1875,5.5,-5.375
1589381173.1812851,-1.35,-3.65,8.85,1.7455555555555555,-0.3855555555555555,-0.81,7.625,8.6875,3.0
1589381173.1928866,-1.34,-3.62,8.82,1.7455555555555555,-0.3855555555555555,-0.81,-3.5625,-3.25,-1.875
1589381173.2059824,-1.33,-3.62,8.83,1.7455555555555555,-0.3855555555555555,-0.81,-2.1875,4.25,0.0
1589381173.2142775,-1.24,-3.58,8.91,1.7455555555555555,-0.3855555555555555,-0.81,1.5625,0.875,1.75
1589381173.2258828,-1.22,-3.6,8.92,1.18,-0.32666666666666666,-0.7744444444444445,-5.1875,-2.625,-2.375
1589381173.2316508,-1.21,-3.62,8.92,1.18,-0.32666666666666666,-0.7744444444444445,2.4375,-3.5,-5.625
1589381173.2446065,-1.14,-3.57,8.82,1.18,-0.32666666666666666,-0.7744444444444445,-1.4375,-6.25,7.6875
1589381173.2519634,-1.12,-3.53,8.88,1.18,-0.32666666666666666,-0.7744444444444445,-1.0625,-2.25,6.5
1589381173.2649848,-1.08,-3.52,8.92,1.18,-0.32666666666666666,-0.7744444444444445,5.5625,-3.5,-8.8125
1589381173.2714806,-1.06,-3.53,8.93,0.7566666666666667,-0.12222222222222222,-0.7322222222222222,-2.3125,-0.875,2.375
1589381173.2829967,-1.02,-3.55,8.86,0.7566666666666667,-0.12222222222222222,-0.7322222222222222,-0.0625,-1.0,2.375
1589381173.2928948,-0.99,-3.52,8.8,0.7566666666666667,-0.12222222222222222,-0.7322222222222222,12.125,-7.1875,-12.4375
1589381173.302419,-0.94,-3.51,8.87,0.7566666666666667,-0.12222222222222222,-0.7322222222222222,2.4375,4.0,-12.8125
1589381173.3144224,-0.88,-3.47,8.93,0.7566666666666667,-0.12222222222222222,-0.7322222222222222,-3.0625,2.75,-18.75
1589381173.324485,-0.84,-3.42,8.91,0.65,-0.04444444444444445,-0.6966666666666667,-0.6875,2.125,-22.4375
1589381173.3331294,-0.83,-3.39,8.93,0.65,-0.04444444444444445,-0.6966666666666667,1.8125,2.125,-37.6875
1589381173.3445756,-0.79,-3.3,8.82,0.65,-0.04444444444444445,-0.6966666666666667,6.0625,5.375,-37.1875
1589381173.353742,-0.88,-3.24,8.94,0.65,-0.04444444444444445,-0.6966666666666667,-2.3125,6.25,-44.75
1589381173.364876,-0.78,-3.15,8.92,0.65,-0.04444444444444445,-0.6966666666666667,0.9375,1.5,-44.5
1589381173.3719294,-1.02,-3.39,8.98,0.5911111111111111,-0.01888888888888889,-0.7033333333333334,5.4375,0.625,-46.5
1589381173.3837395,-0.87,-3.54,8.93,0.5911111111111111,-0.01888888888888889,-0.7033333333333334,5.1875,9.1875,-47.125
1589381173.3973634,-1.0,-3.92,8.82,0.5911111111111111,-0.01888888888888889,-0.7033333333333334,-0.3125,3.625,-42.0
1589381173.4039798,-0.86,-3.92,8.81,0.5911111111111111,-0.01888888888888889,-0.7033333333333334,10.125,7.9375,-50.1875
1589381173.41448,-0.72,-3.78,8.86,0.5911111111111111,-0.01888888888888889,-0.7033333333333334,-0.6875,-1.375,-60.625
1589381173.421448,-0.66,-3.54,8.91,0.5844444444444444,0.0011111111111111113,-0.6966666666666667,4.6875,0.5,-69.4375
1589381173.4361494,-0.91,-3.27,8.91,0.5844444444444444,0.0011111111111111113,-0.6966666666666667,0.0625,5.75,-56.875
1589381173.442151,-1.13,-3.32,8.88,0.5844444444444444,0.0011111111111111113,-0.6966666666666667,-0.4375,7.5625,-61.25
1589381173.4563065,-1.25,-3.41,8.82,0.5844444444444444,0.0011111111111111113,-0.6966666666666667,0.9375,7.6875,-53.8125
1589381173.4641476,-0.94,-3.24,8.93,0.5844444444444444,0.0011111111111111113,-0.6966666666666667,3.5625,5.0,-56.375
1589381173.4745467,-0.81,-3.15,8.92,0.5788888888888889,0.03,-0.7111111111111111,3.6875,9.5625,-63.9375
1589381173.4834168,-0.92,-3.39,8.96,0.5788888888888889,0.03,-0.7111111111111111,-3.4375,5.375,-55.5625
1589381173.4933822,-1.06,-3.69,8.89,0.5788888888888889,0.03,-0.7111111111111111,11.75,3.875,-46.125
1589381173.5050626,-0.99,-4.05,8.85,0.5788888888888889,0.03,-0.7111111111111111,1.4375,1.25,-40.5625
1589381173.5144506,-0.97,-4.06,8.84,0.5788888888888889,0.03,-0.7111111111111111,-2.0625,2.125,-41.1875
1589381173.5218437,-0.71,-3.92,8.88,0.5811111111111111,0.03888888888888889,-0.6822222222222222,1.6875,3.875,-36.5625
1589381173.533604,-0.76,-3.51,8.84,0.5811111111111111,0.03888888888888889,-0.6822222222222222,-6.1875,-0.125,-40.3125
1589381173.5429769,-0.88,-3.5,8.83,0.5811111111111111,0.03888888888888889,-0.6822222222222222,10.0,7.0625,-35.8125
1589381173.554223,-1.12,-3.62,8.86,0.5811111111111111,0.03888888888888889,-0.6822222222222222,6.0625,7.5625,-29.25
1589381173.5678322,-1.11,-3.76,8.88,0.5811111111111111,0.03888888888888889,-0.6822222222222222,-0.9375,1.375,-22.3125
1589381173.5750024,-2.17,-7.75,9.24,0.5422222222222223,0.09333333333333334,-0.6822222222222222,-51.75,39.5625,-330.6875
1589381173.5868855,-25.96,-21.64,-6.59,0.5422222222222223,0.09333333333333334,-0.6822222222222222,-69.5,-7.8125,-343.6875
1589381173.5935216,4.59,8.08,3.78,0.5422222222222223,0.09333333333333334,-0.6822222222222222,18.6875,64.8125,-305.3125
1589381173.607284,-0.69,-1.62,10.21,0.5422222222222223,0.09333333333333334,-0.6822222222222222,120.75,64.5625,-307.5625
1589381173.614581,-1.17,-1.12,9.92,0.5422222222222223,0.09333333333333334,-0.6822222222222222,12.5,43.75,-283.125
1589381173.6253905,-2.47,0.5,6.07,0.5366666666666666,0.16333333333333333,-0.6666666666666666,-8.375,13.5625,-254.125
1589381173.6330414,-0.55,-1.44,9.87,0.5366666666666666,0.16333333333333333,-0.6666666666666666,14.3125,29.625,-248.9375
1589381173.6435447,-0.92,-0.4,8.93,0.5366666666666666,0.16333333333333333,-0.6666666666666666,4.5625,18.125,-206.5625
1589381173.6528714,-0.86,-0.17,9.01,0.5366666666666666,0.16333333333333333,-0.6666666666666666,2.4375,4.5,-183.875
1589381173.6646886,-0.22,-0.34,9.21,0.5366666666666666,0.16333333333333333,-0.6666666666666666,5.0625,14.0,-165.0625
1589381173.672758,0.07,-0.42,9.25,0.4777777777777778,0.2466666666666667,-0.6666666666666666,4.0625,11.3125,-133.0625
1589381173.6845162,0.23,-1.36,9.24,0.4777777777777778,0.2466666666666667,-0.6666666666666666,1.9375,8.0625,-106.0625
1589381173.6934268,0.21,-1.84,9.0,0.4777777777777778,0.2466666666666667,-0.6666666666666666,-0.0625,10.3125,-75.125
1589381173.7034974,0.36,-2.16,8.73,0.4777777777777778,0.2466666666666667,-0.6666666666666666,-1.9375,5.875,-60.5
1589381173.7193608,-0.02,-2.47,8.89,0.4777777777777778,0.2466666666666667,-0.6666666666666666,3.1875,-0.125,-28.75
1589381173.7246249,-0.12,-2.56,9.05,0.4355555555555555,0.31555555555555553,-0.6522222222222223,6.3125,-3.5,-3.875
1589381173.737359,2.81,-15.76,9.73,0.4355555555555555,0.31555555555555553,-0.6522222222222223,5.0625,-4.125,65.1875
1589381173.7442589,0.79,-4.4,6.68,0.4355555555555555,0.31555555555555553,-0.6522222222222223,-6.3125,-2.0,44.5
1589381173.7575655,0.8,-4.61,9.25,0.4355555555555555,0.31555555555555553,-0.6522222222222223,2.6875,6.875,41.8125
1589381173.7656026,0.9,-4.49,8.76,0.4355555555555555,0.31555555555555553,-0.6522222222222223,-1.4375,-9.5625,37.1875
1589381173.7772806,0.84,-3.12,8.87,0.4066666666666667,0.34444444444444444,-0.6444444444444445,-7.5,-4.875,46.0
1589381173.7835374,0.59,-3.72,8.92,0.4066666666666667,0.34444444444444444,-0.6444444444444445,-3.6875,-6.75,58.25
1589381173.793284,0.62,-3.96,8.71,0.4066666666666667,0.34444444444444444,-0.6444444444444445,-2.9375,-2.375,59.75
1589381173.800714,0.62,-3.96,8.71,0.4066666666666667,0.34444444444444444,-0.6444444444444445,-2.9375,-2.375,59.75
1589381173.8070116,0.51,-4.07,8.81,0.4066666666666667,0.34444444444444444,-0.6444444444444445,-1.8125,0.5,41.1875
1589381173.8160765,0.58,-4.05,8.85,0.4066666666666667,0.34444444444444444,-0.6444444444444445,-2.9375,-8.5625,43.5
1589381173.8229866,0.35,-4.04,8.92,0.4155555555555556,0.3322222222222222,-0.6522222222222223,-4.3125,-3.625,40.5625
1589381173.8341124,0.35,-4.04,8.92,0.4155555555555556,0.3322222222222222,-0.6522222222222223,-4.3125,-3.625,40.5625
1589381173.8452375,0.32,-4.11,8.79,0.4155555555555556,0.3322222222222222,-0.6522222222222223,3.1875,-5.375,50.1875
1589381173.85725,0.48,-4.05,8.92,0.4155555555555556,0.3322222222222222,-0.6522222222222223,0.4375,2.125,45.375
1589381173.872858,0.39,-3.89,8.86,0.4155555555555556,0.3322222222222222,-0.6522222222222223,0.0625,-5.0,36.5625
1589381173.8792133,0.24,-4.15,8.94,0.44222222222222224,0.3233333333333333,-0.6444444444444445,-2.3125,-7.4375,39.3125
1589381173.8906355,0.37,-4.07,8.85,0.44222222222222224,0.3233333333333333,-0.6444444444444445,-2.3125,-12.4375,49.4375
1589381173.8972054,0.42,-4.24,8.75,0.44222222222222224,0.3233333333333333,-0.6444444444444445,-1.3125,-2.375,33.875
1589381173.909026,0.31,-4.16,8.87,0.44222222222222224,0.3233333333333333,-0.6444444444444445,3.1875,-9.3125,36.4375
1589381173.917245,0.15,-4.11,8.8,0.44222222222222224,0.3233333333333333,-0.6444444444444445,0.1875,-7.3125,34.125
1589381173.9285462,0.28,-4.16,8.79,0.4622222222222222,0.3244444444444444,-0.6377777777777778,0.4375,-3.0,29.875
1589381173.9354904,0.27,-4.06,8.86,0.4622222222222222,0.3244444444444444,-0.6377777777777778,4.0625,0.75,26.5625
1589381173.9479244,0.25,-4.13,8.79,0.4622222222222222,0.3244444444444444,-0.6377777777777778,-3.1875,0.25,37.8125
1589381173.9550154,0.13,-4.04,8.83,0.4622222222222222,0.3244444444444444,-0.6377777777777778,-1.0625,-4.625,39.9375
1589381173.968856,0.07,-4.08,8.86,0.4622222222222222,0.3244444444444444,-0.6377777777777778,-1.3125,-3.5,30.875
1589381173.9746618,0.09,-4.06,8.85,0.4544444444444444,0.31777777777777777,-0.6522222222222223,3.6875,-3.125,32.125
1589381173.985717,0.14,-4.1,8.88,0.4544444444444444,0.31777777777777777,-0.6522222222222223,-2.9375,1.75,39.5625
1589381173.9957473,0.09,-4.05,8.82,0.4544444444444444,0.31777777777777777,-0.6522222222222223,0.9375,-3.75,37.5625
1589381174.0057335,0.17,-4.1,8.83,0.4544444444444444,0.31777777777777777,-0.6522222222222223,0.0625,-6.0,34.875
1589381174.0173993,0.04,-4.04,8.8,0.4544444444444444,0.31777777777777777,-0.6522222222222223,0.9375,2.125,33.25
1589381174.0292587,-0.09,-3.95,8.92,0.4544444444444444,0.3033333333333333,-0.6377777777777778,-5.5625,-1.875,35.5625
1589381174.037215,0.04,-4.1,8.82,0.4544444444444444,0.3033333333333333,-0.6377777777777778,-2.8125,-7.9375,44.75
1589381174.04754,0.05,-4.03,8.86,0.4544444444444444,0.3033333333333333,-0.6377777777777778,-3.0625,-4.875,37.1875
1589381174.0604825,0.0,-4.09,8.73,0.4544444444444444,0.3033333333333333,-0.6377777777777778,-5.1875,-5.125,43.625
1589381174.067717,0.01,-4.11,8.79,0.4544444444444444,0.3033333333333333,-0.6377777777777778,2.4375,-3.25,30.625
1589381174.0755756,-0.16,-4.03,8.83,0.4688888888888889,0.2977777777777777,-0.6666666666666666,5.5625,-3.625,42.0
1589381174.0858734,-0.17,-4.01,8.83,0.4688888888888889,0.2977777777777777,-0.6666666666666666,-2.0625,-3.125,41.4375
1589381174.0962007,-0.28,-3.92,8.8,0.4688888888888889,0.2977777777777777,-0.6666666666666666,-4.1875,-11.1875,49.9375
1589381174.1060052,-0.28,-4.02,8.79,0.4688888888888889,0.2977777777777777,-0.6666666666666666,-2.4375,0.0,54.6875
1589381174.1177142,-0.26,-4.05,8.82,0.4688888888888889,0.2977777777777777,-0.6666666666666666,-4.8125,-10.1875,52.1875
1589381174.1253815,-0.31,-4.04,8.88,0.4755555555555556,0.2911111111111111,-0.6377777777777778,-1.0625,-0.25,53.9375
1589381174.1401196,-0.25,-4.04,8.87,0.4755555555555556,0.2911111111111111,-0.6377777777777778,2.0625,-6.5,65.5625
1589381174.1467087,-0.23,-4.05,8.8,0.4755555555555556,0.2911111111111111,-0.6377777777777778,3.0625,2.625,49.8125
1589381174.1556714,-0.2,-4.23,8.82,0.4755555555555556,0.2911111111111111,-0.6377777777777778,-5.5625,-5.625,58.875
1589381174.166569,1.53,-6.26,8.72,0.4755555555555556,0.2911111111111111,-0.6377777777777778,-2.8125,-5.375,13.1875
1589381174.1784832,1.88,-6.23,7.39,0.4622222222222222,0.24444444444444444,-0.6466666666666666,-2.3125,-1.75,-1.625
1589381174.1848614,-0.34,-4.21,8.63,0.4622222222222222,0.24444444444444444,-0.6466666666666666,1.6875,-1.25,-6.0
1589381174.1949625,-0.11,-4.19,8.81,0.4622222222222222,0.24444444444444444,-0.6466666666666666,-5.6875,3.875,-0.125
1589381174.2005525,-0.11,-4.19,8.81,0.4622222222222222,0.24444444444444444,-0.6466666666666666,-5.6875,3.875,-0.125
1589381174.2124147,-0.32,-4.16,8.78,0.4622222222222222,0.24444444444444444,-0.6466666666666666,2.6875,0.375,0.25
1589381174.2181516,-0.28,-4.22,8.83,0.4622222222222222,0.24444444444444444,-0.6466666666666666,-5.1875,-3.875,-6.375
1589381174.224801,-0.28,-4.08,8.89,0.4888888888888889,0.23777777777777775,-0.6311111111111111,-0.0625,1.125,-3.25
1589381174.235021,-0.27,-4.24,8.87,0.4888888888888889,0.23777777777777775,-0.6311111111111111,4.5625,1.375,0.75
1589381174.2407682,-0.27,-4.24,8.87,0.4888888888888889,0.23777777777777775,-0.6311111111111111,4.5625,1.375,0.75
1589381174.2523856,-0.29,-4.12,8.73,0.4888888888888889,0.23777777777777775,-0.6311111111111111,-1.4375,0.125,9.8125
1589381174.2586162,-0.28,-4.14,8.82,0.4888888888888889,0.23777777777777775,-0.6311111111111111,-2.1875,4.25,-2.75
1589381174.2713256,-0.3,-4.15,8.86,0.4888888888888889,0.23777777777777775,-0.6311111111111111,-3.9375,1.75,-7.5625
1589381174.2768395,-0.29,-4.16,8.88,0.5044444444444445,0.2577777777777778,-0.6522222222222223,0.5625,2.0,-2.875
1589381174.2903821,-0.28,-4.14,8.85,0.5044444444444445,0.2577777777777778,-0.6522222222222223,4.0625,-2.375,0.0
1589381174.296278,-0.28,-4.17,8.75,0.5044444444444445,0.2577777777777778,-0.6522222222222223,2.4375,-2.0,-5.125
1589381174.3092325,-0.28,-4.13,8.81,0.5044444444444445,0.2577777777777778,-0.6522222222222223,-0.9375,-1.25,-4.125
1589381174.3185954,-0.3,-4.14,8.86,0.5044444444444445,0.2577777777777778,-0.6522222222222223,4.4375,-1.375,3.25
1589381174.3293214,-0.28,-4.14,8.9,0.4955555555555556,0.25,-0.6588888888888889,-2.6875,1.25,3.125
1589381174.3364887,-0.29,-4.16,8.83,0.4955555555555556,0.25,-0.6588888888888889,6.5625,1.625,10.0625
1589381174.3478668,-0.29,-4.13,8.75,0.4955555555555556,0.25,-0.6588888888888889,-3.6875,1.375,0.625
1589381174.3569002,-0.29,-4.16,8.77,0.4955555555555556,0.25,-0.6588888888888889,-1.0625,2.5,1.375
1589381174.3688862,-0.27,-4.14,8.87,0.4955555555555556,0.25,-0.6588888888888889,-0.0625,-1.625,-2.625
1589381174.3760653,-0.28,-4.17,8.88,0.5022222222222222,0.25,-0.6522222222222223,0.9375,-3.625,-4.375
1589381174.3866193,-0.29,-4.14,8.87,0.5022222222222222,0.25,-0.6522222222222223,-2.8125,-2.125,-1.125
1589381174.3988676,-0.29,-4.16,8.75,0.5022222222222222,0.25,-0.6522222222222223,4.1875,5.5,1.125
1589381174.407486,-0.27,-4.14,8.82,0.5022222222222222,0.25,-0.6522222222222223,-1.3125,-5.0,3.125
1589381174.4193401,-0.3,-4.15,8.83,0.5022222222222222,0.25,-0.6522222222222223,-2.3125,3.25,-3.0
1589381174.4279752,-0.29,-4.13,8.88,0.5077777777777778,0.25,-0.6377777777777778,2.5625,6.125,1.5
1589381174.4424474,-0.29,-4.16,8.82,0.5077777777777778,0.25,-0.6377777777777778,4.5625,1.875,-2.875
1589381174.4486575,-0.29,-4.16,8.77,0.5077777777777778,0.25,-0.6377777777777778,-11.75,0.0,-0.125
1589381174.4572005,-0.29,-4.14,8.79,0.5077777777777778,0.25,-0.6377777777777778,3.1875,9.1875,5.125
1589381174.469116,-0.28,-4.14,8.87,0.5077777777777778,0.25,-0.6377777777777778,1.8125,0.0,-9.4375
1589381174.480205,-0.29,-4.15,8.87,0.5077777777777778,0.2577777777777778,-0.6588888888888889,4.6875,-4.25,-4.25
1589381174.4865592,-0.3,-4.12,8.88,0.5077777777777778,0.2577777777777778,-0.6588888888888889,-5.1875,-3.875,3.875
1589381174.5014176,-0.28,-4.17,8.77,0.5077777777777778,0.2577777777777778,-0.6588888888888889,3.9375,3.0,-0.375
1589381174.5076606,-0.29,-4.16,8.84,0.5077777777777778,0.2577777777777778,-0.6588888888888889,-2.0625,6.375,1.375
1589381174.5199988,-0.28,-4.14,8.89,0.5077777777777778,0.2577777777777778,-0.6588888888888889,-4.4375,0.5,4.75
1589381174.5266855,-0.29,-4.14,8.86,0.5022222222222222,0.23777777777777775,-0.6522222222222223,8.125,3.625,-3.75
1589381174.539204,-0.29,-4.16,8.89,0.5022222222222222,0.23777777777777775,-0.6522222222222223,1.4375,-1.125,-2.5
1589381174.5473993,-0.28,-4.15,8.77,0.5022222222222222,0.23777777777777775,-0.6522222222222223,-4.5625,1.5,-2.375
1589381174.5582922,-0.28,-4.17,8.8,0.5022222222222222,0.23777777777777775,-0.6522222222222223,-2.6875,-0.25,0.125
1589381174.5746875,-0.3,-4.14,8.88,0.5022222222222222,0.23777777777777775,-0.6522222222222223,-1.0625,1.25,-2.875
