time,acc_x,acc_y,acc_z,mag_x,mag_y,mag_z,gyr_x,gyr_y,gyr_z
1589381194.107511,-0.32,-4.14,8.86,0.5433333333333333,0.20555555555555555,-0.7866666666666666,-2.1875,4.625,-1.5
1589381194.1140232,-0.32,-4.13,8.86,0.5511111111111111,0.21333333333333332,-0.7944444444444444,-6.0625,0.625,1.5
1589381194.1206205,-0.32,-4.14,8.78,0.5511111111111111,0.21333333333333332,-0.7944444444444444,-5.5625,2.5,5.625
1589381194.1321495,-0.36,-4.14,8.73,0.5511111111111111,0.21333333333333332,-0.7944444444444444,-2.9375,-3.375,-1.875
1589381194.140267,-0.36,-4.15,8.81,0.5511111111111111,0.21333333333333332,-0.7944444444444444,-1.0625,7.4375,-0.75
1589381194.1509538,-0.35,-4.16,8.85,0.5511111111111111,0.21333333333333332,-0.7944444444444444,-3.3125,-0.625,2.375
1589381194.1636212,-0.33,-4.15,8.84,0.5633333333333334,0.22,-0.7944444444444444,-4.0625,1.125,-4.875
1589381194.1697032,-0.32,-4.15,8.81,0.5633333333333334,0.22,-0.7944444444444444,1.9375,2.25,-10.6875
1589381194.1841366,-0.34,-4.14,8.75,0.5633333333333334,0.22,-0.7944444444444444,-1.3125,1.25,-2.75
1589381194.1902735,-0.34,-4.15,8.88,0.5633333333333334,0.22,-0.7944444444444444,-5.3125,-3.375,3.5
1589381194.2019734,-0.35,-4.15,8.92,0.5633333333333334,0.22,-0.7944444444444444,-7.25,-1.125,5.375
1589381194.2094154,-0.33,-4.13,8.89,0.5577777777777778,0.19333333333333333,-0.8088888888888889,-1.0625,0.375,-1.125
1589381194.2231634,-0.33,-4.13,8.88,0.5577777777777778,0.19333333333333333,-0.8088888888888889,2.4375,-2.625,2.5
1589381194.23025,-0.32,-4.13,8.73,0.5577777777777778,0.19333333333333333,-0.8088888888888889,-6.8125,-4.0,-0.625
1589381194.2422655,-0.34,-4.13,8.79,0.5577777777777778,0.19333333333333333,-0.8088888888888889,-2.4375,4.375,-3.875
1589381194.2513185,-0.36,-4.15,8.82,0.5577777777777778,0.19333333333333333,-0.8088888888888889,7.5,-1.125,-3.0
1589381194.2596571,-0.34,-4.16,8.84,0.5433333333333333,0.21333333333333332,-0.7944444444444444,-3.5625,-1.25,0.375
1589381194.2706478,-0.35,-4.12,8.8,0.5433333333333333,0.21333333333333332,-0.7944444444444444,-7.75,-2.5,10.4375
1589381194.280492,-0.3,-4.16,8.71,0.5433333333333333,0.21333333333333332,-0.7944444444444444,5.4375,-0.625,-10.8125
1589381194.2919345,-0.33,-4.14,8.79,0.5433333333333333,0.21333333333333332,-0.7944444444444444,1.6875,-8.8125,-3.0
1589381194.3019454,-0.33,-4.14,8.9,0.5433333333333333,0.21333333333333332,-0.7944444444444444,0.3125,2.25,-0.25
1589381194.3088653,-0.33,-4.17,8.92,0.5366666666666666,0.20555555555555555,-0.8011111111111111,5.0625,4.875,-10.8125
1589381194.3207846,-0.32,-4.16,8.91,0.5366666666666666,0.20555555555555555,-0.8011111111111111,-2.0625,-2.0,10.8125
1589381194.3355849,-0.34,-4.15,8.76,0.5366666666666666,0.20555555555555555,-0.8011111111111111,-5.5625,-1.25,0.0
1589381194.342177,-0.34,-4.14,8.76,0.5366666666666666,0.20555555555555555,-0.8011111111111111,3.8125,-2.375,7.4375
1589381194.3546762,-0.35,-4.17,8.83,0.5366666666666666,0.20555555555555555,-0.8011111111111111,-7.25,-6.875,6.875
1589381194.3616366,-0.33,-4.14,8.84,0.5366666666666666,0.22666666666666666,-0.7944444444444444,-2.3125,-1.375,2.75
1589381194.3748364,-0.34,-4.14,8.82,0.5366666666666666,0.22666666666666666,-0.7944444444444444,1.3125,4.75,-2.625
1589381194.3813915,-0.34,-4.17,8.76,0.5366666666666666,0.22666666666666666,-0.7944444444444444,-1.0625,0.0,4.125
1589381194.3944135,-0.34,-4.12,8.79,0.5366666666666666,0.22666666666666666,-0.7944444444444444,2.3125,3.0,2.375
1589381194.4022448,-0.34,-4.13,8.83,0.5366666666666666,0.22666666666666666,-0.7944444444444444,3.1875,-2.25,-5.25
1589381194.4128282,-0.35,-4.15,8.92,0.5511111111111111,0.22,-0.8011111111111111,4.6875,-3.25,-2.25
1589381194.4204092,-0.33,-4.15,8.9,0.5511111111111111,0.22,-0.8011111111111111,5.1875,-3.0,-0.25
1589381194.4324145,-0.33,-4.17,8.77,0.5511111111111111,0.22,-0.8011111111111111,2.8125,-6.0,-3.0
1589381194.4410114,-0.35,-4.16,8.81,0.5511111111111111,0.22,-0.8011111111111111,-1.1875,0.625,6.125
1589381194.4522214,-0.35,-4.13,8.84,0.5511111111111111,0.22,-0.8011111111111111,5.8125,0.625,0.375
1589381194.460857,-0.35,-4.14,8.87,0.5433333333333333,0.2,-0.8011111111111111,-5.8125,-3.875,4.125
1589381194.4713788,-0.38,-4.16,8.91,0.5433333333333333,0.2,-0.8011111111111111,-2.6875,1.25,5.375
1589381194.4813929,-0.34,-4.15,8.78,0.5433333333333333,0.2,-0.8011111111111111,-0.6875,1.375,8.6875
1589381194.4934983,-0.36,-4.14,8.8,0.5433333333333333,0.2,-0.8011111111111111,7.25,-1.625,-3.5
1589381194.5056195,-0.35,-4.16,8.82,0.5433333333333333,0.2,-0.8011111111111111,-2.3125,-3.875,-1.375
1589381194.5108027,-0.33,-4.12,8.83,0.5366666666666666,0.20555555555555555,-0.7944444444444444,-0.8125,-3.5,-1.625
1589381194.524885,-0.34,-4.17,8.9,0.5366666666666666,0.20555555555555555,-0.7944444444444444,-0.3125,0.375,1.5
1589381194.53109,-0.35,-4.16,8.76,0.5366666666666666,0.20555555555555555,-0.7944444444444444,-3.5625,1.875,0.0
1589381194.5448062,-0.35,-4.15,8.81,0.5366666666666666,0.20555555555555555,-0.7944444444444444,-0.6875,-4.125,4.375
1589381194.5525873,-0.37,-4.15,8.84,0.5366666666666666,0.20555555555555555,-0.7944444444444444,0.4375,-3.75,4.625
1589381194.5634775,-0.35,-4.14,8.84,0.5577777777777778,0.21333333333333332,-0.8155555555555556,2.4375,-6.0,1.125
1589381194.570675,-0.35,-4.14,8.87,0.5577777777777778,0.21333333333333332,-0.8155555555555556,-2.5625,3.75,-5.5
1589381194.580977,-0.35,-4.15,8.74,0.5577777777777778,0.21333333333333332,-0.8155555555555556,6.3125,5.5,-1.125
1589381194.591253,-0.35,-4.12,8.79,0.5577777777777778,0.21333333333333332,-0.8155555555555556,2.8125,0.375,1.625
1589381194.6036432,-0.37,-4.12,8.82,0.5577777777777778,0.21333333333333332,-0.8155555555555556,-2.1875,-0.375,3.75
1589381194.6100242,-0.37,-4.13,8.86,0.5577777777777778,0.22,-0.7944444444444444,-4.3125,1.25,3.875
1589381194.6207335,-0.37,-4.14,8.83,0.5577777777777778,0.22,-0.7944444444444444,-6.3125,3.75,-4.125
1589381194.6310587,-0.36,-4.14,8.79,0.5577777777777778,0.22,-0.7944444444444444,-4.5625,5.375,-3.75
1589381194.643482,-0.34,-4.18,8.87,0.5577777777777778,0.22,-0.7944444444444444,-1.0625,0.625,5.0
1589381194.658523,-0.33,-4.14,8.83,0.5577777777777778,0.22,-0.7944444444444444,1.1875,0.0,-2.25
1589381194.6643481,-0.33,-4.14,8.85,0.5844444444444444,0.19333333333333333,-0.8066666666666666,-0.0625,-0.75,-10.0625
1589381194.6760294,-0.37,-4.15,8.83,0.5844444444444444,0.19333333333333333,-0.8066666666666666,-1.0625,7.1875,1.875
1589381194.6821413,-0.37,-4.13,8.73,0.5844444444444444,0.19333333333333333,-0.8066666666666666,-2.9375,6.0,-1.625
1589381194.6960225,-0.36,-4.14,8.74,0.5844444444444444,0.19333333333333333,-0.8066666666666666,2.9375,-1.125,-7.0625
1589381194.7028794,-0.33,-4.13,8.83,0.5844444444444444,0.19333333333333333,-0.8066666666666666,-3.4375,-1.125,4.375
1589381194.714483,-0.36,-4.14,8.87,0.5433333333333333,0.2,-0.7777777777777778,1.9375,-3.25,1.625
1589381194.721496,-0.33,-4.14,8.88,0.5433333333333333,0.2,-0.7777777777777778,4.5625,-1.125,4.5
1589381194.7319765,-0.35,-4.13,8.79,0.5433333333333333,0.2,-0.7777777777777778,2.4375,2.125,2.375
1589381194.7410693,-0.35,-4.16,8.84,0.5433333333333333,0.2,-0.7777777777777778,3.0625,-3.25,-3.75
1589381194.7527626,-0.36,-4.15,8.86,0.5433333333333333,0.2,-0.7777777777777778,-8.625,1.75,5.5
1589381194.7606876,-0.33,-4.14,8.85,0.5633333333333334,0.19333333333333333,-0.8,3.1875,0.375,1.5
1589381194.7718008,-0.32,-4.13,8.83,0.5633333333333334,0.19333333333333333,-0.8,-1.9375,3.125,21.0625
1589381194.781375,-0.3,-4.13,8.66,0.5633333333333334,0.19333333333333333,-0.8,-5.3125,2.375,-3.5
1589381194.7927961,-0.44,-3.97,8.57,0.5633333333333334,0.19333333333333333,-0.8,-3.0625,3.875,-1.75
1589381194.8038952,-0.38,-4.05,8.75,0.5633333333333334,0.19333333333333333,-0.8,-6.6875,-3.625,2.5
1589381194.8151314,-0.78,-3.84,8.78,0.5511111111111111,0.20555555555555555,-0.8133333333333334,-1.8125,-3.875,0.125
1589381194.8231106,-0.52,-4.2,9.0,0.5511111111111111,0.20555555555555555,-0.8133333333333334,-4.3125,-9.1875,8.8125
1589381194.832114,-0.92,-3.61,8.81,0.5511111111111111,0.20555555555555555,-0.8133333333333334,-1.4375,-2.875,12.9375
1589381194.842005,-1.34,-3.2,8.91,0.5511111111111111,0.20555555555555555,-0.8133333333333334,-3.1875,-3.0,24.8125
1589381194.85322,-0.13,-2.18,8.95,0.5511111111111111,0.20555555555555555,-0.8133333333333334,-2.8125,-7.9375,22.8125
1589381194.8604786,-0.04,-2.23,9.02,0.5577777777777778,0.2,-0.8066666666666666,3.4375,-4.875,22.0625
1589381194.8719275,-0.31,-2.62,9.01,0.5577777777777778,0.2,-0.8066666666666666,0.6875,-0.125,29.875
1589381194.8860347,-0.37,-2.94,8.86,0.5577777777777778,0.2,-0.8066666666666666,-6.6875,-8.0625,36.4375
1589381194.8921778,-0.41,-2.95,8.93,0.5577777777777778,0.2,-0.8066666666666666,-4.1875,-6.625,36.4375
1589381194.903401,-0.44,-2.98,8.95,0.5577777777777778,0.2,-0.8066666666666666,0.9375,-1.25,35.9375
1589381194.911118,-0.44,-3.02,8.95,0.57,0.2,-0.7855555555555556,-0.6875,1.5,31.125
1589381194.9176602,-0.44,-3.02,8.95,0.57,0.2,-0.7855555555555556,-0.6875,1.5,31.125
1589381194.9264266,-0.43,-3.02,8.99,0.57,0.2,-0.7855555555555556,-8.5,-5.625,40.4375
1589381194.9330485,-0.46,-3.09,8.89,0.57,0.2,-0.7855555555555556,1.6875,-9.0625,39.1875
1589381194.9429517,-0.51,-3.1,8.91,0.57,0.2,-0.7855555555555556,-2.6875,-5.25,37.6875
1589381194.9543939,-0.63,-3.01,8.93,0.57,0.2,-0.7855555555555556,0.1875,-6.0,47.875
1589381194.9628491,-0.68,-2.95,8.97,0.57,0.2,-0.8,-4.4375,4.25,45.125
1589381194.9717536,-0.7,-3.01,8.98,0.57,0.2,-0.8,-6.0625,-5.125,56.875
1589381194.9826262,-0.71,-2.97,8.86,0.57,0.2,-0.8,-4.3125,-6.5,50.6875
1589381194.9926484,-0.65,-3.02,8.91,0.57,0.2,-0.8,1.0625,0.875,53.5625
1589381195.0046315,-0.67,-3.04,8.94,0.57,0.2,-0.8,-5.1875,-0.5,56.875
1589381195.0120318,-0.58,-3.07,8.96,0.57,0.17888888888888888,-0.8211111111111111,-8.5,-3.0,63.6875
1589381195.023349,-0.58,-3.15,8.9,0.57,0.17888888888888888,-0.8211111111111111,-1.9375,-4.0,63.9375
1589381195.032917,-0.58,-3.14,8.87,0.57,0.17888888888888888,-0.8211111111111111,-0.5625,-5.875,63.8125
1589381195.0428946,-0.62,-3.2,8.92,0.57,0.17888888888888888,-0.8211111111111111,-0.6875,-3.5,53.5625
1589381195.0551775,-0.67,-3.17,8.96,0.57,0.17888888888888888,-0.8211111111111111,-4.4375,-6.25,61.875
1589381195.0647018,-0.69,-3.19,8.93,0.5577777777777778,0.16,-0.8366666666666667,-3.4375,-11.0625,62.875
1589381195.0724454,-0.72,-3.21,8.93,0.5577777777777778,0.16,-0.8366666666666667,-2.5625,-8.9375,60.0
1589381195.084065,-0.74,-3.21,8.85,0.5577777777777778,0.16,-0.8366666666666667,2.1875,-6.0,63.0625
1589381195.0932622,-0.8,-3.23,8.9,0.5577777777777778,0.16,-0.8366666666666667,-0.9375,-1.125,69.1875
1589381195.104721,-0.81,-3.24,8.91,0.5577777777777778,0.16,-0.8366666666666667,-1.4375,-7.4375,62.125
1589381195.1131532,-0.78,-3.11,8.95,0.5555555555555556,0.12777777777777774,-0.8355555555555556,-0.1875,1.0,68.1875
1589381195.1228967,-0.73,-3.08,8.97,0.5555555555555556,0.12777777777777774,-0.8355555555555556,-1.4375,-5.375,52.5625
1589381195.13385,-0.7,-3.15,8.89,0.5555555555555556,0.12777777777777774,-0.8355555555555556,-0.5625,-4.875,54.5625
1589381195.1431909,-0.78,-3.12,8.9,0.5555555555555556,0.12777777777777774,-0.8355555555555556,-5.8125,-1.875,61.375
1589381195.1553662,-0.86,-3.2,9.02,0.5555555555555556,0.12777777777777774,-0.8355555555555556,-3.4375,-5.0,48.125
1589381195.1630044,-0.86,-3.2,8.97,0.4833333333333333,0.08666666666666667,-0.8488888888888889,-5.1875,-0.375,57.75
1589381195.1753366,-0.87,-3.15,8.96,0.4833333333333333,0.08666666666666667,-0.8488888888888889,2.3125,-2.75,48.25
1589381195.1836135,-0.92,-3.15,8.83,0.4833333333333333,0.08666666666666667,-0.8488888888888889,0.6875,-2.125,49.0625
1589381195.1938505,-0.93,-3.14,8.88,0.4833333333333333,0.08666666666666667,-0.8488888888888889,-2.6875,-9.5625,40.1875
1589381195.206832,-0.95,-3.19,8.95,0.4833333333333333,0.08666666666666667,-0.8488888888888889,-2.1875,-6.875,38.3125
1589381195.212945,-0.97,-3.16,8.94,0.4655555555555556,0.03666666666666667,-0.8566666666666667,-0.4375,0.5,37.6875
1589381195.2284524,-0.98,-3.15,8.96,0.4655555555555556,0.03666666666666667,-0.8566666666666667,-0.4375,-3.875,52.1875
1589381195.2347677,-1.06,-3.22,8.83,0.4655555555555556,0.03666666666666667,-0.8566666666666667,-4.8125,-9.9375,41.3125
1589381195.2471044,-1.05,-3.16,8.9,0.4655555555555556,0.03666666666666667,-0.8566666666666667,2.9375,2.5,35.0625
1589381195.2558718,-1.09,-3.19,8.98,0.4655555555555556,0.03666666666666667,-0.8566666666666667,-0.1875,0.25,36.5625
1589381195.2666488,-1.05,-3.14,8.95,0.4388888888888889,-0.015555555555555557,-0.8566666666666667,-3.4375,-11.6875,33.875
1589381195.2738078,-1.16,-3.24,8.91,0.4388888888888889,-0.015555555555555557,-0.8566666666666667,2.8125,4.375,32.375
1589381195.2871716,-1.17,-3.23,8.82,0.4388888888888889,-0.015555555555555557,-0.8566666666666667,-3.6875,-12.8125,41.0625
1589381195.2936122,-1.17,-3.23,8.84,0.4388888888888889,-0.015555555555555557,-0.8566666666666667,0.6875,-2.75,36.8125
1589381195.3056734,-1.21,-3.16,8.95,0.4388888888888889,-0.015555555555555557,-0.8566666666666667,-2.6875,-1.875,33.875
1589381195.3133063,-1.23,-3.23,8.94,0.42777777777777776,-0.07222222222222223,-0.8133333333333334,-4.0625,-6.25,36.0625
1589381195.3247619,-1.26,-3.23,8.92,0.42777777777777776,-0.07222222222222223,-0.8133333333333334,-7.625,-3.625,36.4375
1589381195.333833,-1.3,-3.32,8.97,0.42777777777777776,-0.07222222222222223,-0.8133333333333334,1.1875,-1.75,40.0625
1589381195.345176,-1.44,-3.51,8.79,0.42777777777777776,-0.07222222222222223,-0.8133333333333334,-5.5625,-3.0,37.8125
1589381195.3577845,-1.47,-3.56,8.83,0.42777777777777776,-0.07222222222222223,-0.8133333333333334,-2.6875,-4.625,36.9375
1589381195.3634493,-1.46,-3.53,8.78,0.4444444444444444,-0.12222222222222222,-0.7644444444444445,-5.0625,-1.0,43.625
1589381195.3730655,-1.52,-3.58,8.99,0.4444444444444444,-0.12222222222222222,-0.7644444444444445,-4.8125,0.375,37.4375
1589381195.3848858,-1.37,-3.3,8.82,0.4444444444444444,-0.12222222222222222,-0.7644444444444445,-1.4375,0.625,40.4375
1589381195.394421,-1.29,-3.29,8.83,0.4444444444444444,-0.12222222222222222,-0.7644444444444445,1.5625,-1.5,30.875
1589381195.405996,-1.39,-3.47,9.02,0.4444444444444444,-0.12222222222222222,-0.7644444444444445,-3.9375,-1.25,22.6875
1589381195.4187126,-1.42,-3.39,8.87,0.4666666666666667,-0.14222222222222222,-0.7355555555555555,-0.3125,-1.5,26.6875
1589381195.4251444,-1.53,-3.42,9.0,0.4666666666666667,-0.14222222222222222,-0.7355555555555555,-11.125,-2.5,33.5
1589381195.4376435,-1.58,-3.39,8.78,0.4666666666666667,-0.14222222222222222,-0.7355555555555555,-5.0625,-5.0,24.9375
1589381195.4442954,-1.8,-3.68,8.84,0.4666666666666667,-0.14222222222222222,-0.7355555555555555,-1.4375,-2.375,26.0625
1589381195.4563134,-1.61,-3.48,8.92,0.4666666666666667,-0.14222222222222222,-0.7355555555555555,1.1875,-3.125,39.0625
1589381195.4638252,-1.61,-3.47,8.95,0.51,-0.15555555555555556,-0.6911111111111111,-3.6875,-6.0,30.875
1589381195.4744573,-1.6,-3.49,8.91,0.51,-0.15555555555555556,-0.6911111111111111,-2.9375,-5.25,33.0
1589381195.4844036,-1.63,-3.49,8.8,0.51,-0.15555555555555556,-0.6911111111111111,-0.3125,0.125,26.9375
1589381195.4946535,-1.57,-3.41,8.88,0.51,-0.15555555555555556,-0.6911111111111111,3.9375,1.625,28.375
1589381195.5076628,-1.64,-3.49,8.88,0.51,-0.15555555555555556,-0.6911111111111111,-3.5625,-2.75,20.0
1589381195.5153348,-1.62,-3.45,8.88,0.5377777777777778,-0.14222222222222222,-0.6844444444444444,-5.6875,1.125,25.6875
1589381195.525578,-1.64,-3.46,8.85,0.5377777777777778,-0.14222222222222222,-0.6844444444444444,2.4375,-8.3125,19.125
1589381195.5373044,-1.68,-3.52,8.79,0.5377777777777778,-0.14222222222222222,-0.6844444444444444,1.1875,1.0,13.6875
1589381195.5458007,-1.7,-3.56,8.84,0.5377777777777778,-0.14222222222222222,-0.6844444444444444,-2.4375,-0.625,21.3125
1589381195.5568824,-1.79,-3.67,8.82,0.5377777777777778,-0.14222222222222222,-0.6844444444444444,1.4375,1.125,6.75
1589381195.5666678,-1.7,-3.43,8.9,0.5644444444444444,-0.12,-0.67,4.1875,6.125,1.25
1589381195.5742786,-1.74,-3.51,8.94,0.5644444444444444,-0.12,-0.67,-2.6875,-3.625,15.0
1589381195.589174,-1.78,-3.5,8.85,0.5644444444444444,-0.12,-0.67,-3.4375,3.125,13.6875
1589381195.5958006,-1.7,-3.47,8.89,0.5644444444444444,-0.12,-0.67,-0.6875,-3.0,7.0625
1589381195.6073124,-1.56,-3.14,8.89,0.5644444444444444,-0.12,-0.67,2.8125,0.5,11.9375
1589381195.6144445,-1.6,-3.19,8.98,0.6233333333333333,-0.11666666666666667,-0.6766666666666666,-4.3125,-3.625,7.5625
1589381195.6244595,-1.63,-3.27,8.91,0.6233333333333333,-0.11666666666666667,-0.6766666666666666,0.0625,1.625,16.0
1589381195.6362908,-1.59,-3.17,8.8,0.6233333333333333,-0.11666666666666667,-0.6766666666666666,1.3125,-2.25,10.0625
1589381195.6479194,-1.62,-3.21,8.89,0.6233333333333333,-0.11666666666666667,-0.6766666666666666,-2.0625,-7.3125,3.0
1589381195.6572108,-1.67,-3.2,8.92,0.6233333333333333,-0.11666666666666667,-0.6766666666666666,-1.6875,-5.0,8.8125
1589381195.6653295,-1.7,-3.23,8.94,0.6944444444444444,-0.08888888888888889,-0.7144444444444444,0.3125,-2.0,12.9375
1589381195.6750994,-1.72,-3.22,8.91,0.6944444444444444,-0.08888888888888889,-0.7144444444444444,-8.75,-6.875,4.625
1589381195.6855648,-1.71,-3.21,8.83,0.6944444444444444,-0.08888888888888889,-0.7144444444444444,-0.1875,-3.625,9.9375
1589381195.6960895,-1.7,-3.19,8.84,0.6944444444444444,-0.08888888888888889,-0.7144444444444444,-2.3125,-2.75,9.8125
1589381195.7074301,-1.73,-3.24,8.91,0.6944444444444444,-0.08888888888888889,-0.7144444444444444,5.5625,-1.5,12.8125
1589381195.716047,-1.77,-3.27,8.95,0.72,-0.1511111111111111,-0.7777777777777778,1.5625,-6.25,8.1875
1589381195.7259812,-1.75,-3.22,8.96,0.72,-0.1511111111111111,-0.7777777777777778,0.4375,2.375,14.375
1589381195.7407086,-1.73,-3.27,8.85,0.72,-0.1511111111111111,-0.7777777777777778,2.6875,-6.125,20.125
1589381195.7473323,-1.75,-3.27,8.91,0.72,-0.1511111111111111,-0.7777777777777778,1.6875,-2.625,14.75
1589381195.762425,-1.75,-3.27,8.93,0.72,-0.1511111111111111,-0.7777777777777778,-3.0625,-6.0,17.0
1589381195.7681286,-1.72,-3.23,8.91,0.6466666666666666,-0.22,-0.75,-2.1875,-3.625,7.8125
1589381195.779803,-1.69,-3.2,8.9,0.6466666666666666,-0.22,-0.75,1.3125,-2.875,20.0
1589381195.7857304,-1.73,-3.24,8.84,0.6466666666666666,-0.22,-0.75,5.0625,-0.875,9.4375
1589381195.7968974,-1.74,-3.22,8.87,0.6466666666666666,-0.22,-0.75,2.8125,1.25,8.8125
1589381195.8077154,-1.71,-3.22,8.91,0.6466666666666666,-0.22,-0.75,4.3125,-1.5,7.8125
1589381195.818439,-1.71,-3.26,8.96,0.57,-0.17222222222222222,-0.6911111111111111,-0.1875,-8.5625,13.9375
1589381195.825459,-1.69,-3.23,8.94,0.57,-0.17222222222222222,-0.6911111111111111,-4.6875,0.125,11.5625
1589381195.8378284,-1.7,-3.24,8.84,0.57,-0.17222222222222222,-0.6911111111111111,2.4375,-5.75,5.625
1589381195.8468645,-1.68,-3.2,8.9,0.57,-0.17222222222222222,-0.6911111111111111,1.6875,-6.25,6.75
1589381195.8579955,-1.66,-3.15,8.95,0.57,-0.17222222222222222,-0.6911111111111111,3.8125,-3.75,4.75
1589381195.8669474,-1.72,-3.2,8.95,0.5755555555555556,-0.12555555555555556,-0.6855555555555556,3.0625,-6.5,7.8125
1589381195.8756726,-1.79,-3.27,8.95,0.5755555555555556,-0.12555555555555556,-0.6855555555555556,-2.9375,0.625,19.75
1589381195.8919961,-1.79,-3.26,8.83,0.5755555555555556,-0.12555555555555556,-0.6855555555555556,-8.625,0.875,7.9375
1589381195.8984833,-1.8,-3.31,8.91,0.5755555555555556,-0.12555555555555556,-0.6855555555555556,1.9375,-4.875,9.1875
1589381195.912785,-1.81,-3.25,8.89,0.5755555555555556,-0.12555555555555556,-0.6855555555555556,-2.1875,2.875,7.4375
1589381195.9192936,-1.83,-3.29,9.0,0.5633333333333334,-0.09222222222222222,-0.6766666666666666,-0.4375,-5.0,-6.25
1589381195.9260724,-1.81,-3.26,8.89,0.5633333333333334,-0.09222222222222222,-0.6766666666666666,3.5625,-3.375,-0.25
1589381195.9375727,-1.82,-3.31,8.84,0.5633333333333334,-0.09222222222222222,-0.6766666666666666,7.375,1.375,-10.0625
1589381195.947085,-1.8,-3.22,8.85,0.5633333333333334,-0.09222222222222222,-0.6766666666666666,-0.8125,3.0,-7.5625
1589381195.9587262,-1.86,-3.26,8.93,0.5633333333333334,-0.09222222222222222,-0.6766666666666666,-1.8125,-3.375,1.75
1589381195.9709105,-1.8,-3.23,8.95,0.5955555555555555,-0.07444444444444444,-0.6766666666666666,-4.4375,-2.5,2.125
1589381195.9776905,-1.84,-3.3,8.96,0.5955555555555555,-0.07444444444444444,-0.6766666666666666,-1.0625,-3.125,4.5
1589381195.9871066,-1.86,-3.35,8.87,0.5955555555555555,-0.07444444444444444,-0.6766666666666666,-2.1875,-2.375,-4.375
1589381195.9971757,-1.96,-3.72,8.84,0.5955555555555555,-0.07444444444444444,-0.6766666666666666,-0.4375,-3.125,-3.25
1589381196.0083528,-1.89,-3.42,8.89,0.5955555555555555,-0.07444444444444444,-0.6766666666666666,1.6875,-2.375,-9.1875
1589381196.015632,-1.79,-3.25,9.04,0.5866666666666667,-0.05666666666666665,-0.6766666666666666,0.3125,1.0,-3.125
1589381196.0295074,-1.84,-3.25,8.92,0.5866666666666667,-0.05666666666666665,-0.6766666666666666,-3.4375,2.5,-1.25
1589381196.0371106,-1.81,-3.3,8.8,0.5866666666666667,-0.05666666666666665,-0.6766666666666666,1.4375,3.25,-3.0
1589381196.0468154,-1.9,-3.44,8.85,0.5866666666666667,-0.05666666666666665,-0.6766666666666666,1.6875,3.5,-4.25
1589381196.0620887,-1.8,-3.36,8.88,0.5866666666666667,-0.05666666666666665,-0.6766666666666666,-3.5625,3.875,-6.125
1589381196.0676894,-1.71,-3.23,8.98,0.5666666666666667,-0.05666666666666665,-0.67,4.8125,3.75,-16.25
1589381196.0772412,-1.71,-3.24,8.94,0.5666666666666667,-0.05666666666666665,-0.67,5.0625,2.125,-4.375
1589381196.0881116,-1.71,-3.23,8.86,0.5666666666666667,-0.05666666666666665,-0.67,2.4375,0.25,-13.4375
1589381196.0989714,-1.63,-3.23,8.91,0.5666666666666667,-0.05666666666666665,-0.67,3.3125,0.375,-7.9375
1589381196.1092033,-1.53,-3.14,8.95,0.5666666666666667,-0.05666666666666665,-0.67,-5.3125,5.0,-7.8125
1589381196.1206276,-1.52,-3.11,8.98,0.5722222222222222,-0.06222222222222223,-0.67,2.0625,1.5,-16.25
1589381196.1271248,-1.53,-3.16,9.0,0.5722222222222222,-0.06222222222222223,-0.67,-0.1875,2.125,-1.25
1589381196.1406212,-1.56,-3.16,8.87,0.5722222222222222,-0.06222222222222223,-0.67,1.6875,5.0,-10.5625
1589381196.147222,-1.59,-3.24,8.9,0.5722222222222222,-0.06222222222222223,-0.67,6.5625,7.1875,-7.8125
1589381196.1591036,-1.54,-3.2,8.91,0.5722222222222222,-0.06222222222222223,-0.67,-2.6875,0.75,-18.0
1589381196.1671245,-1.51,-3.27,8.96,0.5866666666666667,-0.06222222222222223,-0.6788888888888889,-2.1875,-0.25,-16.25
1589381196.1780627,-1.57,-3.33,8.93,0.5866666666666667,-0.06222222222222223,-0.6788888888888889,4.8125,-1.0,-11.0625
1589381196.1875188,-1.63,-3.36,8.83,0.5866666666666667,-0.06222222222222223,-0.6788888888888889,-4.6875,-2.0,-14.625
1589381196.1975858,-1.58,-3.39,8.87,0.5866666666666667,-0.06222222222222223,-0.6788888888888889,8.125,-3.75,-19.375
1589381196.2149944,-1.8,-3.32,8.76,0.5866666666666667,-0.06222222222222223,-0.6788888888888889,-1.8125,2.375,-17.625
1589381196.2209144,-1.29,-3.47,9.11,0.6055555555555555,-0.07444444444444444,-0.7022222222222222,7.875,-0.25,-18.625
1589381196.2281265,-1.29,-3.7,8.97,0.6055555555555555,-0.07444444444444444,-0.7022222222222222,7.25,1.125,-12.6875
1589381196.2402825,-1.77,-3.82,8.75,0.6055555555555555,-0.07444444444444444,-0.7022222222222222,-4.8125,3.25,-10.0625
1589381196.2549598,-1.04,-3.68,8.8,0.6055555555555555,-0.07444444444444444,-0.7022222222222222,-1.4375,-3.625,-31.875
1589381196.2602699,-1.02,-3.49,9.02,0.6055555555555555,-0.07444444444444444,-0.7022222222222222,6.1875,4.375,-31.5
1589381196.2727852,-1.26,-3.38,8.98,0.64,-0.17333333333333334,-0.6944444444444444,0.5625,4.125,-40.1875
1589381196.2787173,-1.31,-3.32,8.9,0.64,-0.17333333333333334,-0.6944444444444444,-3.5625,1.25,-52.8125
1589381196.2873275,-1.35,-3.34,8.86,0.64,-0.17333333333333334,-0.6944444444444444,0.1875,4.875,-52.8125
1589381196.2981756,-1.52,-3.45,8.91,0.64,-0.17333333333333334,-0.6944444444444444,-0.0625,1.625,-57.625
1589381196.3121164,-1.53,-3.51,8.89,0.64,-0.17333333333333334,-0.6944444444444444,-3.0625,6.875,-55.1875
1589381196.317974,-1.41,-3.79,8.9,0.7555555555555555,-0.4044444444444445,-0.6077777777777778,-3.1875,1.375,-70.875
1589381196.331434,-1.35,-3.87,8.91,0.7555555555555555,-0.4044444444444445,-0.6077777777777778,2.9375,7.5625,-60.75
1589381196.337223,-1.33,-3.88,8.78,0.7555555555555555,-0.4044444444444445,-0.6077777777777778,3.5625,5.0,-68.9375
1589381196.3504865,-1.36,-3.75,8.91,0.7555555555555555,-0.4044444444444445,-0.6077777777777778,3.6875,5.25,-64.0625
1589381196.3589606,-1.4,-3.66,8.91,0.7555555555555555,-0.4044444444444445,-0.6077777777777778,7.125,4.375,-63.1875
1589381196.3683147,-1.38,-3.53,8.94,1.2933333333333332,-0.7944444444444444,0.2822222222222222,2.9375,7.9375,-71.125
1589381196.3778028,-1.51,-3.62,8.92,1.2933333333333332,-0.7944444444444444,0.2822222222222222,0.0625,9.9375,-62.25
1589381196.3900714,-1.44,-3.65,8.82,1.2933333333333332,-0.7944444444444444,0.2822222222222222,1.9375,-0.375,-55.6875
1589381196.400284,-1.49,-3.74,8.89,1.2933333333333332,-0.7944444444444444,0.2822222222222222,6.3125,2.125,-59.625
1589381196.4092052,-1.55,-3.95,8.82,1.2933333333333332,-0.7944444444444444,0.2822222222222222,3.9375,8.5625,-46.625
1589381196.417159,-1.47,-3.99,8.87,1.2155555555555555,0.09555555555555556,-0.5644444444444444,-2.5625,7.0625,-44.125
1589381196.4293294,-1.42,-3.9,8.86,1.2155555555555555,0.09555555555555556,-0.5644444444444444,4.6875,2.875,-45.0
1589381196.437427,-1.44,-3.86,8.81,1.2155555555555555,0.09555555555555556,-0.5644444444444444,3.8125,3.25,-33.5
1589381196.4494998,-1.49,-3.76,8.89,1.2155555555555555,0.09555555555555556,-0.5644444444444444,3.1875,7.4375,-31.0
1589381196.460946,-1.35,-3.77,8.96,1.2155555555555555,0.09555555555555556,-0.5644444444444444,-4.5625,1.25,-8.9375
1589381196.4680126,-1.54,-3.91,8.87,0.7866666666666666,0.05666666666666665,-0.7022222222222222,0.1875,-3.25,-14.25
1589381196.4829955,-1.42,-3.83,8.84,0.7866666666666666,0.05666666666666665,-0.7022222222222222,-0.6875,0.25,-4.0
1589381196.4889946,-1.15,-3.69,8.84,0.7866666666666666,0.05666666666666665,-0.7022222222222222,-0.5625,1.375,-9.0625
1589381196.5016544,-1.39,-3.63,8.85,0.7866666666666666,0.05666666666666665,-0.7022222222222222,-1.9375,-1.125,-5.0
1589381196.509893,-1.03,-3.32,8.94,0.7866666666666666,0.05666666666666665,-0.7022222222222222,0.0625,-2.5,-7.3125
1589381196.5210562,-1.15,-3.29,9.07,0.6577777777777778,0.05333333333333334,-0.7,-7.25,-0.25,-0.5
1589381196.5280793,-1.2,-3.32,8.93,0.6577777777777778,0.05333333333333334,-0.7,5.0625,-3.375,-2.375
1589381196.5385756,-1.34,-3.19,8.83,0.6577777777777778,0.05333333333333334,-0.7,2.6875,7.0625,-7.1875
1589381196.5476975,-1.35,-3.23,8.91,0.6577777777777778,0.05333333333333334,-0.7,-1.9375,2.75,0.75
1589381196.5611668,-1.32,-3.25,8.95,0.6577777777777778,0.05333333333333334,-0.7,-12.25,-4.125,10.5625
1589381196.5684009,-1.3,-3.35,8.94,0.6222222222222222,0.048888888888888885,-0.7144444444444444,0.1875,-0.75,15.625
1589381196.5784402,-1.24,-3.6,8.89,0.6222222222222222,0.048888888888888885,-0.7144444444444444,7.125,-4.625,11.6875
1589381196.5884993,-1.1,-3.72,8.83,0.6222222222222222,0.048888888888888885,-0.7144444444444444,3.3125,7.0625,13.0625
1589381196.5980933,-0.93,-3.81,8.89,0.6222222222222222,0.048888888888888885,-0.7144444444444444,-8.5,-6.875,14.75
1589381196.6105795,-0.82,-3.71,8.89,0.6222222222222222,0.048888888888888885,-0.7144444444444444,1.4375,-2.5,-5.0
1589381196.6205802,-0.85,-3.45,8.98,0.6344444444444445,0.045555555555555564,-0.7,-0.6875,-3.75,-5.375
1589381196.633204,-0.92,-3.29,8.98,0.6344444444444445,0.045555555555555564,-0.7,-1.4375,1.875,-6.5
1589381196.6400352,-1.12,-3.26,8.79,0.6344444444444445,0.045555555555555564,-0.7,0.1875,-0.125,-8.0625
1589381196.6525645,-1.46,-3.45,8.91,0.6344444444444445,0.045555555555555564,-0.7,3.9375,1.625,5.375
1589381196.6606605,-1.49,-3.86,8.85,0.6344444444444445,0.045555555555555564,-0.7,2.8125,-0.375,5.375
1589381196.6712284,-1.05,-3.78,8.96,0.6077777777777778,0.05333333333333334,-0.7,-3.4375,0.375,13.4375
1589381196.6790214,-0.69,-3.78,8.8,0.6077777777777778,0.05333333333333334,-0.7,2.5625,1.125,-1.0
1589381196.692833,-0.48,-3.79,8.78,0.6077777777777778,0.05333333333333334,-0.7,4.9375,1.5,-11.5625
1589381196.6994402,-0.71,-3.65,8.89,0.6077777777777778,0.05333333333333334,-0.7,-1.6875,-4.25,-13.6875
1589381196.7145052,-1.06,-3.71,8.93,0.6077777777777778,0.05333333333333334,-0.7,-1.5625,2.125,-10.8125
1589381196.7201715,-1.19,-3.71,8.98,0.5966666666666667,0.07555555555555556,-0.6766666666666666,-0.1875,5.0,-11.8125
1589381196.7290125,-1.28,-3.81,8.89,0.5966666666666667,0.07555555555555556,-0.6766666666666666,3.9375,6.375,-11.3125
1589381196.7390547,-5.25,-7.99,9.47,0.5966666666666667,0.07555555555555556,-0.6766666666666666,-52.5,60.0,-146.0
1589381196.7485068,6.35,10.25,2.68,0.5966666666666667,0.07555555555555556,-0.6766666666666666,-2.9375,6.125,-212.5
1589381196.754835,6.35,10.25,2.68,0.5966666666666667,0.07555555555555556,-0.6766666666666666,-2.9375,6.125,-212.5
1589381196.761265,-1.72,-2.24,6.06,0.5966666666666667,0.07555555555555556,-0.6766666666666666,88.1875,-40.4375,-193.6875
1589381196.7728622,-0.62,-0.43,16.46,0.5822222222222222,0.09555555555555556,-0.6555555555555556,9.625,35.9375,-184.75
1589381196.7853472,-1.0,0.2,7.8,0.5822222222222222,0.09555555555555556,-0.6555555555555556,3.1875,20.25,-175.5625
1589381196.7918794,-1.04,-0.1,9.84,0.5822222222222222,0.09555555555555556,-0.6555555555555556,1.9375,9.9375,-153.875
1589381196.7993348,-0.58,0.0,9.36,0.5822222222222222,0.09555555555555556,-0.6555555555555556,5.5625,18.75,-131.0
1589381196.8108487,-0.86,0.31,9.05,0.5822222222222222,0.09555555555555556,-0.6555555555555556,-0.0625,6.5,-103.625
1589381196.818657,-0.98,0.39,9.48,0.5577777777777778,0.14888888888888888,-0.6411111111111111,4.0625,1.0,-73.625
1589381196.8321419,-0.92,0.39,9.07,0.5577777777777778,0.14888888888888888,-0.6411111111111111,4.1875,0.875,-50.5625
1589381196.8432715,-0.37,-0.87,9.24,0.5577777777777778,0.14888888888888888,-0.6411111111111111,8.25,6.5,-29.375
1589381196.8501935,-0.91,-2.64,9.13,0.5577777777777778,0.14888888888888888,-0.6411111111111111,-0.1875,4.0,-6.125
1589381196.8618155,-0.94,-3.0,8.91,0.5577777777777778,0.14888888888888888,-0.6411111111111111,-0.9375,-1.125,13.8125
1589381196.8691866,-1.07,-3.04,8.72,0.5577777777777778,0.1988888888888889,-0.6411111111111111,0.8125,-4.25,25.0625
1589381196.8822908,-1.03,-3.06,9.0,0.5577777777777778,0.1988888888888889,-0.6411111111111111,-3.8125,-3.5,36.5625
1589381196.8894882,-0.64,-3.04,8.94,0.5577777777777778,0.1988888888888889,-0.6411111111111111,9.875,-5.75,42.875
1589381196.9011133,-0.56,-2.98,8.94,0.5577777777777778,0.1988888888888889,-0.6411111111111111,-3.0625,-6.125,42.5
1589381196.9117146,-0.56,-2.99,8.93,0.5577777777777778,0.1988888888888889,-0.6411111111111111,-2.9375,-3.75,53.8125
1589381196.9213548,-0.65,-2.91,8.94,0.5455555555555556,0.2288888888888889,-0.6488888888888888,-3.1875,-5.625,37.3125
1589381196.9294615,-0.23,-2.84,9.02,0.5455555555555556,0.2288888888888889,-0.6488888888888888,-5.9375,-9.0625,31.0
1589381196.9398348,-0.33,-2.92,8.89,0.5455555555555556,0.2288888888888889,-0.6488888888888888,0.0625,-5.125,33.0
1589381196.9507582,-0.57,-2.98,8.89,0.5455555555555556,0.2288888888888889,-0.6488888888888888,-0.8125,-6.75,34.625
1589381196.9626002,-0.71,-3.15,8.84,0.5455555555555556,0.2288888888888889,-0.6488888888888888,-4.4375,-3.375,44.5
1589381196.9701865,-0.83,-3.25,8.91,0.54,0.2088888888888889,-0.6344444444444445,-1.8125,-7.3125,47.0
1589381196.9815786,-0.8,-3.25,8.97,0.54,0.2088888888888889,-0.6344444444444445,0.8125,-2.5,47.25
1589381196.9946587,-0.82,-3.26,8.92,0.54,0.2088888888888889,-0.6344444444444445,-3.5625,-7.5625,50.9375
1589381197.0008152,-0.78,-3.46,8.97,0.54,0.2088888888888889,-0.6344444444444445,-0.6875,-8.5625,60.625
1589381197.0159333,-0.19,-4.52,8.75,0.54,0.2088888888888889,-0.6344444444444445,29.3125,-28.625,-32.25
1589381197.0211313,-6.63,-31.15,6.51,0.5733333333333334,0.1988888888888889,-0.67,7.0,29.0,-27.8125
1589381197.0338984,-0.06,1.48,9.87,0.5733333333333334,0.1988888888888889,-0.67,-9.125,6.75,-16.125
1589381197.0400233,-0.72,-1.82,8.85,0.5733333333333334,0.1988888888888889,-0.67,2.9375,-0.5,6.5
1589381197.0509598,-0.71,-3.15,9.13,0.5733333333333334,0.1988888888888889,-0.67,0.1875,-8.1875,4.75
1589381197.061996,-0.88,-3.11,9.05,0.5733333333333334,0.1988888888888889,-0.67,7.125,1.375,14.625
1589381197.0708358,-1.83,-8.96,8.72,0.5666666666666667,0.1988888888888889,-0.67,-2.6875,-2.875,-7.3125
1589381197.0800204,-0.82,-2.01,8.7,0.5666666666666667,0.1988888888888889,-0.67,2.6875,-7.3125,6.125
1589381197.0910456,-1.01,-4.31,8.91,0.5666666666666667,0.1988888888888889,-0.67,3.8125,-1.125,-0.125
1589381197.1001716,-0.91,-4.08,8.79,0.5666666666666667,0.1988888888888889,-0.67,0.6875,-4.875,-4.0
1589381197.1143358,-0.9,-4.09,8.96,0.5666666666666667,0.1988888888888889,-0.67,-2.1875,5.375,-7.3125
1589381197.12107,-0.96,-4.11,8.8,0.5733333333333334,0.1988888888888889,-0.6766666666666666,4.9375,-0.625,-6.0
1589381197.13263,-0.9,-4.07,8.9,0.5733333333333334,0.1988888888888889,-0.6766666666666666,4.9375,0.125,2.0
1589381197.1474893,-0.94,-4.06,8.75,0.5733333333333334,0.1988888888888889,-0.6766666666666666,-2.1875,-4.25,1.125
1589381197.153401,-0.92,-4.08,8.91,0.5733333333333334,0.1988888888888889,-0.6766666666666666,-5.6875,-3.375,2.75
1589381197.1676207,-0.93,-4.03,8.8,0.5733333333333334,0.1988888888888889,-0.6766666666666666,0.9375,4.75,0.125
1589381197.1732414,-0.89,-4.07,8.91,0.5788888888888889,0.19111111111111112,-0.67,-6.3125,1.625,-0.125
1589381197.1853588,-0.9,-4.07,8.78,0.5788888888888889,0.19111111111111112,-0.67,-3.9375,-6.875,-4.25
1589381197.1920562,-0.93,-4.11,8.76,0.5788888888888889,0.19111111111111112,-0.67,4.0625,1.25,-2.125
1589381197.204699,-0.93,-4.08,8.81,0.5788888888888889,0.19111111111111112,-0.67,0.0625,-4.125,6.0
1589381197.2132785,-0.91,-4.08,8.91,0.5788888888888889,0.19111111111111112,-0.67,4.9375,0.5,-1.5
1589381197.2252758,-0.93,-4.07,8.86,0.5666666666666667,0.18444444444444444,-0.65,4.3125,-2.0,0.5
1589381197.2311587,-0.91,-4.13,8.87,0.5666666666666667,0.18444444444444444,-0.65,4.8125,-6.5,-0.75
1589381197.242311,-0.93,-4.08,8.71,0.5666666666666667,0.18444444444444444,-0.65,0.8125,2.0,-0.125
1589381197.252127,-0.91,-4.08,8.88,0.5666666666666667,0.18444444444444444,-0.65,2.3125,-6.75,5.0
1589381197.2639349,-0.91,-4.07,8.86,0.5666666666666667,0.18444444444444444,-0.65,-1.4375,1.125,-2.125
1589381197.2713733,-0.91,-4.09,8.92,0.56,0.18444444444444444,-0.6644444444444444,-5.9375,0.0,-4.5
1589381197.2828195,-0.92,-4.08,8.86,0.56,0.18444444444444444,-0.6644444444444444,-4.4375,0.0,3.375
1589381197.2926908,-0.92,-4.09,8.76,0.56,0.18444444444444444,-0.6644444444444444,-5.9375,-6.5,5.375
1589381197.3019614,-0.92,-4.07,8.79,0.56,0.18444444444444444,-0.6644444444444444,-4.3125,-1.375,-4.25
1589381197.318176,-0.91,-4.06,8.87,0.56,0.18444444444444444,-0.6644444444444444,4.3125,-0.375,1.5
1589381197.3241882,-0.92,-4.08,8.89,0.5611111111111111,0.19111111111111112,-0.67,-0.6875,-1.125,-2.125
1589381197.3383512,-0.93,-4.11,8.87,0.5611111111111111,0.19111111111111112,-0.67,-3.3125,4.125,9.8125
1589381197.3445735,-0.93,-4.09,8.75,0.5611111111111111,0.19111111111111112,-0.67,6.6875,-0.25,6.5
1589381197.3556807,-0.91,-4.1,8.8,0.5611111111111111,0.19111111111111112,-0.67,0.9375,-1.875,-5.125
1589381197.3646655,-0.91,-4.06,8.88,0.5611111111111111,0.19111111111111112,-0.67,0.3125,2.375,-1.875
1589381197.375604,-0.91,-4.08,8.91,0.5611111111111111,0.17888888888888888,-0.6555555555555556,-2.9375,-0.875,-2.5
1589381197.381842,-0.91,-4.09,8.91,0.5611111111111111,0.17888888888888888,-0.6555555555555556,0.3125,4.375,3.125
1589381197.3926866,-0.92,-4.09,8.75,0.5611111111111111,0.17888888888888888,-0.6555555555555556,1.6875,-6.125,-4.25
1589381197.4144573,-0.92,-4.1,8.87,0.5611111111111111,0.17888888888888888,-0.6555555555555556,-4.5625,-2.625,5.75
1589381197.422361,-0.92,-4.07,8.9,0.5544444444444444,0.17888888888888888,-0.6555555555555556,0.9375,5.75,-7.6875
1589381197.4339464,-0.91,-4.09,8.84,0.5544444444444444,0.17888888888888888,-0.6555555555555556,3.3125,-3.625,1.625
1589381197.4442222,-0.92,-4.09,8.74,0.5544444444444444,0.17888888888888888,-0.6555555555555556,-0.8125,-7.0625,-5.5
1589381197.4527702,-0.92,-4.08,8.82,0.5544444444444444,0.17888888888888888,-0.6555555555555556,0.4375,0.125,-2.0
1589381197.4676244,-0.93,-4.07,8.87,0.5544444444444444,0.17888888888888888,-0.6555555555555556,-4.3125,-5.75,4.5
1589381197.4743474,-0.91,-4.07,8.91,0.5544444444444444,0.19111111111111112,-0.6344444444444445,-4.0625,1.75,-1.5
1589381197.4825635,-0.92,-4.07,8.89,0.5544444444444444,0.19111111111111112,-0.6344444444444445,8.5,1.5,-2.875
1589381197.494802,-0.93,-4.11,8.77,0.5544444444444444,0.19111111111111112,-0.6344444444444445,-0.4375,-0.375,1.125
1589381197.503115,-0.92,-4.09,8.82,0.5544444444444444,0.19111111111111112,-0.6344444444444445,-3.9375,-2.875,4.625
1589381197.5151453,-0.92,-4.06,8.87,0.5544444444444444,0.19111111111111112,-0.6344444444444445,-0.6875,-0.75,11.4375
1589381197.5270295,-0.92,-4.08,8.9,0.5688888888888889,0.18444444444444444,-0.67,-2.0625,3.75,-6.75
1589381197.5329967,-0.91,-4.1,8.91,0.5688888888888889,0.18444444444444444,-0.67,2.6875,-9.4375,3.75
1589381197.5463555,-0.92,-4.09,8.76,0.5688888888888889,0.18444444444444444,-0.67,-4.3125,0.75,13.8125
1589381197.5526626,-0.92,-4.1,8.8,0.5688888888888889,0.18444444444444444,-0.67,4.5625,-9.3125,4.0
1589381197.5651536,-0.91,-4.09,8.86,0.5688888888888889,0.18444444444444444,-0.67,-0.0625,-1.625,1.25
1589381197.5725653,-0.91,-4.09,8.91,0.5688888888888889,0.18444444444444444,-0.67,2.3125,0.75,-6.25
1589381197.5843413,-0.89,-4.07,8.86,0.5688888888888889,0.18444444444444444,-0.67,2.4375,4.875,-7.3125
1589381197.5928435,-0.92,-4.09,8.77,0.5688888888888889,0.18444444444444444,-0.67,2.8125,5.625,-1.125
1589381197.6037295,-0.93,-4.09,8.79,0.5688888888888889,0.18444444444444444,-0.67,0.1875,-2.375,-2.125
1589381197.615367,-0.91,-4.09,8.84,0.5688888888888889,0.18444444444444444,-0.67,-0.8125,0.375,3.75
1589381197.624004,-0.92,-4.07,8.88,0.5688888888888889,0.18444444444444444,-0.6488888888888888,-1.1875,7.0625,3.25
1589381197.6332376,-0.92,-4.07,8.92,0.5688888888888889,0.18444444444444444,-0.6488888888888888,-5.9375,-5.625,-5.625
1589381197.6451175,-0.92,-4.1,8.78,0.5688888888888889,0.18444444444444444,-0.6488888888888888,0.1875,-1.375,1.125
1589381197.6539176,-0.92,-4.1,8.81,0.5688888888888889,0.18444444444444444,-0.6488888888888888,-9.625,-6.25,3.625
1589381197.6655676,-0.92,-4.1,8.86,0.5688888888888889,0.18444444444444444,-0.6488888888888888,-4.0625,1.125,3.75
1589381197.6724708,-0.93,-4.08,8.88,0.5811111111111111,0.19111111111111112,-0.6555555555555556,-1.3125,-6.0,3.625
1589381197.6843538,-0.93,-4.08,8.86,0.5811111111111111,0.19111111111111112,-0.6555555555555556,1.1875,-5.375,6.0
1589381197.6987412,-0.9,-4.06,8.78,0.5811111111111111,0.19111111111111112,-0.6555555555555556,-0.6875,3.875,2.375
1589381197.7051804,-0.92,-4.09,8.79,0.5811111111111111,0.19111111111111112,-0.6555555555555556,-0.8125,-2.875,8.1875
1589381197.7193778,-0.93,-4.06,8.84,0.5811111111111111,0.19111111111111112,-0.6555555555555556,-4.5625,1.625,2.5
1589381197.7261975,-0.93,-4.07,8.89,0.5688888888888889,0.18444444444444444,-0.67,-4.1875,-3.375,6.0
1589381197.7370641,-0.91,-4.07,8.89,0.5688888888888889,0.18444444444444444,-0.67,3.0625,1.25,-8.8125
1589381197.743807,-0.91,-4.1,8.8,0.5688888888888889,0.18444444444444444,-0.67,1.0625,-2.25,2.0
1589381197.753926,-0.91,-4.08,8.82,0.5688888888888889,0.18444444444444444,-0.67,-3.6875,1.125,4.375
1589381197.7664485,-0.94,-4.1,8.85,0.5688888888888889,0.18444444444444444,-0.67,-3.6875,0.125,-1.75
1589381197.7764835,-0.93,-4.09,8.9,0.5877777777777777,0.1988888888888889,-0.67,-3.8125,-0.5,-2.25
1589381197.7839675,-0.91,-4.08,8.89,0.5877777777777777,0.1988888888888889,-0.67,0.1875,-8.0625,-5.625
1589381197.7939134,-0.91,-4.08,8.78,0.5877777777777777,0.1988888888888889,-0.67,4.6875,1.75,2.875
1589381197.804331,-0.93,-4.08,8.84,0.5877777777777777,0.1988888888888889,-0.67,2.5625,1.5,-4.125
1589381197.8160286,-0.92,-4.09,8.85,0.5877777777777777,0.1988888888888889,-0.67,-0.3125,-0.125,2.75
1589381197.8237221,-0.93,-4.1,8.9,0.5755555555555556,0.17888888888888888,-0.67,0.5625,8.1875,-2.75
1589381197.8349845,-0.92,-4.07,8.86,0.5755555555555556,0.17888888888888888,-0.67,1.9375,-2.75,1.5
1589381197.8501387,-0.92,-4.08,8.78,0.5755555555555556,0.17888888888888888,-0.67,0.9375,0.0,-1.375
1589381197.8565028,-0.91,-4.11,8.81,0.5755555555555556,0.17888888888888888,-0.67,-3.1875,-2.125,7.6875
1589381197.8694358,-0.91,-4.07,8.84,0.5755555555555556,0.17888888888888888,-0.67,-0.6875,-3.375,5.875
1589381197.8748312,-0.9,-4.1,8.88,0.5544444444444444,0.19111111111111112,-0.6622222222222223,-3.9375,-1.125,2.0
1589381197.8888092,-0.92,-4.08,8.89,0.5544444444444444,0.19111111111111112,-0.6622222222222223,-1.4375,0.875,-5.625
1589381197.8956134,-0.93,-4.07,8.81,0.5544444444444444,0.19111111111111112,-0.6622222222222223,3.1875,1.75,-8.0625
1589381197.9085705,-0.93,-4.07,8.84,0.5544444444444444,0.19111111111111112,-0.6622222222222223,1.5625,-2.875,-9.3125
1589381197.9163554,-0.9,-4.07,8.86,0.5544444444444444,0.19111111111111112,-0.6622222222222223,-2.9375,1.25,-0.625
1589381197.927756,-0.93,-4.09,8.86,0.5688888888888889,0.18444444444444444,-0.6344444444444445,0.1875,-2.875,3.125
1589381197.934196,-0.92,-4.08,8.82,0.5688888888888889,0.18444444444444444,-0.6344444444444445,-4.4375,-0.125,5.5
1589381197.9465446,-0.92,-4.1,8.74,0.5688888888888889,0.18444444444444444,-0.6344444444444445,-1.8125,-0.625,-0.375
1589381197.9544935,-0.93,-4.08,8.83,0.5688888888888889,0.18444444444444444,-0.6344444444444445,3.9375,6.75,0.5
1589381197.9668667,-0.93,-4.07,8.84,0.5688888888888889,0.18444444444444444,-0.6344444444444445,3.9375,2.5,-5.0
1589381197.9760075,-0.92,-4.09,8.86,0.5688888888888889,0.18444444444444444,-0.6622222222222223,0.5625,-1.0,2.375
1589381197.985159,-0.93,-4.09,8.87,0.5688888888888889,0.18444444444444444,-0.6622222222222223,1.5625,-2.0,-1.75
1589381198.000317,-0.91,-4.07,8.79,0.5688888888888889,0.18444444444444444,-0.6622222222222223,-4.1875,2.375,5.375
1589381198.0070672,-0.92,-4.09,8.85,0.5688888888888889,0.18444444444444444,-0.6622222222222223,-2.4375,-3.125,16.625
1589381198.016899,-0.91,-4.09,8.83,0.5688888888888889,0.18444444444444444,-0.6622222222222223,-7.375,1.0,-2.0
1589381198.0283346,-0.92,-4.07,8.85,0.5688888888888889,0.18444444444444444,-0.67,0.9375,3.75,-2.25
1589381198.0399034,-0.92,-4.09,8.89,0.5688888888888889,0.18444444444444444,-0.67,4.9375,-0.75,2.125
1589381198.0459998,-0.91,-4.09,8.76,0.5688888888888889,0.18444444444444444,-0.67,-0.3125,-1.875,-4.0
1589381198.0590641,-0.93,-4.09,8.84,0.5688888888888889,0.18444444444444444,-0.67,-1.0625,-0.25,5.75
1589381198.0672169,-0.92,-4.09,8.85,0.5688888888888889,0.18444444444444444,-0.67,0.1875,3.375,9.6875
1589381198.0780654,-0.91,-4.09,8.88,0.5755555555555556,0.19111111111111112,-0.67,-7.625,-6.0,-4.5
1589381198.0851705,-0.91,-4.08,8.86,0.5755555555555556,0.19111111111111112,-0.67,0.3125,-5.5,6.875
1589381198.0954695,-0.89,-4.08,8.78,0.5755555555555556,0.19111111111111112,-0.67,1.6875,-1.625,-2.625
1589381198.1060538,-0.92,-4.07,8.8,0.5755555555555556,0.19111111111111112,-0.67,-7.125,-0.375,2.375
1589381198.117951,-0.92,-4.09,8.87,0.5755555555555556,0.19111111111111112,-0.67,2.0625,5.875,-2.5
1589381198.1249022,-0.9,-4.09,8.89,0.5611111111111111,0.17222222222222222,-0.6555555555555556,3.8125,-0.875,-2.875
1589381198.1360154,-0.91,-4.1,8.86,0.5611111111111111,0.17222222222222222,-0.6555555555555556,3.5625,5.75,0.0
