time,acc_x,acc_y,acc_z,mag_x,mag_y,mag_z,gyr_x,gyr_y,gyr_z
1589381209.4798322,-0.45,-4.13,8.84,0.5811111111111111,0.17333333333333334,-0.81,-0.3125,-0.125,-2.25
1589381209.486166,-0.46,-4.15,8.81,0.5811111111111111,0.17333333333333334,-0.81,-0.5625,0.0,0.875
1589381209.4983845,-0.46,-4.14,8.76,0.5811111111111111,0.17333333333333334,-0.81,0.6875,4.625,-1.5
1589381209.5045054,-0.46,-4.14,8.78,0.5811111111111111,0.17333333333333334,-0.81,-2.8125,-3.5,-1.25
1589381209.5150595,-0.46,-4.14,8.83,0.5811111111111111,0.17333333333333334,-0.81,-2.1875,-5.0,-0.125
1589381209.5226798,-0.44,-4.14,8.89,0.5811111111111111,0.18777777777777774,-0.8033333333333333,6.8125,-4.625,1.0
1589381209.537016,-0.44,-4.14,8.91,0.5811111111111111,0.18777777777777774,-0.8033333333333333,-1.9375,2.625,6.125
1589381209.543168,-0.45,-4.15,8.78,0.5811111111111111,0.18777777777777774,-0.8033333333333333,3.6875,3.375,-1.5
1589381209.5550349,-0.45,-4.1,8.8,0.5811111111111111,0.18777777777777774,-0.8033333333333333,1.9375,2.625,5.625
1589381209.5658152,-0.46,-4.12,8.82,0.5811111111111111,0.18777777777777774,-0.8033333333333333,-2.0625,-2.625,-5.125
1589381209.5783556,-0.44,-4.16,8.91,0.5955555555555555,0.17333333333333334,-0.7955555555555556,3.9375,0.25,-4.25
1589381209.5843875,-0.48,-4.15,8.85,0.5955555555555555,0.17333333333333334,-0.7955555555555556,-1.6875,0.25,-6.375
1589381209.5940528,-0.46,-4.13,8.74,0.5955555555555555,0.17333333333333334,-0.7955555555555556,-0.3125,-5.875,-4.75
1589381209.603431,-0.45,-4.13,8.81,0.5955555555555555,0.17333333333333334,-0.7955555555555556,-0.3125,5.0,-1.25
1589381209.6153634,-0.44,-4.12,8.83,0.5955555555555555,0.17333333333333334,-0.7955555555555556,-0.6875,-3.375,-0.5
1589381209.6226873,-0.43,-4.14,8.86,0.5877777777777777,0.19333333333333333,-0.7822222222222223,-1.4375,-1.5,4.875
1589381209.6351545,-0.45,-4.15,8.88,0.5877777777777777,0.19333333333333333,-0.7822222222222223,-4.0625,1.875,-2.125
1589381209.6433234,-0.45,-4.14,8.79,0.5877777777777777,0.19333333333333333,-0.7822222222222223,-6.6875,2.875,5.375
1589381209.6550708,-0.45,-4.13,8.84,0.5877777777777777,0.19333333333333333,-0.7822222222222223,0.5625,5.0,-3.5
1589381209.6658359,-0.47,-4.15,8.87,0.5877777777777777,0.19333333333333333,-0.7822222222222223,-1.6875,-1.25,-0.125
1589381209.6734293,-0.47,-4.12,8.88,0.5877777777777777,0.18777777777777774,-0.8033333333333333,0.8125,1.375,-3.0
1589381209.6878645,-0.45,-4.13,8.85,0.5877777777777777,0.18777777777777774,-0.8033333333333333,3.0625,-2.375,-6.625
1589381209.6939855,-0.45,-4.14,8.75,0.5877777777777777,0.18777777777777774,-0.8033333333333333,2.0625,-1.5,-1.0
1589381209.7079818,-0.45,-4.14,8.84,0.5877777777777777,0.18777777777777774,-0.8033333333333333,3.5625,0.375,5.125
1589381209.7165058,-0.47,-4.15,8.84,0.5877777777777777,0.18777777777777774,-0.8033333333333333,-1.4375,-3.625,2.375
1589381209.728408,-0.46,-4.13,8.83,0.6022222222222222,0.1811111111111111,-0.8033333333333333,1.5625,-1.75,-12.6875
1589381209.7347991,-0.48,-4.14,8.91,0.6022222222222222,0.1811111111111111,-0.8033333333333333,12.0,0.375,-7.8125
1589381209.744059,-0.46,-4.13,8.78,0.6022222222222222,0.1811111111111111,-0.8033333333333333,0.4375,-5.375,1.125
1589381209.7546265,-0.45,-4.15,8.85,0.6022222222222222,0.1811111111111111,-0.8033333333333333,-0.6875,2.375,-8.3125
1589381209.7658107,-0.44,-4.14,8.85,0.6022222222222222,0.1811111111111111,-0.8033333333333333,0.9375,4.375,1.875
1589381209.7733269,-0.45,-4.14,8.9,0.5955555555555555,0.16666666666666666,-0.7733333333333333,-3.0625,-0.875,-0.625
1589381209.78479,-0.47,-4.14,8.87,0.5955555555555555,0.16666666666666666,-0.7733333333333333,-2.9375,-3.125,0.5
1589381209.7944524,-0.47,-4.13,8.76,0.5955555555555555,0.16666666666666666,-0.7733333333333333,-1.3125,2.375,-2.125
1589381209.805041,-0.44,-4.1,8.72,0.5955555555555555,0.16666666666666666,-0.7733333333333333,2.9375,-1.875,-2.25
1589381209.8167155,-0.43,-4.21,8.92,0.5955555555555555,0.16666666666666666,-0.7733333333333333,3.9375,0.125,9.6875
1589381209.8240645,-0.44,-4.17,8.86,0.5811111111111111,0.18777777777777774,-0.7888888888888889,-1.0625,6.125,-1.75
1589381209.8374927,-0.44,-4.14,8.91,0.5811111111111111,0.18777777777777774,-0.7888888888888889,9.0,1.375,-8.4375
1589381209.8444312,-0.54,-4.06,8.67,0.5811111111111111,0.18777777777777774,-0.7888888888888889,-4.6875,1.125,1.875
1589381209.8587933,-0.51,-4.2,8.92,0.5811111111111111,0.18777777777777774,-0.7888888888888889,-2.0625,-3.75,0.0
1589381209.8666596,-0.43,-4.11,8.8,0.5811111111111111,0.18777777777777774,-0.7888888888888889,0.0625,-4.125,6.625
1589381209.8779926,-0.52,-4.07,8.87,0.6022222222222222,0.1811111111111111,-0.7888888888888889,-1.4375,5.625,4.75
1589381209.8856714,-0.55,-4.11,8.84,0.6022222222222222,0.1811111111111111,-0.7888888888888889,-6.8125,2.75,5.625
1589381209.8958814,-0.49,-4.12,8.78,0.6022222222222222,0.1811111111111111,-0.7888888888888889,2.4375,0.625,13.8125
1589381209.9044971,-0.53,-4.05,8.79,0.6022222222222222,0.1811111111111111,-0.7888888888888889,1.6875,6.0,1.25
1589381209.9179482,-0.67,-3.86,8.89,0.6022222222222222,0.1811111111111111,-0.7888888888888889,0.1875,4.0,0.375
1589381209.9236019,-0.53,-3.88,8.91,0.5755555555555556,0.19333333333333333,-0.7822222222222223,-0.5625,-1.0,6.0
1589381209.9339564,-0.58,-3.62,8.89,0.5755555555555556,0.19333333333333333,-0.7822222222222223,3.3125,-3.125,7.9375
1589381209.9394164,-0.58,-3.62,8.89,0.5755555555555556,0.19333333333333333,-0.7822222222222223,3.3125,-3.125,7.9375
1589381209.9469626,-0.53,-3.64,8.9,0.5755555555555556,0.19333333333333333,-0.7822222222222223,6.5625,-2.875,8.4375
1589381209.9589062,-0.45,-3.51,8.91,0.5755555555555556,0.19333333333333333,-0.7822222222222223,0.6875,-0.375,15.0
1589381209.966277,-0.45,-3.54,8.91,0.5755555555555556,0.19333333333333333,-0.7822222222222223,0.5625,-2.875,17.0
1589381209.9785938,-0.45,-3.52,8.89,0.5688888888888889,0.1811111111111111,-0.7888888888888889,2.1875,-0.375,20.5
1589381209.9894693,-0.36,-3.6,8.89,0.5688888888888889,0.1811111111111111,-0.7888888888888889,-0.1875,-0.875,23.3125
1589381209.9960742,-0.52,-4.01,8.75,0.5688888888888889,0.1811111111111111,-0.7888888888888889,0.8125,0.0,16.75
1589381210.0048926,-0.53,-4.26,8.78,0.5688888888888889,0.1811111111111111,-0.7888888888888889,0.6875,-9.1875,11.1875
1589381210.0176387,-0.57,-4.4,8.78,0.5688888888888889,0.1811111111111111,-0.7888888888888889,3.8125,-6.875,20.75
1589381210.0246556,-0.55,-4.56,8.81,0.5955555555555555,0.18777777777777774,-0.7888888888888889,4.0625,0.5,12.4375
1589381210.0347662,-0.61,-4.77,8.8,0.5955555555555555,0.18777777777777774,-0.7888888888888889,2.1875,-3.25,14.625
1589381210.0457232,-0.74,-5.08,8.72,0.5955555555555555,0.18777777777777774,-0.7888888888888889,3.6875,-6.75,13.4375
1589381210.0548875,-0.74,-5.28,8.73,0.5955555555555555,0.18777777777777774,-0.7888888888888889,5.1875,1.5,2.625
1589381210.0672324,0.08,-4.68,8.84,0.5955555555555555,0.18777777777777774,-0.7888888888888889,-7.0,-7.0625,3.0
1589381210.0744026,-0.56,-4.06,8.91,0.5811111111111111,0.17333333333333334,-0.8033333333333333,-4.0625,3.125,-0.375
1589381210.082865,-0.56,-4.06,8.91,0.5811111111111111,0.17333333333333334,-0.8033333333333333,-4.0625,3.125,-0.375
1589381210.095413,-0.58,-4.12,8.79,0.5811111111111111,0.17333333333333334,-0.8033333333333333,1.3125,-1.125,-2.875
1589381210.1046774,-0.6,-4.13,8.8,0.5811111111111111,0.17333333333333334,-0.8033333333333333,-9.875,3.5,5.125
1589381210.1168742,-0.6,-4.14,8.82,0.5811111111111111,0.17333333333333334,-0.8033333333333333,-5.1875,-1.125,2.375
1589381210.1244605,-0.6,-4.11,8.81,0.5811111111111111,0.17333333333333334,-0.81,-4.0625,-2.375,-1.5
1589381210.1306474,-0.6,-4.11,8.81,0.5811111111111111,0.17333333333333334,-0.81,-4.0625,-2.375,-1.5
1589381210.1392064,-0.6,-4.12,8.82,0.5811111111111111,0.17333333333333334,-0.81,-4.6875,2.5,5.25
1589381210.1490908,-0.62,-4.11,8.76,0.5811111111111111,0.17333333333333334,-0.81,-4.1875,-2.75,5.5
1589381210.1614769,-0.66,-4.12,8.81,0.5811111111111111,0.17333333333333334,-0.81,-1.8125,-2.125,-2.125
1589381210.1681342,-0.83,-4.03,8.91,0.5811111111111111,0.17333333333333334,-0.81,-1.1875,-3.25,8.5625
1589381210.1761775,-0.9,-3.94,8.92,0.5688888888888889,0.16111111111111112,-0.8244444444444444,2.4375,4.875,6.5
1589381210.1886685,-0.86,-3.89,8.94,0.5688888888888889,0.16111111111111112,-0.8244444444444444,-7.125,2.625,-1.75
1589381210.20076,-0.86,-3.87,8.84,0.5688888888888889,0.16111111111111112,-0.8244444444444444,-2.0625,6.0,6.375
1589381210.2063675,-0.77,-3.81,8.87,0.5688888888888889,0.16111111111111112,-0.8244444444444444,2.3125,1.25,-0.125
1589381210.2189221,-0.59,-3.74,8.88,0.5688888888888889,0.16111111111111112,-0.8244444444444444,-2.8125,-3.25,0.0
1589381210.225157,-0.49,-3.65,8.89,0.6077777777777778,0.15444444444444444,-0.7955555555555556,1.6875,-1.125,8.8125
1589381210.2342362,-0.49,-3.65,8.89,0.6077777777777778,0.15444444444444444,-0.7955555555555556,1.6875,-1.125,8.8125
1589381210.2461765,-0.22,-2.64,8.97,0.6077777777777778,0.15444444444444444,-0.7955555555555556,-3.1875,-2.5,-3.125
1589381210.2564027,-0.31,-2.72,8.85,0.6077777777777778,0.15444444444444444,-0.7955555555555556,-8.375,1.75,8.6875
1589381210.2675178,-0.38,-2.81,9.03,0.6077777777777778,0.15444444444444444,-0.7955555555555556,5.0625,-2.5,1.375
1589381210.27636,-0.44,-2.81,9.01,0.5811111111111111,0.16666666666666666,-0.81,-2.1875,4.5,7.8125
1589381210.285871,-0.46,-2.84,8.97,0.5811111111111111,0.16666666666666666,-0.81,-6.4375,-0.375,5.25
1589381210.2972836,-0.47,-2.86,8.9,0.5811111111111111,0.16666666666666666,-0.81,2.1875,3.125,5.5
1589381210.3069904,-0.49,-2.92,8.92,0.5811111111111111,0.16666666666666666,-0.81,-6.6875,-11.0625,7.0625
1589381210.318951,-0.47,-2.94,9.0,0.5811111111111111,0.16666666666666666,-0.81,-0.3125,3.75,3.0
1589381210.3261898,-0.48,-2.96,9.0,0.5811111111111111,0.16111111111111112,-0.8033333333333333,-1.3125,-1.25,4.375
1589381210.3362298,-0.46,-2.95,8.98,0.5811111111111111,0.16111111111111112,-0.8033333333333333,1.6875,-2.875,-3.375
1589381210.34888,-0.45,-3.04,8.81,0.5811111111111111,0.16111111111111112,-0.8033333333333333,-2.0625,-4.375,10.6875
1589381210.3569462,-0.47,-3.06,8.88,0.5811111111111111,0.16111111111111112,-0.8033333333333333,-5.4375,-0.125,-1.375
1589381210.3731534,-0.46,-3.07,8.95,0.5811111111111111,0.16111111111111112,-0.8033333333333333,-2.9375,-3.375,1.875
1589381210.3787177,-0.46,-3.09,9.01,0.5811111111111111,0.16111111111111112,-0.8244444444444444,0.0625,2.25,-1.125
1589381210.3919938,-0.45,-3.14,8.93,0.5811111111111111,0.16111111111111112,-0.8244444444444444,5.1875,5.0,-6.625
1589381210.398034,-0.44,-3.12,8.89,0.5811111111111111,0.16111111111111112,-0.8244444444444444,-0.3125,1.25,-2.75
1589381210.4080696,-0.44,-3.13,8.91,0.5811111111111111,0.16111111111111112,-0.8244444444444444,-0.3125,0.375,-9.3125
1589381210.4190614,-0.43,-3.17,8.95,0.5811111111111111,0.16111111111111112,-0.8244444444444444,2.1875,2.375,-17.75
1589381210.4277525,-0.44,-3.18,8.96,0.5755555555555556,0.15444444444444444,-0.8177777777777778,7.75,-0.75,-8.5625
1589381210.4370437,-0.44,-3.17,8.98,0.5755555555555556,0.15444444444444444,-0.8177777777777778,3.6875,-0.625,-13.8125
1589381210.4479926,-0.48,-3.13,8.83,0.5755555555555556,0.15444444444444444,-0.8177777777777778,0.1875,-3.0,-8.8125
1589381210.4572036,-0.48,-3.14,8.91,0.5755555555555556,0.15444444444444444,-0.8177777777777778,2.9375,-2.5,-16.625
1589381210.469377,-0.46,-3.16,8.93,0.5755555555555556,0.15444444444444444,-0.8177777777777778,-1.3125,3.625,-8.8125
1589381210.477005,-0.48,-3.16,8.95,0.5488888888888889,0.14,-0.8622222222222222,1.4375,3.125,-13.6875
1589381210.4875965,-0.45,-3.17,8.99,0.5488888888888889,0.14,-0.8622222222222222,-0.9375,4.625,-8.8125
1589381210.5003786,-0.42,-3.16,8.86,0.5488888888888889,0.14,-0.8622222222222222,3.8125,1.375,-18.75
1589381210.5077028,-0.41,-3.18,8.89,0.5488888888888889,0.14,-0.8622222222222222,0.4375,5.125,-18.125
1589381210.520444,-0.33,-3.19,8.95,0.5488888888888889,0.14,-0.8622222222222222,-1.4375,1.625,-22.3125
1589381210.527444,-0.33,-3.23,8.97,0.5155555555555555,0.12777777777777774,-0.8533333333333334,-1.1875,-3.25,-11.8125
1589381210.5378222,-0.4,-3.42,8.94,0.5155555555555555,0.12777777777777774,-0.8533333333333334,3.8125,7.8125,-33.25
1589381210.5484734,-0.25,-3.32,8.81,0.5155555555555555,0.12777777777777774,-0.8533333333333334,-0.4375,3.125,-27.5625
1589381210.5613365,-0.2,-3.24,8.88,0.5155555555555555,0.12777777777777774,-0.8533333333333334,1.4375,8.4375,-32.375
1589381210.5699494,-0.18,-3.31,8.92,0.5155555555555555,0.12777777777777774,-0.8533333333333334,3.9375,6.25,-40.6875
1589381210.58162,-0.19,-3.37,8.92,0.5022222222222222,0.11555555555555555,-0.8688888888888889,1.9375,5.5,-47.75
1589381210.5878198,-0.21,-3.37,8.95,0.5022222222222222,0.11555555555555555,-0.8688888888888889,7.375,1.375,-43.25
1589381210.5987072,-0.22,-3.38,8.84,0.5022222222222222,0.11555555555555555,-0.8688888888888889,5.1875,2.25,-48.625
1589381210.6080186,-0.21,-3.45,8.87,0.5022222222222222,0.11555555555555555,-0.8688888888888889,-1.1875,-1.75,-44.5
1589381210.6200573,-0.15,-3.44,8.89,0.5022222222222222,0.11555555555555555,-0.8688888888888889,2.6875,8.3125,-53.9375
1589381210.6273456,-0.14,-3.42,8.95,0.4833333333333333,0.08888888888888889,-0.86,0.5625,8.6875,-61.625
1589381210.6383188,-0.1,-3.45,8.91,0.4833333333333333,0.08888888888888889,-0.86,-1.6875,2.5,-55.1875
1589381210.6481779,-0.1,-3.46,8.8,0.4833333333333333,0.08888888888888889,-0.86,0.9375,-0.5,-59.0
1589381210.6581082,-0.07,-3.42,8.85,0.4833333333333333,0.08888888888888889,-0.86,6.1875,8.9375,-68.1875
1589381210.6753824,-0.05,-3.41,8.9,0.4833333333333333,0.08888888888888889,-0.86,4.3125,3.75,-71.25
1589381210.6813436,-0.02,-3.42,8.93,0.4566666666666666,0.048888888888888885,-0.7955555555555556,7.75,7.4375,-62.125
1589381210.6942098,-0.04,-3.4,8.9,0.4566666666666666,0.048888888888888885,-0.7955555555555556,3.4375,7.1875,-65.8125
1589381210.701006,0.01,-3.4,8.83,0.4566666666666666,0.048888888888888885,-0.7955555555555556,-4.4375,7.4375,-71.375
1589381210.712767,-0.06,-3.51,8.86,0.4566666666666666,0.048888888888888885,-0.7955555555555556,-3.1875,3.75,-63.1875
1589381210.719268,-0.23,-3.76,8.91,0.4566666666666666,0.048888888888888885,-0.7955555555555556,2.9375,1.625,-66.0625
1589381210.7318985,-0.21,-3.76,8.86,0.48,0.03888888888888889,-0.7677777777777778,6.1875,3.875,-60.0
1589381210.7406664,-0.09,-3.59,9.07,0.48,0.03888888888888889,-0.7677777777777778,5.5625,2.875,-69.8125
1589381210.7530556,0.14,-3.4,8.74,0.48,0.03888888888888889,-0.7677777777777778,1.0625,3.75,-64.3125
1589381210.7594414,0.12,-3.49,8.85,0.48,0.03888888888888889,-0.7677777777777778,-1.5625,14.5,-67.8125
1589381210.770056,0.16,-3.43,8.92,0.48,0.03888888888888889,-0.7677777777777778,-3.0625,6.25,-68.1875
1589381210.7773252,0.26,-3.54,8.89,0.5155555555555555,0.06666666666666668,-0.7177777777777777,-3.9375,6.125,-76.5
1589381210.7893102,0.36,-3.55,8.87,0.5155555555555555,0.06666666666666668,-0.7177777777777777,0.6875,6.0,-72.875
1589381210.7979145,0.4,-3.58,8.82,0.5155555555555555,0.06666666666666668,-0.7177777777777777,-0.3125,3.5,-76.0
1589381210.8084724,0.57,-3.65,8.69,0.5155555555555555,0.06666666666666668,-0.7177777777777777,-2.0625,6.625,-89.0
1589381210.8235366,0.58,-3.53,8.87,0.5155555555555555,0.06666666666666668,-0.7177777777777777,7.625,8.8125,-97.1875
1589381210.829475,0.57,-3.6,8.93,0.5166666666666667,0.11888888888888888,-0.7022222222222222,3.9375,2.375,-101.0
1589381210.8383882,0.56,-3.6,8.9,0.5166666666666667,0.11888888888888888,-0.7022222222222222,-2.3125,7.1875,-98.375
1589381210.851025,0.58,-3.58,8.83,0.5166666666666667,0.11888888888888888,-0.7022222222222222,2.5625,7.3125,-99.375
1589381210.8601255,0.64,-3.58,8.86,0.5166666666666667,0.11888888888888888,-0.7022222222222222,-3.0625,7.3125,-96.1875
1589381210.8716245,0.65,-3.58,8.87,0.5166666666666667,0.11888888888888888,-0.7022222222222222,-7.0,8.5625,-98.25
1589381210.8827355,0.67,-3.56,8.9,0.5277777777777778,0.17,-0.6611111111111111,5.8125,3.0,-109.6875
1589381210.8887498,0.71,-3.64,8.83,0.5277777777777778,0.17,-0.6611111111111111,5.3125,7.6875,-113.5
1589381210.903177,0.72,-3.67,8.73,0.5277777777777778,0.17,-0.6611111111111111,3.3125,15.875,-113.875
1589381210.909886,0.73,-3.67,8.83,0.5277777777777778,0.17,-0.6611111111111111,6.3125,6.75,-116.75
1589381210.9228716,0.78,-3.68,8.89,0.5277777777777778,0.17,-0.6611111111111111,2.4375,11.9375,-107.5625
1589381210.9283526,0.92,-3.65,8.89,0.5366666666666666,0.26666666666666666,-0.6677777777777778,6.4375,18.75,-113.75
1589381210.9387927,1.08,-3.66,8.87,0.5366666666666666,0.26666666666666666,-0.6677777777777778,7.75,17.5,-112.125
1589381210.9499927,1.18,-3.73,8.82,0.5366666666666666,0.26666666666666666,-0.6677777777777778,9.875,9.1875,-125.6875
1589381210.9617894,1.25,-3.63,8.87,0.5366666666666666,0.26666666666666666,-0.6677777777777778,5.3125,12.8125,-122.8125
1589381210.9731085,1.25,-3.63,8.89,0.5366666666666666,0.26666666666666666,-0.6677777777777778,-5.5625,10.5625,-121.8125
1589381210.9807494,1.32,-3.61,8.87,0.4933333333333334,0.3288888888888889,-0.6533333333333333,4.8125,12.3125,-143.375
1589381210.9885714,1.38,-3.58,8.9,0.4933333333333334,0.3288888888888889,-0.6533333333333333,6.6875,11.9375,-133.3125
1589381211.0025327,1.51,-3.56,8.8,0.4933333333333334,0.3288888888888889,-0.6533333333333333,0.0625,14.875,-141.625
1589381211.0109415,1.59,-3.49,8.86,0.4933333333333334,0.3288888888888889,-0.6533333333333333,2.1875,4.25,-149.5625
1589381211.0230598,1.63,-3.45,8.86,0.4933333333333334,0.3288888888888889,-0.6533333333333333,3.1875,14.5,-149.5625
1589381211.0305939,1.52,-3.46,8.91,0.4477777777777778,0.43,-0.6844444444444444,0.1875,17.0,-155.875
1589381211.0397432,1.58,-3.42,8.9,0.4477777777777778,0.43,-0.6844444444444444,4.1875,14.625,-161.1875
1589381211.0551186,1.58,-3.4,8.81,0.4477777777777778,0.43,-0.6844444444444444,7.25,21.5625,-164.5625
1589381211.0619025,1.61,-3.4,8.84,0.4477777777777778,0.43,-0.6844444444444444,10.5,20.0,-168.0
1589381211.0764508,1.61,-3.29,8.92,0.4477777777777778,0.43,-0.6844444444444444,2.8125,12.3125,-164.9375
1589381211.082546,1.7,-3.29,8.92,0.42777777777777776,0.5877777777777777,-0.7911111111111111,4.6875,21.4375,-163.9375
1589381211.093677,1.69,-3.21,8.92,0.42777777777777776,0.5877777777777777,-0.7911111111111111,7.125,10.1875,-168.125
1589381211.1003134,1.71,-3.16,8.83,0.42777777777777776,0.5877777777777777,-0.7911111111111111,9.375,17.0,-161.1875
1589381211.1140494,1.7,-3.05,8.9,0.42777777777777776,0.5877777777777777,-0.7911111111111111,-0.0625,23.8125,-151.9375
1589381211.1210856,1.74,-3.01,8.93,0.42777777777777776,0.5877777777777777,-0.7911111111111111,7.875,14.75,-161.8125
1589381211.1337395,1.76,-2.94,8.97,0.5877777777777777,0.4833333333333333,-0.8977777777777778,3.5625,20.0,-155.625
1589381211.141316,1.81,-2.83,8.92,0.5877777777777777,0.4833333333333333,-0.8977777777777778,5.4375,22.1875,-160.375
1589381211.150257,1.81,-2.8,8.86,0.5877777777777777,0.4833333333333333,-0.8977777777777778,5.4375,19.875,-155.125
1589381211.159759,1.81,-2.74,8.92,0.5877777777777777,0.4833333333333333,-0.8977777777777778,3.9375,17.125,-147.5625
1589381211.1723914,1.81,-2.68,8.98,0.5877777777777777,0.4833333333333333,-0.8977777777777778,1.9375,18.375,-137.8125
1589381211.1789355,1.82,-2.52,9.01,0.46,0.41,-0.72,1.0625,13.4375,-134.9375
1589381211.1899755,2.0,-2.5,8.99,0.46,0.41,-0.72,3.6875,14.0,-134.3125
1589381211.1997368,2.15,-2.47,8.88,0.46,0.41,-0.72,6.5625,12.6875,-144.125
1589381211.2113032,2.23,-2.36,8.97,0.46,0.41,-0.72,0.1875,15.0,-147.3125
1589381211.221409,2.08,-2.29,9.0,0.46,0.41,-0.72,6.0625,14.625,-131.0
1589381211.2326355,1.89,-2.21,9.01,0.31555555555555553,0.4311111111111111,-0.6533333333333333,5.4375,14.75,-138.5625
1589381211.2409227,1.83,-2.12,9.02,0.31555555555555553,0.4311111111111111,-0.6533333333333333,-2.9375,7.5625,-140.375
1589381211.2513518,1.75,-1.96,8.96,0.31555555555555553,0.4311111111111111,-0.6533333333333333,8.375,14.875,-140.0
1589381211.2643335,1.69,-1.89,9.01,0.31555555555555553,0.4311111111111111,-0.6533333333333333,-1.0625,8.9375,-132.5
1589381211.2719312,1.54,-1.8,9.04,0.31555555555555553,0.4311111111111111,-0.6533333333333333,-1.9375,12.4375,-118.375
1589381211.284871,1.51,-1.75,9.1,0.1955555555555556,0.44222222222222224,-0.6344444444444445,1.5625,5.875,-97.1875
1589381211.2908974,1.45,-1.55,9.08,0.1955555555555556,0.44222222222222224,-0.6344444444444445,6.4375,9.9375,-85.375
1589381211.3004935,1.47,-1.51,8.94,0.1955555555555556,0.44222222222222224,-0.6344444444444445,-5.3125,3.125,-71.125
1589381211.3103175,1.67,-1.53,9.01,0.1955555555555556,0.44222222222222224,-0.6344444444444445,0.4375,10.6875,-66.8125
1589381211.322141,1.7,-1.46,9.05,0.1955555555555556,0.44222222222222224,-0.6344444444444445,1.6875,5.375,-56.625
1589381211.329518,1.63,-1.44,9.11,0.11555555555555555,0.4711111111111111,-0.6488888888888888,-2.8125,3.25,-45.125
1589381211.3403852,1.63,-1.44,9.11,0.11555555555555555,0.4711111111111111,-0.6488888888888888,-2.8125,3.25,-45.125
1589381211.3510573,1.52,-1.34,9.06,0.11555555555555555,0.4711111111111111,-0.6488888888888888,-4.8125,5.375,-25.6875
1589381211.3634074,1.46,-1.3,9.09,0.11555555555555555,0.4711111111111111,-0.6488888888888888,-0.6875,0.25,-10.6875
1589381211.3735328,1.48,-1.25,9.13,0.11555555555555555,0.4711111111111111,-0.6488888888888888,0.8125,2.375,-7.3125
1589381211.3851988,1.38,-1.21,9.13,0.06,0.48,-0.6322222222222222,-0.4375,1.25,10.4375
1589381211.3923712,1.26,-1.15,9.05,0.06,0.48,-0.6322222222222222,-3.9375,0.0,7.1875
1589381211.403075,1.23,-1.11,9.08,0.06,0.48,-0.6322222222222222,-7.375,-2.625,30.375
1589381211.4154875,1.1,-1.11,9.04,0.06,0.48,-0.6322222222222222,3.1875,-4.875,44.875
1589381211.4225967,0.89,-1.06,9.13,0.06,0.48,-0.6322222222222222,-1.4375,-7.1875,61.0
1589381211.435757,0.97,-1.18,9.13,0.045555555555555564,0.4722222222222222,-0.64,2.0625,-8.3125,93.8125
1589381211.441701,0.94,-1.29,9.18,0.045555555555555564,0.4722222222222222,-0.64,-3.6875,-11.1875,97.4375
1589381211.450862,1.05,-1.38,8.99,0.045555555555555564,0.4722222222222222,-0.64,1.1875,-8.8125,114.375
1589381211.4632492,1.2,-1.59,9.09,0.045555555555555564,0.4722222222222222,-0.64,-0.5625,-13.4375,116.25
1589381211.4727323,1.21,-1.67,9.09,0.045555555555555564,0.4722222222222222,-0.64,-4.1875,-13.1875,133.8125
1589381211.4804275,1.27,-1.77,9.06,0.05111111111111112,0.4933333333333334,-0.6611111111111111,-6.0625,-9.4375,144.25
1589381211.4914706,1.31,-1.84,9.09,0.05111111111111112,0.4933333333333334,-0.6611111111111111,-3.4375,-10.8125,145.375
1589381211.501691,1.17,-1.92,8.98,0.05111111111111112,0.4933333333333334,-0.6611111111111111,0.3125,-14.125,156.75
1589381211.5135126,1.39,-2.07,9.15,0.05111111111111112,0.4933333333333334,-0.6611111111111111,1.4375,-10.0625,154.375
1589381211.5229461,1.28,-2.12,8.78,0.05111111111111112,0.4933333333333334,-0.6611111111111111,-2.9375,-10.9375,161.6875
1589381211.5341322,1.19,-2.1,9.28,0.09777777777777777,0.51,-0.64,-5.6875,-16.75,187.0
1589381211.5417964,0.77,-2.16,9.13,0.09777777777777777,0.51,-0.64,-1.3125,-14.25,186.625
1589381211.5510705,0.67,-2.15,8.97,0.09777777777777777,0.51,-0.64,-4.6875,-19.75,214.0
1589381211.5671275,0.6,-2.4,8.97,0.09777777777777777,0.51,-0.64,-3.1875,-21.0625,232.5625
1589381211.573458,1.45,-2.9,9.04,0.09777777777777777,0.51,-0.64,-4.8125,-18.125,227.5
1589381211.581206,1.7,-3.05,8.94,0.17,0.5311111111111111,-0.6255555555555555,-7.625,-19.5,223.4375
1589381211.5928519,1.94,-3.07,8.95,0.17,0.5311111111111111,-0.6255555555555555,-6.1875,-19.125,220.9375
1589381211.6056705,1.9,-3.13,8.91,0.17,0.5311111111111111,-0.6255555555555555,-14.8125,-12.8125,204.1875
1589381211.6138134,1.73,-3.13,8.79,0.17,0.5311111111111111,-0.6255555555555555,-12.625,-16.25,193.9375
1589381211.6260428,1.87,-3.09,9.09,0.17,0.5311111111111111,-0.6255555555555555,-7.625,-14.75,191.1875
1589381211.6322482,1.59,-3.12,8.92,0.3644444444444445,0.5366666666666666,-0.6111111111111112,-7.125,-16.0,182.0
1589381211.642324,1.55,-3.14,8.92,0.3644444444444445,0.5366666666666666,-0.6111111111111112,-2.9375,-10.5625,181.0625
1589381211.6515813,1.47,-3.15,8.8,0.3644444444444445,0.5366666666666666,-0.6111111111111112,-8.0,-16.0,171.625
1589381211.6643493,1.44,-3.18,8.89,0.3644444444444445,0.5366666666666666,-0.6111111111111112,-12.75,-20.875,182.125
1589381211.6738765,1.51,-3.21,8.9,0.3644444444444445,0.5366666666666666,-0.6111111111111112,-5.4375,-21.5625,165.6875
1589381211.6847086,1.45,-3.28,9.0,0.8722222222222222,0.4844444444444445,-0.4011111111111111,-9.5,-16.5,156.25
1589381211.692952,1.42,-3.26,8.86,0.8722222222222222,0.4844444444444445,-0.4011111111111111,-6.8125,-14.625,152.4375
1589381211.702702,1.48,-3.35,9.02,0.8722222222222222,0.4844444444444445,-0.4011111111111111,-4.6875,-9.8125,139.3125
1589381211.7148864,1.72,-3.37,8.29,0.8722222222222222,0.4844444444444445,-0.4011111111111111,-5.9375,-12.3125,134.1875
1589381211.7246006,1.25,-3.18,8.98,0.8722222222222222,0.4844444444444445,-0.4011111111111111,1.5625,-11.1875,122.5625
1589381211.7312045,1.13,-3.27,8.91,0.6144444444444445,1.28,0.03888888888888889,-0.5625,-2.375,122.0625
1589381211.7430143,1.11,-3.35,8.97,0.6144444444444445,1.28,0.03888888888888889,-12.875,-20.25,122.1875
1589381211.7519188,0.96,-3.12,8.66,0.6144444444444445,1.28,0.03888888888888889,3.3125,-4.125,110.9375
1589381211.7632642,0.68,-3.45,9.07,0.6144444444444445,1.28,0.03888888888888889,-4.5625,-10.0625,118.0
1589381211.7747762,0.47,-3.72,8.85,0.6144444444444445,1.28,0.03888888888888889,-3.4375,-6.0,125.6875
1589381211.7821686,0.57,-3.75,8.98,0.4066666666666667,0.6555555555555556,-0.6255555555555555,-6.6875,-14.75,128.5
1589381211.7962494,0.56,-3.7,8.81,0.4066666666666667,0.6555555555555556,-0.6255555555555555,-0.6875,-9.5625,122.1875
1589381211.8022587,0.45,-3.75,8.86,0.4066666666666667,0.6555555555555556,-0.6255555555555555,-3.8125,-12.8125,137.1875
1589381211.8149724,0.48,-3.78,8.84,0.4066666666666667,0.6555555555555556,-0.6255555555555555,-2.9375,-13.4375,128.375
1589381211.824814,0.47,-3.85,8.84,0.4066666666666667,0.6555555555555556,-0.6255555555555555,-10.125,-15.0,132.0
1589381211.8321464,0.39,-3.9,8.89,0.3744444444444445,0.4222222222222222,-0.6755555555555556,-1.4375,-10.8125,131.875
1589381211.8392544,0.39,-3.9,8.89,0.3744444444444445,0.4222222222222222,-0.6755555555555556,-1.4375,-10.8125,131.875
1589381211.8452346,0.33,-3.94,8.91,0.3744444444444445,0.4222222222222222,-0.6755555555555556,-1.4375,-12.5625,134.1875
1589381211.8536096,0.38,-3.85,8.81,0.3744444444444445,0.4222222222222222,-0.6755555555555556,-2.1875,-13.4375,148.9375
1589381211.8639705,0.19,-3.89,8.76,0.3744444444444445,0.4222222222222222,-0.6755555555555556,-0.0625,-12.1875,134.8125
1589381211.8754098,0.16,-3.85,8.94,0.3744444444444445,0.4222222222222222,-0.6755555555555556,-8.375,-13.4375,139.3125
1589381211.882698,0.21,-4.03,9.03,0.41,0.3211111111111111,-0.6733333333333333,3.6875,-9.6875,134.1875
1589381211.8940759,0.17,-4.06,8.78,0.41,0.3211111111111111,-0.6733333333333333,-6.1875,-11.6875,142.125
1589381211.9036162,0.14,-4.04,8.87,0.41,0.3211111111111111,-0.6733333333333333,-3.9375,-6.5,131.875
1589381211.9150054,0.12,-4.08,8.86,0.41,0.3211111111111111,-0.6733333333333333,-7.125,-12.0625,140.375
1589381211.9254508,-0.06,-4.07,8.84,0.41,0.3211111111111111,-0.6733333333333333,-8.25,-14.375,140.5
1589381211.9337118,-0.07,-4.05,8.87,0.44,0.26666666666666666,-0.6588888888888889,-2.4375,-6.75,138.3125
1589381211.9473536,-0.19,-4.12,8.84,0.44,0.26666666666666666,-0.6588888888888889,-5.1875,-12.8125,140.625
1589381211.953326,-0.22,-4.09,8.76,0.44,0.26666666666666666,-0.6588888888888889,-4.3125,-18.875,137.3125
1589381211.9674065,-0.31,-4.27,8.73,0.44,0.26666666666666666,-0.6588888888888889,-6.8125,-13.0625,135.6875
1589381211.9749904,-0.11,-4.3,8.73,0.44,0.26666666666666666,-0.6588888888888889,-4.6875,-21.4375,141.5
1589381211.9863484,-0.21,-4.15,8.9,0.4455555555555555,0.20777777777777776,-0.6588888888888889,-4.4375,-11.8125,129.25
1589381211.9933548,-0.3,-4.07,8.84,0.4455555555555555,0.20777777777777776,-0.6588888888888889,0.0625,-8.4375,140.875
1589381212.006568,-0.28,-4.25,8.98,0.4455555555555555,0.20777777777777776,-0.6588888888888889,-1.6875,-10.6875,116.5
1589381212.013699,-1.94,-24.7,-3.46,0.4455555555555555,0.20777777777777776,-0.6588888888888889,-140.1875,59.375,-330.4375
1589381212.0282352,1.98,15.95,4.28,0.4455555555555555,0.20777777777777776,-0.6588888888888889,-59.0625,24.0625,-403.8125
1589381212.0343466,-0.17,-2.41,2.14,0.4755555555555556,0.17333333333333334,-0.6088888888888889,-64.5,48.5,-391.4375
1589381212.0440545,-1.35,-3.48,19.06,0.4755555555555556,0.17333333333333334,-0.6088888888888889,107.125,90.375,-366.875
1589381212.0531256,-2.14,-2.05,3.73,0.4755555555555556,0.17333333333333334,-0.6088888888888889,199.0625,25.9375,-337.25
1589381212.065728,-2.25,-2.52,14.53,0.4755555555555556,0.17333333333333334,-0.6088888888888889,-59.4375,25.6875,-295.375
1589381212.0775669,-0.4,-1.06,14.24,0.4755555555555556,0.17333333333333334,-0.6088888888888889,-6.1875,3.875,-277.9375
1589381212.0836153,0.51,-0.87,8.61,0.4266666666666667,0.28,-0.6233333333333333,25.625,47.25,-264.8125
1589381212.0932612,-0.48,0.01,9.44,0.4266666666666667,0.28,-0.6233333333333333,5.5625,20.5,-240.5
1589381212.1027524,-0.48,0.01,9.44,0.4266666666666667,0.28,-0.6233333333333333,5.5625,20.5,-240.5
1589381212.1083574,-1.02,0.45,9.41,0.4266666666666667,0.28,-0.6233333333333333,-1.4375,19.25,-213.5
1589381212.1205947,0.34,-0.2,9.67,0.4266666666666667,0.28,-0.6233333333333333,5.4375,19.375,-201.875
1589381212.1260328,0.74,-0.47,9.13,0.4266666666666667,0.28,-0.6233333333333333,-4.6875,12.6875,-162.8125
1589381212.133884,1.27,-0.89,9.1,0.38,0.3322222222222222,-0.6355555555555555,2.4375,18.0,-168.5
1589381212.146331,1.55,-1.46,9.63,0.38,0.3322222222222222,-0.6355555555555555,3.1875,18.125,-156.25
1589381212.1575866,1.02,-2.13,9.02,0.38,0.3322222222222222,-0.6355555555555555,6.1875,17.625,-140.875
1589381212.1642234,0.69,-2.33,9.03,0.38,0.3322222222222222,-0.6355555555555555,2.3125,12.3125,-126.0
1589381212.1765018,0.58,-2.45,8.97,0.38,0.3322222222222222,-0.6355555555555555,7.75,-13.8125,-102.875
1589381212.1834779,3.7,-11.89,6.23,0.3022222222222222,0.38,-0.6288888888888889,6.1875,22.3125,-23.1875
1589381212.191475,3.7,-11.89,6.23,0.3022222222222222,0.38,-0.6288888888888889,6.1875,22.3125,-23.1875
1589381212.2038493,2.05,-2.09,8.99,0.3022222222222222,0.38,-0.6288888888888889,1.4375,3.875,2.75
1589381212.2147102,1.47,-3.89,8.61,0.3022222222222222,0.38,-0.6288888888888889,2.1875,1.625,-5.375
1589381212.2265873,1.4,-3.6,8.91,0.3022222222222222,0.38,-0.6288888888888889,-1.6875,-4.875,8.8125
1589381212.2372587,1.51,-3.64,8.84,0.2433333333333333,0.4066666666666667,-0.6288888888888889,0.4375,0.5,-0.375
1589381212.2442427,1.36,-3.56,9.04,0.2433333333333333,0.4066666666666667,-0.6288888888888889,-3.4375,-2.375,1.125
1589381212.254951,1.39,-3.55,8.82,0.2433333333333333,0.4066666666666667,-0.6288888888888889,0.8125,-2.375,7.4375
1589381212.2647653,1.47,-3.68,8.88,0.2433333333333333,0.4066666666666667,-0.6288888888888889,1.4375,-6.625,4.5
1589381212.2772794,1.44,-3.58,8.85,0.2433333333333333,0.4066666666666667,-0.6288888888888889,-8.875,-7.8125,4.375
1589381212.2864985,1.44,-3.66,9.03,0.26222222222222225,0.4211111111111111,-0.6222222222222222,2.5625,-3.625,-1.375
1589381212.2953234,1.48,-3.6,8.86,0.26222222222222225,0.4211111111111111,-0.6222222222222222,-2.8125,2.25,-0.5
1589381212.3093338,1.49,-3.63,8.73,0.26222222222222225,0.4211111111111111,-0.6222222222222222,1.5625,1.25,3.125
1589381212.315544,1.46,-3.64,8.8,0.26222222222222225,0.4211111111111111,-0.6222222222222222,1.4375,6.125,-8.0625
1589381212.3279662,1.45,-3.59,8.96,0.26222222222222225,0.4211111111111111,-0.6222222222222222,-0.6875,-6.0,8.9375
1589381212.3356824,1.43,-3.62,8.96,0.23555555555555555,0.4155555555555556,-0.6288888888888889,-1.4375,1.25,-6.75
1589381212.3480115,1.47,-3.65,8.87,0.23555555555555555,0.4155555555555556,-0.6288888888888889,7.625,-2.5,-5.5
1589381212.3559651,1.46,-3.62,8.8,0.23555555555555555,0.4155555555555556,-0.6288888888888889,2.5625,10.3125,-8.1875
1589381212.3649788,1.46,-3.62,8.83,0.23555555555555555,0.4155555555555556,-0.6288888888888889,-6.0625,4.625,-4.5
1589381212.378196,1.44,-3.62,8.95,0.23555555555555555,0.4155555555555556,-0.6288888888888889,-0.1875,-3.25,-2.25
1589381212.3892913,1.46,-3.61,8.93,0.25555555555555554,0.4177777777777778,-0.6222222222222222,-1.5625,3.5,-0.75
1589381212.3959782,1.46,-3.62,8.92,0.25555555555555554,0.4177777777777778,-0.6222222222222222,5.0625,-0.75,0.0
1589381212.4073665,1.45,-3.63,8.77,0.25555555555555554,0.4177777777777778,-0.6222222222222222,-0.3125,3.25,-4.5
1589381212.4157195,1.47,-3.63,8.85,0.25555555555555554,0.4177777777777778,-0.6222222222222222,0.9375,1.875,1.125
1589381212.4277966,1.44,-3.64,8.92,0.25555555555555554,0.4177777777777778,-0.6222222222222222,-6.3125,-2.5,0.5
1589381212.4353151,1.43,-3.61,9.01,0.26222222222222225,0.4188888888888889,-0.6355555555555555,4.4375,6.375,-2.0
1589381212.4459689,1.46,-3.61,8.87,0.26222222222222225,0.4188888888888889,-0.6355555555555555,-1.8125,0.625,6.875
1589381212.4602098,1.46,-3.64,8.77,0.26222222222222225,0.4188888888888889,-0.6355555555555555,-0.5625,6.625,0.75
1589381212.4663413,1.45,-3.6,8.84,0.26222222222222225,0.4188888888888889,-0.6355555555555555,7.875,8.9375,2.5
1589381212.4830418,1.45,-3.61,8.94,0.26222222222222225,0.4188888888888889,-0.6355555555555555,7.5,6.25,5.375
1589381212.4892972,1.44,-3.66,8.94,0.25555555555555554,0.4066666666666667,-0.6133333333333333,-2.1875,-2.25,-6.125
1589381212.5010061,1.45,-3.6,8.92,0.25555555555555554,0.4066666666666667,-0.6133333333333333,4.3125,-3.625,-0.25
1589381212.5067492,1.48,-3.64,8.76,0.25555555555555554,0.4066666666666667,-0.6133333333333333,2.4375,1.875,-9.5625
1589381212.5164626,1.47,-3.61,8.85,0.25555555555555554,0.4066666666666667,-0.6133333333333333,-3.0625,-2.25,-3.0
1589381212.5282204,1.46,-3.62,8.91,0.25555555555555554,0.4066666666666667,-0.6133333333333333,3.4375,0.5,-1.75
1589381212.5394876,1.43,-3.61,8.93,0.2677777777777778,0.4122222222222222,-0.6266666666666667,0.0625,-0.125,-13.3125
1589381212.5459335,1.45,-3.63,8.85,0.2677777777777778,0.4122222222222222,-0.6266666666666667,7.25,3.875,1.125
1589381212.5558329,1.46,-3.63,8.81,0.2677777777777778,0.4122222222222222,-0.6266666666666667,-5.3125,1.0,9.5625
1589381212.566477,1.46,-3.63,8.8,0.2677777777777778,0.4122222222222222,-0.6266666666666667,-2.9375,-1.25,-1.25
1589381212.578194,1.47,-3.64,8.87,0.2677777777777778,0.4122222222222222,-0.6266666666666667,-7.625,2.75,6.625
1589381212.5860136,1.45,-3.61,8.92,0.2677777777777778,0.4211111111111111,-0.6266666666666667,-2.9375,-0.5,0.625
1589381212.5973785,1.45,-3.6,8.94,0.2677777777777778,0.4211111111111111,-0.6266666666666667,-0.9375,-7.5625,4.75
1589381212.6064758,1.44,-3.62,8.82,0.2677777777777778,0.4211111111111111,-0.6266666666666667,0.3125,-0.875,-3.5
1589381212.6186898,1.46,-3.62,8.89,0.2677777777777778,0.4211111111111111,-0.6266666666666667,5.6875,-1.625,12.9375
1589381212.633643,1.44,-3.61,8.85,0.2677777777777778,0.4211111111111111,-0.6266666666666667,-8.5,1.0,1.125
1589381212.6400962,1.45,-3.61,8.95,0.2433333333333333,0.4133333333333333,-0.62,-1.9375,0.875,4.25
1589381212.6523564,1.44,-3.63,8.93,0.2433333333333333,0.4133333333333333,-0.62,3.5625,-2.0,-4.0
1589381212.6587653,1.47,-3.61,8.82,0.2433333333333333,0.4133333333333333,-0.62,-6.0625,-1.625,0.25
1589381212.6706064,1.46,-3.61,8.84,0.2433333333333333,0.4133333333333333,-0.62,0.9375,1.625,4.75
1589381212.67884,1.46,-3.64,8.89,0.2433333333333333,0.4133333333333333,-0.62,-5.3125,2.625,-2.25
1589381212.690944,1.45,-3.63,8.9,0.25555555555555554,0.4088888888888889,-0.6488888888888888,-2.9375,6.25,4.875
1589381212.697079,1.46,-3.6,8.92,0.25555555555555554,0.4088888888888889,-0.6488888888888888,-3.4375,3.625,1.0
1589381212.7111864,1.46,-3.61,8.8,0.25555555555555554,0.4088888888888889,-0.6488888888888888,-3.4375,0.25,1.875
1589381212.7175806,1.47,-3.64,8.82,0.25555555555555554,0.4088888888888889,-0.6488888888888888,-5.0625,-3.125,-0.25
1589381212.7291627,1.46,-3.65,8.89,0.25555555555555554,0.4088888888888889,-0.6488888888888888,0.6875,-3.25,8.1875
1589381212.7363768,1.45,-3.61,8.92,0.2677777777777778,0.4133333333333333,-0.62,-0.5625,-3.625,4.125
1589381212.746485,1.45,-3.6,8.92,0.2677777777777778,0.4133333333333333,-0.62,-4.4375,0.625,5.375
1589381212.759772,1.44,-3.62,8.86,0.2677777777777778,0.4133333333333333,-0.62,0.9375,1.5,-0.375
1589381212.7704484,1.44,-3.62,8.86,0.2677777777777778,0.4133333333333333,-0.62,5.9375,1.0,-4.25
1589381212.7830045,1.47,-3.62,8.86,0.2677777777777778,0.4133333333333333,-0.62,-3.3125,-4.375,1.125
1589381212.7891927,1.47,-3.64,8.9,0.27555555555555555,0.4088888888888889,-0.6266666666666667,-3.5625,1.125,-1.75
1589381212.7967708,1.47,-3.61,8.87,0.27555555555555555,0.4088888888888889,-0.6266666666666667,-6.8125,3.125,0.875
1589381212.808586,1.46,-3.62,8.8,0.27555555555555555,0.4088888888888889,-0.6266666666666667,6.1875,2.0,-5.125
1589381212.8221962,1.45,-3.64,8.83,0.27555555555555555,0.4088888888888889,-0.6266666666666667,5.9375,-4.0,-1.25
1589381212.8290133,1.47,-3.63,8.87,0.27555555555555555,0.4088888888888889,-0.6266666666666667,-5.4375,-6.125,-1.0
1589381212.8420234,1.46,-3.6,8.91,0.26222222222222225,0.4211111111111111,-0.6411111111111111,-2.5625,-2.375,-1.0
1589381212.8486116,1.46,-3.63,8.91,0.26222222222222225,0.4211111111111111,-0.6411111111111111,4.0625,6.25,-1.625
1589381212.8618279,1.45,-3.61,8.83,0.26222222222222225,0.4211111111111111,-0.6411111111111111,3.3125,1.875,0.25
1589381212.8677588,1.44,-3.6,8.88,0.26222222222222225,0.4211111111111111,-0.6411111111111111,2.6875,-1.5,-3.0
1589381212.8822932,1.47,-3.63,8.88,0.26222222222222225,0.4211111111111111,-0.6411111111111111,0.0625,1.375,0.375
1589381212.8875062,1.45,-3.64,8.89,0.25,0.42777777777777776,-0.6344444444444445,-5.6875,1.25,0.875
1589381212.8977182,1.46,-3.6,8.92,0.25,0.42777777777777776,-0.6344444444444445,-0.8125,0.0,-0.5
1589381212.9072466,1.46,-3.6,8.79,0.25,0.42777777777777776,-0.6344444444444445,-2.5625,-6.5,3.0
1589381212.918466,1.44,-3.63,8.85,0.25,0.42777777777777776,-0.6344444444444445,-2.1875,1.0,3.75
1589381212.930184,1.47,-3.63,8.87,0.25,0.42777777777777776,-0.6344444444444445,4.6875,-3.0,-3.375
1589381212.937952,1.46,-3.63,8.91,0.26222222222222225,0.4133333333333333,-0.6133333333333333,-4.4375,3.5,-1.875
1589381212.9491222,1.47,-3.61,8.89,0.26222222222222225,0.4133333333333333,-0.6133333333333333,-4.6875,-4.875,2.625
1589381212.9608386,1.46,-3.62,8.82,0.26222222222222225,0.4133333333333333,-0.6133333333333333,-0.6875,-5.125,0.5
1589381212.9689903,1.46,-3.62,8.84,0.26222222222222225,0.4133333333333333,-0.6133333333333333,3.5625,4.0,-6.0
1589381212.9802468,1.45,-3.61,8.89,0.26222222222222225,0.4133333333333333,-0.6133333333333333,-6.0625,-2.5,-5.125
1589381212.992875,1.45,-3.62,8.91,0.2677777777777778,0.4088888888888889,-0.6266666666666667,1.4375,-2.75,-3.25
1589381212.998975,1.46,-3.61,8.93,0.2677777777777778,0.4088888888888889,-0.6266666666666667,3.3125,2.375,-2.75
1589381213.0126042,1.46,-3.61,8.84,0.2677777777777778,0.4088888888888889,-0.6266666666666667,1.8125,-3.0,-11.0625
1589381213.0185106,1.46,-3.63,8.89,0.2677777777777778,0.4088888888888889,-0.6266666666666667,-0.9375,-0.5,-0.125
1589381213.0304775,1.45,-3.63,8.9,0.2677777777777778,0.4088888888888889,-0.6266666666666667,5.5625,2.625,0.375
1589381213.0388627,1.46,-3.65,8.89,0.25555555555555554,0.4133333333333333,-0.62,-2.1875,6.25,-3.375
1589381213.0485802,1.47,-3.62,8.86,0.25555555555555554,0.4133333333333333,-0.62,3.4375,-3.0,0.75
1589381213.0589259,1.46,-3.6,8.82,0.25555555555555554,0.4133333333333333,-0.62,-3.8125,6.25,-2.875
1589381213.0725622,1.46,-3.6,8.87,0.25555555555555554,0.4133333333333333,-0.62,7.125,4.875,-5.0
1589381213.0807474,1.46,-3.61,8.9,0.25555555555555554,0.4133333333333333,-0.62,-0.0625,-2.25,-2.0
1589381213.0884645,1.45,-3.61,8.93,0.2677777777777778,0.4133333333333333,-0.6055555555555555,0.4375,2.5,1.75
1589381213.0983934,1.46,-3.62,8.91,0.2677777777777778,0.4133333333333333,-0.6055555555555555,1.4375,2.125,-8.4375
1589381213.1084428,1.45,-3.62,8.82,0.2677777777777778,0.4133333333333333,-0.6055555555555555,2.4375,4.875,1.5
1589381213.1188428,1.45,-3.63,8.88,0.2677777777777778,0.4133333333333333,-0.6055555555555555,-5.1875,0.375,1.125
1589381213.1311033,1.45,-3.6,8.89,0.2677777777777778,0.4133333333333333,-0.6055555555555555,0.6875,3.125,-1.125
1589381213.1432395,1.45,-3.64,8.92,0.26222222222222225,0.4133333333333333,-0.62,-1.5625,0.625,7.5625
1589381213.1490266,1.47,-3.62,8.91,0.26222222222222225,0.4133333333333333,-0.62,2.4375,-2.375,3.25
1589381213.1640046,1.46,-3.63,8.8,0.26222222222222225,0.4133333333333333,-0.62,-2.1875,-4.625,-4.375
1589381213.17062,1.46,-3.62,8.89,0.26222222222222225,0.4133333333333333,-0.62,-1.5625,-0.625,7.9375
1589381213.183921,1.44,-3.63,8.9,0.26222222222222225,0.4133333333333333,-0.62,4.0625,1.375,1.375
1589381213.1894276,1.46,-3.6,8.9,0.2677777777777778,0.4133333333333333,-0.62,-7.5,1.625,-2.5
1589381213.2026494,1.47,-3.62,8.9,0.2677777777777778,0.4133333333333333,-0.62,5.5625,-0.375,-1.0
1589381213.2088876,1.45,-3.62,8.8,0.2677777777777778,0.4133333333333333,-0.62,-3.6875,-4.875,12.9375
1589381213.2199295,1.46,-3.6,8.87,0.2677777777777778,0.4133333333333333,-0.62,-2.1875,-6.0,6.375
1589381213.2318928,1.47,-3.62,8.93,0.2677777777777778,0.4133333333333333,-0.62,2.5625,6.75,-5.25
1589381213.2383378,1.46,-3.61,8.91,0.26222222222222225,0.4211111111111111,-0.6266666666666667,-1.5625,-1.125,7.4375
1589381213.24864,1.47,-3.61,8.91,0.26222222222222225,0.4211111111111111,-0.6266666666666667,4.4375,2.125,1.0
1589381213.2591493,1.46,-3.63,8.81,0.26222222222222225,0.4211111111111111,-0.6266666666666667,0.1875,-4.125,0.75
1589381213.2700677,1.46,-3.63,8.88,0.26222222222222225,0.4211111111111111,-0.6266666666666667,-1.9375,3.25,2.875
1589381213.2816055,1.45,-3.6,8.91,0.26222222222222225,0.4211111111111111,-0.6266666666666667,10.125,1.0,10.8125
1589381213.2891386,1.46,-3.61,8.91,0.27555555555555555,0.4133333333333333,-0.6133333333333333,2.3125,-5.0,-2.75
1589381213.299366,1.45,-3.62,8.85,0.27555555555555555,0.4133333333333333,-0.6133333333333333,2.4375,5.5,-4.75
1589381213.3152425,1.45,-3.62,8.78,0.27555555555555555,0.4133333333333333,-0.6133333333333333,-1.9375,1.625,5.375
1589381213.3219593,1.47,-3.62,8.85,0.27555555555555555,0.4133333333333333,-0.6133333333333333,-0.8125,5.5,1.125
1589381213.3361936,1.47,-3.6,8.88,0.27555555555555555,0.4133333333333333,-0.6133333333333333,-5.3125,1.125,0.75
1589381213.3428695,1.46,-3.6,8.91,0.26222222222222225,0.4211111111111111,-0.6055555555555555,-1.3125,-2.75,5.75
1589381213.3539088,1.46,-3.62,8.9,0.26222222222222225,0.4211111111111111,-0.6055555555555555,0.8125,-1.125,-2.75
1589381213.3600461,1.44,-3.62,8.8,0.26222222222222225,0.4211111111111111,-0.6055555555555555,4.3125,-2.875,1.125
1589381213.3740098,1.46,-3.63,8.9,0.26222222222222225,0.4211111111111111,-0.6055555555555555,0.3125,-0.5,4.875
1589381213.3820765,1.43,-3.61,8.92,0.26222222222222225,0.4211111111111111,-0.6055555555555555,0.3125,2.125,3.0
1589381213.3943374,1.45,-3.63,8.92,0.26222222222222225,0.4133333333333333,-0.6266666666666667,-0.8125,3.5,-4.25
1589381213.4001586,1.46,-3.62,8.92,0.26222222222222225,0.4133333333333333,-0.6266666666666667,4.1875,3.125,6.0
1589381213.4109926,1.46,-3.62,8.81,0.26222222222222225,0.4133333333333333,-0.6266666666666667,1.9375,0.375,-7.1875
1589381213.4206538,1.45,-3.63,8.87,0.26222222222222225,0.4133333333333333,-0.6266666666666667,-1.6875,-5.375,2.5
1589381213.432392,1.44,-3.62,8.87,0.26222222222222225,0.4133333333333333,-0.6266666666666667,-0.5625,1.5,0.625
1589381213.4402466,1.45,-3.61,8.92,0.2433333333333333,0.4211111111111111,-0.6344444444444445,-3.6875,3.625,1.625
1589381213.4507544,1.44,-3.62,8.9,0.2433333333333333,0.4211111111111111,-0.6344444444444445,5.8125,0.375,0.625
1589381213.4601305,1.47,-3.64,8.8,0.2433333333333333,0.4211111111111111,-0.6344444444444445,-2.0625,0.625,0.875
1589381213.4723759,1.47,-3.6,8.83,0.2433333333333333,0.4211111111111111,-0.6344444444444445,0.6875,-2.875,-0.5
1589381213.4824634,1.43,-3.62,8.94,0.2433333333333333,0.4211111111111111,-0.6344444444444445,-5.4375,-1.0,4.125
1589381213.4940312,1.46,-3.64,8.92,0.2677777777777778,0.4088888888888889,-0.6266666666666667,-1.9375,-3.75,-0.625
1589381213.5011759,1.46,-3.63,8.92,0.2677777777777778,0.4088888888888889,-0.6266666666666667,-4.6875,2.25,-4.375
1589381213.5115266,1.46,-3.62,8.81,0.2677777777777778,0.4088888888888889,-0.6266666666666667,3.0625,0.0,-2.375
1589381213.5245926,1.46,-3.63,8.86,0.2677777777777778,0.4088888888888889,-0.6266666666666667,-8.0,-6.625,3.75
1589381213.532194,1.46,-3.62,8.92,0.2677777777777778,0.4088888888888889,-0.6266666666666667,0.3125,5.25,2.0
1589381213.5453608,1.45,-3.62,8.93,0.26222222222222225,0.4211111111111111,-0.6266666666666667,0.0625,-3.875,0.75
1589381213.5526981,1.46,-3.61,8.87,0.26222222222222225,0.4211111111111111,-0.6266666666666667,0.9375,-2.125,1.625
1589381213.5644462,1.45,-3.64,8.83,0.26222222222222225,0.4211111111111111,-0.6266666666666667,3.5625,0.5,-0.625
1589381213.5707564,1.47,-3.63,8.86,0.26222222222222225,0.4211111111111111,-0.6266666666666667,2.0625,0.0,1.0
1589381213.5827715,1.47,-3.62,8.9,0.26222222222222225,0.4211111111111111,-0.6266666666666667,1.6875,5.0,-2.0
1589381213.5906107,1.46,-3.62,8.93,0.25,0.4133333333333333,-0.6344444444444445,4.6875,-0.625,4.625
1589381213.605042,1.47,-3.64,8.93,0.25,0.4133333333333333,-0.6344444444444445,0.5625,-2.875,4.5
1589381213.611624,1.44,-3.63,8.81,0.25,0.4133333333333333,-0.6344444444444445,5.4375,2.75,9.4375
1589381213.623676,1.45,-3.6,8.82,0.25,0.4133333333333333,-0.6344444444444445,-5.1875,-4.875,6.125
1589381213.6399848,1.46,-3.63,8.9,0.25,0.4133333333333333,-0.6344444444444445,0.9375,-2.375,1.875
1589381213.6507006,1.44,-3.61,8.92,0.2677777777777778,0.4211111111111111,-0.62,-1.8125,-11.0625,3.375
1589381213.6609135,1.44,-3.61,8.81,0.2677777777777778,0.4211111111111111,-0.62,0.0625,4.125,7.4375
1589381213.6770082,1.46,-3.61,8.85,0.2677777777777778,0.4211111111111111,-0.62,-0.8125,-2.875,-3.875
1589381213.6831145,1.46,-3.63,8.89,0.2677777777777778,0.4211111111111111,-0.62,2.1875,2.625,1.125
1589381213.6911252,1.45,-3.63,8.92,0.2433333333333333,0.43333333333333335,-0.6266666666666667,-2.1875,-5.375,10.5625
1589381213.7027705,1.46,-3.61,8.87,0.2433333333333333,0.43333333333333335,-0.6266666666666667,4.4375,3.25,-3.5
1589381213.7111595,1.44,-3.61,8.81,0.2433333333333333,0.43333333333333335,-0.6266666666666667,2.0625,-9.3125,8.1875
1589381213.7212787,1.47,-3.6,8.84,0.2433333333333333,0.43333333333333335,-0.6266666666666667,-0.6875,1.75,-0.5
1589381213.7332392,1.46,-3.63,8.92,0.2433333333333333,0.43333333333333335,-0.6266666666666667,6.0625,1.375,-8.5625
1589381213.741408,1.46,-3.62,8.91,0.25555555555555554,0.4211111111111111,-0.6344444444444445,-4.4375,-2.25,0.375
1589381213.7558765,1.45,-3.6,8.92,0.25555555555555554,0.4211111111111111,-0.6344444444444445,2.4375,4.875,1.0
1589381213.7615135,1.46,-3.6,8.82,0.25555555555555554,0.4211111111111111,-0.6344444444444445,-8.375,-4.25,5.125
1589381213.7749088,1.44,-3.61,8.85,0.25555555555555554,0.4211111111111111,-0.6344444444444445,1.3125,6.375,2.625
1589381213.7835338,1.47,-3.61,8.9,0.25555555555555554,0.4211111111111111,-0.6344444444444445,2.8125,-1.75,-5.625
1589381213.791364,1.45,-3.64,8.93,0.2677777777777778,0.4133333333333333,-0.6344444444444445,1.6875,5.625,-11.4375
1589381213.8013482,1.45,-3.62,8.87,0.2677777777777778,0.4133333333333333,-0.6344444444444445,1.1875,1.375,8.5625
1589381213.8113842,1.46,-3.62,8.82,0.2677777777777778,0.4133333333333333,-0.6344444444444445,-2.4375,-3.125,2.5
1589381213.8221655,1.46,-3.62,8.85,0.2677777777777778,0.4133333333333333,-0.6344444444444445,-1.3125,-2.5,3.0
1589381213.8339856,1.46,-3.61,8.89,0.2677777777777778,0.4133333333333333,-0.6344444444444445,-0.9375,-1.125,1.625
1589381213.8413026,1.45,-3.62,8.92,0.25,0.4088888888888889,-0.5988888888888889,-2.5625,4.375,7.8125
1589381213.8530068,1.46,-3.64,8.9,0.25,0.4088888888888889,-0.5988888888888889,1.0625,4.875,3.625
1589381213.8633196,1.47,-3.63,8.79,0.25,0.4088888888888889,-0.5988888888888889,4.5625,-3.0,-7.9375
1589381213.8735993,1.46,-3.62,8.84,0.25,0.4088888888888889,-0.5988888888888889,-5.8125,-1.375,1.125
1589381213.8847256,1.46,-3.62,8.91,0.25,0.4088888888888889,-0.5988888888888889,2.1875,-11.9375,1.375
1589381213.8917804,1.46,-3.62,8.94,0.2288888888888889,0.4133333333333333,-0.6266666666666667,1.8125,-5.75,3.625
1589381213.9066994,1.46,-3.63,8.94,0.2288888888888889,0.4133333333333333,-0.6266666666666667,2.4375,2.625,-1.25
1589381213.912564,1.44,-3.61,8.82,0.2288888888888889,0.4133333333333333,-0.6266666666666667,2.4375,0.625,9.4375
1589381213.925149,1.47,-3.61,8.86,0.2288888888888889,0.4133333333333333,-0.6266666666666667,0.1875,2.5,8.8125
1589381213.9350052,1.47,-3.61,8.9,0.2288888888888889,0.4133333333333333,-0.6266666666666667,-1.6875,-2.375,3.125
1589381213.9456315,1.45,-3.61,8.92,0.2677777777777778,0.4088888888888889,-0.6133333333333333,0.1875,-4.625,-7.4375
1589381213.9523654,1.47,-3.63,8.89,0.2677777777777778,0.4088888888888889,-0.6133333333333333,-5.8125,1.0,-2.0
1589381213.9634778,1.46,-3.62,8.8,0.2677777777777778,0.4088888888888889,-0.6133333333333333,2.0625,-0.875,1.125
1589381213.9722874,1.45,-3.64,8.84,0.2677777777777778,0.4088888888888889,-0.6133333333333333,-0.6875,-0.75,5.625
1589381213.9856448,1.47,-3.62,8.93,0.2677777777777778,0.4088888888888889,-0.6133333333333333,-3.1875,-2.75,1.0
1589381213.991878,1.47,-3.62,8.91,0.25555555555555554,0.42777777777777776,-0.6133333333333333,-5.8125,1.25,-3.25
1589381214.0020206,1.44,-3.63,8.93,0.25555555555555554,0.42777777777777776,-0.6133333333333333,2.5625,8.3125,-4.125
1589381214.0127733,1.45,-3.62,8.82,0.25555555555555554,0.42777777777777776,-0.6133333333333333,-0.3125,1.5,1.125
1589381214.0247495,1.45,-3.63,8.85,0.25555555555555554,0.42777777777777776,-0.6133333333333333,-2.1875,-0.625,-1.625
1589381214.0347588,1.46,-3.63,8.91,0.25555555555555554,0.42777777777777776,-0.6133333333333333,4.0625,1.625,9.4375
1589381214.042419,1.46,-3.62,8.91,0.25,0.4211111111111111,-0.6411111111111111,-0.5625,3.25,-2.0
1589381214.0519092,1.45,-3.61,8.92,0.25,0.4211111111111111,-0.6411111111111111,-2.4375,4.125,0.375
1589381214.0634062,1.45,-3.61,8.81,0.25,0.4211111111111111,-0.6411111111111111,1.5625,-2.0,-2.75
1589381214.0778265,1.46,-3.62,8.85,0.25,0.4211111111111111,-0.6411111111111111,-1.9375,0.375,-1.375
1589381214.0847578,1.46,-3.63,8.86,0.25,0.4211111111111111,-0.6411111111111111,-3.1875,-0.25,-0.625
1589381214.0959878,1.47,-3.61,8.91,0.2677777777777778,0.4211111111111111,-0.6266666666666667,-3.3125,-1.125,0.625
1589381214.102876,1.44,-3.61,8.9,0.2677777777777778,0.4211111111111111,-0.6266666666666667,-2.1875,-2.375,-8.1875
1589381214.1137912,1.45,-3.62,8.82,0.2677777777777778,0.4211111111111111,-0.6266666666666667,-1.1875,-1.875,-3.5
1589381214.1231914,1.47,-3.62,8.82,0.2677777777777778,0.4211111111111111,-0.6266666666666667,2.0625,-2.75,-4.875
1589381214.1353195,1.47,-3.61,8.88,0.2677777777777778,0.4211111111111111,-0.6266666666666667,-2.0625,-4.0,-6.25
1589381214.1428804,1.47,-3.62,8.92,0.2677777777777778,0.4011111111111111,-0.6133333333333333,2.8125,1.625,-6.375
