time,acc_x,acc_y,acc_z,mag_x,mag_y,mag_z,gyr_x,gyr_y,gyr_z
1588960023.9362366,1.08,-2.28,-9.54,-0.5988888888888889,0.06222222222222223,0.6666666666666666,0.125,1.25,0.5
1588960023.9462366,1.1385455391415609,-2.3092727695707804,-9.54,-0.5912996523335013,0.09474752174531167,0.6666666666666666,0.003030126788414564,1.493939746423171,0.5
1588960023.9562366,1.1474715468492758,-2.27,-9.527812984657965,-0.5911111111111111,0.09555555555555556,0.6666666666666666,0.03089433561594808,1.0596546849275845,0.34339433561594807
1588960023.9662366,1.13248231799321,-2.2674941059977365,-9.612505894002263,-0.5911111111111111,0.09555555555555556,0.6666666666666666,-0.0625,0.14021978734439833,0.20301448745756318
1588960023.9762366,1.1061320790646305,-2.2561320790646304,-9.61226415812926,-0.5911111111111111,0.09555555555555556,0.6666666666666666,-0.0625,-0.36291274707696997,0.05041274707696995
1588960023.9862366,1.0901580530906045,-2.2401580530906045,-9.58031610618121,-0.5911111111111111,0.09555555555555556,0.6666666666666666,-0.0625,-0.3129939159081388,0.000493915908138777
1588960023.9962366,1.0823170098632982,-2.2476829901367017,-9.592317009863297,-0.5988888888888889,0.08888888888888889,0.7022222222222222,0.05792524658245371,0.5823131164561343,0.13948131164561342
1588960024.0062366,1.0912029847124485,-2.241202984712449,-9.602405969424897,-0.5988888888888889,0.08888888888888889,0.7022222222222222,0.25,1.0850559633584083,0.19877798167920407
1588960024.0162365,1.1125624956153686,-2.2574375043846313,-9.616937539461684,-0.5988888888888889,0.08888888888888889,0.7022222222222222,0.23398440240394733,1.3574220120197367,0.34296880480789466
1588960024.0262365,1.116690767247148,-2.251654616376426,-9.540072301741445,-0.5988888888888889,0.08888888888888889,0.7022222222222222,0.20818270470532552,1.042269181178698,0.21897594294201173
1588960024.0362365,1.1029997878278468,-2.2585001060860765,-9.498999363483541,-0.5988888888888889,0.08888888888888889,0.7022222222222222,0.2937513260759576,0.6999946956961696,0.09062301088606356
1588960024.0462365,1.1078904644471845,-2.254219071105631,-9.508438142211261,-0.5988888888888889,0.07555555555555556,0.7088888888888889,0.21386919441019317,0.4047921804356761,0.03955379161528977
1588960024.0562365,1.1,-2.2653650531530602,-9.565492207658169,-0.5988888888888889,0.07555555555555556,0.7088888888888889,0.29801579110331305,0.75,0.1875
1588960024.0662365,1.0987851596647298,-2.25,-9.64757031932946,-0.5988888888888889,0.07555555555555556,0.7088888888888889,0.25759275209543886,0.7727782562863167,0.1875
1588960024.0762365,1.086578796813801,-2.25,-9.6317106015931,-0.5988888888888889,0.07555555555555556,0.7088888888888889,0.30180874004312813,1.1085601593099503,0.1981912599568719
1588960024.0862365,1.07391095727341,-2.247653425635954,-9.635306851271908,-0.5977590567876816,0.0771199384649195,0.7077590567876816,0.23533391022471292,2.0010530556929105,0.27444348295881177
1588960024.0962365,1.1123181876453676,-2.2246090874127797,-9.58921817482556,-0.5866636346802272,0.09248283061370255,0.6966636346802272,0.09130679632987199,2.6251705492372213,0.5144886727835467
1588960024.1062365,1.1590123365726823,-2.2590123365726824,-9.568888970845858,-0.5844444444444444,0.09555555555555556,0.6944444444444444,0.11265420715853142,1.564042071585314,0.3001542071585314
1588960024.1162364,1.151277914031238,-2.251277914031238,-9.63849877371886,-0.5844444444444444,0.09555555555555556,0.6944444444444444,0.015973925390473723,0.5972392539047373,0.2034739253904737
1588960024.1262364,1.1113252620925393,-2.2673494758149215,-9.582048427444764,-0.5844444444444444,0.09555555555555556,0.6944444444444444,0.11671711192163003,-0.1626513357648901,-0.01656577615673993
1588960024.1362364,1.1193346955143508,-2.2513306089712986,-9.533991826913896,-0.5844444444444444,0.09555555555555556,0.6944444444444444,0.06665815303530849,-0.012474459105925484,-0.11668369392938302
1588960024.1462364,1.11,-2.2578068560624907,-9.518772575750038,-0.5988888888888889,0.10777777777777778,0.6944444444444444,-0.048792850390566696,-0.30482859843773324,0.021378551171700087
1588960024.1562364,1.1148467186782929,-2.2524233593391463,-9.566963515374026,-0.5988888888888889,0.10777777777777778,0.6944444444444444,-0.015145995869664983,-0.5,-0.09470800826067004
1588960024.1662364,1.1281118022935974,-2.256223604587195,-9.616223604587194,-0.5988888888888889,0.10777777777777778,0.6944444444444444,-0.038897528669967416,-0.5118012356650163,-0.011801235665016292
1588960024.1762364,1.119226311836034,-2.2415473763279326,-9.595357871016203,-0.5988888888888889,0.10777777777777778,0.6944444444444444,0.047993346925635796,-0.5625,-0.07217110204957614
1588960024.1862364,1.1102247022212686,-2.259550595557463,-9.541348213327609,-0.5988888888888889,0.10777777777777778,0.6944444444444444,-0.12078683335121793,-0.5625,-0.1846912222341453
1588960024.1962364,1.13,-2.248353361876034,-9.546706723752068,-0.6111111111111112,0.08888888888888889,0.7088888888888889,-0.10366595309915344,-1.0301233944730952,-0.19779148827478837
1588960024.2062364,1.1268253173012692,-2.2415873413493657,-9.545873413493654,-0.6111111111111112,0.08888888888888889,0.7088888888888889,-0.3125,-1.609129717768871,-0.26984176686706746
1588960024.2162364,1.1086871054524146,-2.25,-9.630437631515862,-0.6111111111111112,0.08888888888888889,0.7088888888888889,-0.3152351969741363,-2.160148030258637,-0.3722648030258637
1588960024.2262363,1.08,-2.25,-9.632940558010942,-0.6111111111111112,0.08888888888888889,0.7088888888888889,-0.375,-1.4448426335157025,-0.28308565837892563
1588960024.2362363,1.08,-2.25,-9.583942680243766,-0.6111111111111112,0.08888888888888889,0.7088888888888889,-0.375,-0.6282113373960787,-0.07892783434901968
1588960024.2462363,1.0874557791567594,-2.25,-9.58,-0.5912290333597531,0.0938594083267284,0.6931489106690638,-0.2352041408107638,-0.5625,-0.10909861972974541
1588960024.2562363,1.1199587193486409,-2.2501238419540774,-9.530247683908154,-0.5844444444444444,0.09555555555555556,0.6877777777777778,-0.1877580040709951,-1.0018060284969659,-0.31275800407099513
1588960024.2662363,1.1119797591644949,-2.2740607225065155,-9.57812144501303,-0.5844444444444444,0.09555555555555556,0.6877777777777778,-0.23762650522190729,-1.350885536553351,-0.36262650522190726
1588960024.2762363,1.0987480274505488,-2.2687480274505485,-9.574992109802194,-0.5844444444444444,0.09555555555555556,0.6877777777777778,-0.25,-1.734350343131858,-0.3515255146977871
1588960024.2862363,1.0910517817167604,-2.26105178171676,-9.54420712686704,-0.5844444444444444,0.09555555555555556,0.6877777777777778,-0.25,-1.6381472714595031,-0.20722090718925465
1588960024.2962363,1.0786577196872449,-2.2573154393744894,-9.554026840938267,-0.5911111111111111,0.10222222222222224,0.6877777777777778,-0.025167755864161513,-1.5876677558641614,-0.25
1588960024.3062363,1.07,-2.2411578042549127,-9.59273584680404,-0.5911111111111111,0.10222222222222224,0.6877777777777778,-0.18026372340679545,-1.7355274468135908,-0.24276372340679545
1588960024.3162363,1.0721979546624298,-2.248901022668785,-9.680109204019065,-0.5911111111111111,0.10222222222222224,0.6877777777777778,-0.125,-1.5975255667196275,-0.1875
1588960024.3262362,1.0912915466375286,-2.24,-9.599138968908314,-0.5911111111111111,0.10222222222222224,0.6877777777777778,-0.11961855567696433,-1.3454020562233038,-0.1875
1588960024.3362362,1.1162898579517235,-2.24,-9.582473428032184,-0.5911111111111111,0.10222222222222224,0.6877777777777778,-0.015458925201152274,-0.7725240886063376,-0.1875
1588960024.3462362,1.1009765903307889,-2.249023409669211,-9.52,-0.5911111111111111,0.06888888888888889,0.6944444444444444,0.125,-0.58081106870229,-0.19360368956743002
1588960024.3562362,1.1073995907394776,-2.246501023151306,-9.536902660193395,-0.5911111111111111,0.06888888888888889,0.6944444444444444,0.11687372106086748,-0.7906313946956627,-0.25
1588960024.3662362,1.090570557316535,-2.288573606708663,-9.646291377442523,-0.5911111111111111,0.06888888888888889,0.6944444444444444,0.06428299161417166,-1.0535850419291417,-0.25
1588960024.3762362,1.088718762886598,-2.258718762886598,-9.589359381443298,-0.5911111111111111,0.06888888888888889,0.6944444444444444,-0.1330077319587629,-1.6225579896907216,-0.45751932989690725
1588960024.3862362,1.0714226804123712,-2.2414226804123714,-9.580711340206186,-0.5911111111111111,0.06888888888888889,0.6944444444444444,-0.24110824742268042,-2.433311855670103,-0.727770618556701
1588960024.3962362,1.0657962282340183,-2.22,-9.585796228234019,-0.5844444444444444,0.08888888888888889,0.6877777777777778,-0.2675157156915908,-3.0724528529252275,-0.7050157156915908
1588960024.4062362,1.0405247936374045,-2.22,-9.560524793637406,-0.5844444444444444,0.08888888888888889,0.6877777777777778,-0.37281335984414854,-2.7565599204675544,-0.8103133598441485
1588960024.4162362,1.0537703049301796,-2.206229695069821,-9.60819606725563,-0.5844444444444444,0.08888888888888889,0.6877777777777778,-0.24590339127956684,-2.4918067825591335,-0.7694677970931889
1588960024.4262362,1.050752483869691,-2.209247516130309,-9.611504967739382,-0.5844444444444444,0.08888888888888889,0.6877777777777778,-0.12970302418556784,-2.028218145113407,-0.8077969758144322
1588960024.4362361,1.0727283219495583,-2.285761073165194,-9.549391141467844,-0.5844444444444444,0.08888888888888889,0.6877777777777778,-0.125,-1.5264932927175372,-0.7651493292717537
1588960024.4462361,1.0792940368547557,-2.3285880737095113,-9.54,-0.5988888888888889,0.09555555555555556,0.7088888888888889,0.0558815955133341,-0.5580877303422227,-0.6073509213688909
1588960024.4562361,1.0600915646102782,-2.2901831292205563,-9.54,-0.5988888888888889,0.09555555555555556,0.7088888888888889,-0.12414158177864257,-0.43807227881423827,-0.1272891152569532
1588960024.466236,1.0330800416742163,-2.251026680558072,-9.64486659720964,-0.5988888888888889,0.09555555555555556,0.7088888888888889,-0.0625,-0.3253335069759014,-0.1314167534879507
1588960024.476236,1.0595599484965539,-2.258239793986215,-9.599559948496553,-0.5988888888888889,0.09555555555555556,0.7088888888888889,-0.0625,-0.44300064379307735,-0.19025032189653868
1588960024.486236,1.0516180034840568,-2.2264720139362266,-9.591618003484056,-0.5988888888888889,0.09555555555555556,0.7088888888888889,-0.0625,-0.5422749564492918,-0.2398874782246459
1588960024.496236,1.0684300416632178,-2.2015699583367825,-9.525494854178737,-0.5917216504643042,0.10169890277662814,0.6955783032432317,-0.004906119802444604,-0.6200938801975554,-0.3075938801975554
1588960024.506236,1.0586336275175379,-2.2234159312061554,-9.566831862412311,-0.5911111111111111,0.10222222222222224,0.6944444444444444,-0.012809742023082146,-0.7329203439692238,-0.5085398280153881
1588960024.516236,1.0403779496719867,-2.2701889748359934,-9.659055125820034,-0.5911111111111111,0.10222222222222224,0.6944444444444444,-0.1886810927249584,-0.49645672182512485,-0.6261810927249584
1588960024.526236,1.06,-2.2803474190660897,-9.60895774280173,-0.5911111111111111,0.10222222222222224,0.6944444444444444,-0.25,-0.30815726167387736,-0.6831572616738774
1588960024.536236,1.06,-2.2881691033865432,-9.58549268984037,-0.5911111111111111,0.10222222222222224,0.6944444444444444,-0.25,-0.21038620766820826,-0.5853862076682083
1588960024.546236,1.030088454376164,-2.2301769087523278,-9.530147423960273,-0.5988659562728464,0.09557521208359197,0.70884629974481,-0.4369471601489758,-0.499078600248293,-0.3755528398510242
1588960024.556236,1.0405623087164768,-2.228594228208808,-9.561968080507668,-0.5988888888888889,0.09555555555555556,0.7088888888888889,-0.3732427852610101,-0.8697283557830304,-0.375
1588960024.566236,1.05506717617969,-2.192332059550776,-9.612735116628915,-0.5988888888888889,0.09555555555555556,0.7088888888888889,-0.3279150744384694,-0.7337452233154081,-0.375
1588960024.576236,1.0529440705618436,-2.165888141123687,-9.587664423371061,-0.5988888888888889,0.09555555555555556,0.7088888888888889,-0.0479026460691343,-0.6434004410115224,-0.4190995589884776
1588960024.586236,1.0398976268031643,-2.170102373196836,-9.534641693811075,-0.5988888888888889,0.09555555555555556,0.7088888888888889,0.030930083759888323,-0.719709748720335,-0.5953495812005584
1588960024.596236,1.0257092974040631,-2.201453512979684,-9.5,-0.5926912073614247,0.09269508715826437,0.7060284204915976,-0.0804506736738149,-1.0002182385722347,-0.8304506736738149
1588960024.606236,1.0298882788804853,-2.259664836641456,-9.514832418320728,-0.5844444444444444,0.08888888888888889,0.7022222222222222,-0.2802026145045495,-1.3427026145045495,-0.9065991284984836
1588960024.616236,1.0518502486995482,-2.295925124349774,-9.63072711394616,-0.5844444444444444,0.08888888888888889,0.7022222222222222,-0.449064054372176,-1.363435945627824,-0.68983986406956
1588960024.626236,1.06,-2.2550616039656908,-9.635802291379559,-0.5844444444444444,0.08888888888888889,0.7022222222222222,-0.5,-0.991511456897793,-0.5625
1588960024.636236,1.074592328278323,-2.2081115075825157,-9.556223015165031,-0.5844444444444444,0.08888888888888889,0.7022222222222222,-0.4087979482604817,-1.086106155218555,-0.6993030776092775
1588960024.646236,1.0222592426225026,-2.193584360291389,-9.565662558834443,-0.5808802001618829,0.08033470261074113,0.697232280226636,-0.41509774817881767,-2.069650459933988,-0.7900977481788176
1588960024.656236,0.9700254022015241,-2.100114309906859,-9.550038103302287,-0.5788888888888889,0.07555555555555556,0.6944444444444444,-0.4375,-2.3752381456392886,-0.8125
1588960024.666236,0.9777383084393405,-2.0613084578032974,-9.588691542196702,-0.5788888888888889,0.07555555555555556,0.6944444444444444,-0.3891355722541218,-1.359347017336558,-0.6190422890164873
1588960024.676236,0.9710668190980475,-2.0410668190980474,-9.56426727639219,-0.5788888888888889,0.07555555555555556,0.6944444444444444,-0.48666476127440655,-0.7833380968139836,-0.2833380968139836
1588960024.686236,0.9311767203898809,-1.993412064467857,-9.528941376311904,-0.5788888888888889,0.07555555555555556,0.6944444444444444,-0.5,-1.4779364926897332,-0.2014709004873511
1588960024.696236,0.9393290996393246,-2.0193290996393247,-9.500335450180337,-0.5722222222222222,0.09555555555555556,0.7233333333333334,-0.5656448454406656,-2.7053207908304384,-0.3114517181864448
1588960024.706236,0.9022056513176819,-1.982205651317682,-9.51889717434116,-0.5722222222222222,0.09555555555555556,0.7233333333333334,-0.7396610094483659,-3.6914123868740734,-0.253446330183878
1588960024.7162359,0.8933856987174114,-2.0064572051303546,-9.559685807695532,-0.5722222222222222,0.09555555555555556,0.7233333333333334,-0.8740181490485371,-4.783484575404477,-0.0433030849191047
1588960024.7262359,0.9426249143041496,-2.02,-9.597541638101383,-0.5722222222222222,0.09555555555555556,0.7233333333333334,-0.7182295237327097,-6.463670000403274,0.44622333346775817
1588960024.7362359,0.9827808290373783,-2.063707772049838,-9.550828756443932,-0.5722222222222222,0.09555555555555556,0.7233333333333334,-0.7899400907418073,-6.932320272225422,0.26097312160244973
1588960024.7462358,1.025264240506329,-2.054207278481013,-9.494735759493672,-0.5747662623066104,0.09301151547116737,0.7123091596343178,-0.875,-7.759909018987342,-0.22370450949367088
1588960024.7562358,1.0360660946933589,-2.0264463510221375,-9.521090986124351,-0.5788888888888889,0.08888888888888889,0.6944444444444444,-0.9040289693888359,-9.8196298061646,-1.4712821734985702
1588960024.7662358,1.007998966052042,-2.120003446493193,-9.616003101843875,-0.5788888888888889,0.08888888888888889,0.6944444444444444,-1.0625107702912286,-12.050079700155091,-3.125064621747372
1588960024.7762358,0.9698678920160827,-2.2605284319356693,-9.680066053991958,-0.5788888888888889,0.08888888888888889,0.6944444444444444,-1.1556307438253877,-13.814977024698448,-4.690389862148191
1588960024.7862358,0.8646017043349388,-2.4516746943312335,-9.696569099666542,-0.5788888888888889,0.08888888888888889,0.6944444444444444,-0.8572156354205261,-11.806201370878103,-5.04288625416821
1588960024.7962358,0.8011845867475197,-2.622892479514882,-9.637281955825065,-0.5788888888888889,0.08401081878639399,0.703503717491935,-0.3972110015159947,-6.956212459941279,-4.059229337375986
1588960024.8062358,0.845933256045048,-2.7832220934084133,-9.618644418681681,-0.5788888888888889,0.0811111111111111,0.7088888888888889,-0.012708574859224886,-1.4331991139450149,-1.577294323451474
1588960024.8162358,0.8775563607773429,-2.8037781803886714,-9.675112721554685,-0.5788888888888889,0.0811111111111111,0.7088888888888889,0.08611362742919651,0.879227058300716,0.06948848001093877
1588960024.8262358,1.0375413072086563,-2.6277430910951893,-9.569816493639422,-0.5788888888888889,0.0811111111111111,0.7088888888888889,0.17924312765024125,3.9822251060096505,1.9433488083053079
1588960024.8362358,1.0525602205011744,-2.533041984510569,-9.564879558997651,-0.5788888888888889,0.0811111111111111,0.7088888888888889,0.41999310933830236,5.009979328014907,2.217997243735321
1588960024.8462358,1.0305611330831896,-2.3933667984991382,-9.55056113308319,-0.5788888888888889,0.08867067046764847,0.7369672522131705,0.3177606226549031,4.642535408849677,1.6425354088496773
1588960024.8562357,1.0007130366247137,-2.3379342873328244,-9.553254107041699,-0.5788888888888889,0.08888888888888889,0.7377777777777778,0.353176338021231,4.075869436713381,1.380941971872614
1588960024.8662357,0.9509268365929652,-2.2245365817035174,-9.636487856150756,-0.5788888888888889,0.08888888888888889,0.7377777777777778,0.4375,1.981401798115545,0.5335363564698374
1588960024.8762357,0.96,-2.22,-9.687924451993853,-0.5788888888888889,0.08888888888888889,0.7377777777777778,0.24881956240394726,0.09315346194289398,-0.014152612634473816
1588960024.8862357,0.9366199393241971,-2.202464954493148,-9.656619939324198,-0.5788888888888889,0.08888888888888889,0.7377777777777778,0.08846865519405796,-1.6113463097604352,-0.33362537922376817
1588960024.8962357,1.0122064287820702,-1.9850968249287329,-9.552916150594712,-0.5788888888888889,0.08205878305317998,0.7229792151337419,0.0625,-2.696693453258626,-0.6295967266293129
1588960024.9062357,1.0620691436372358,-1.8405744751503523,-9.488965428181382,-0.5788888888888889,0.07555555555555556,0.7088888888888889,0.10201130871121278,-2.35129644319817,-1.721260100357894
1588960024.9162357,1.016120539965272,-1.9595479751302303,-9.553728785078137,-0.5788888888888889,0.07555555555555556,0.7088888888888889,0.125,-1.1539552176104855,-3.6305312832577155
1588960024.9262357,0.9919695475523648,-2.0561370360143583,-9.59,-0.5788888888888889,0.07555555555555556,0.7088888888888889,0.20028549169658,-0.65009516389886,-5.29025975306694
1588960024.9362357,0.9245620743219023,-2.2485948141952443,-9.580760345720318,-0.5788888888888889,0.07555555555555556,0.7088888888888889,0.3125,-1.0051131158641016,-6.808108794360138
1588960024.9462357,0.8358759650462374,-2.4871969118520405,-9.594124034953762,-0.5687031852417447,0.0819886315432256,0.7121054268827239,0.2521899126155934,-1.6162403495376263,-7.282344956307797
1588960024.9562356,0.7973850733105502,-2.5868199022525995,-9.62,-0.5577777777777778,0.08888888888888889,0.7155555555555555,0.26634329180906186,-1.401940249145629,-6.540410373718443
1588960024.9662356,0.7662031944615276,-2.568609583384583,-9.642994675897453,-0.5577777777777778,0.08888888888888889,0.7155555555555555,0.375,0.2272737256417916,-4.7289429987172955
1588960024.9762356,0.7905200159114744,-2.4227519618124616,-9.645687990453116,-0.5577777777777778,0.08888888888888889,0.7155555555555555,0.34967499005532854,1.5776000795573717,-2.914274671825842
1588960024.9862356,0.8752240932386173,-2.259820725409106,-9.59486554405683,-0.5577777777777778,0.08888888888888889,0.7155555555555555,0.34403011654827154,1.8434698834517285,-1.1514880186793834
1588960024.9962356,0.9,-2.24,-9.566327711038305,-0.5760074963933719,0.0752165999271933,0.7155555555555555,0.3322740969947013,1.5561445819682078,-0.28319277595761033
1588960025.0062356,0.9058253802946751,-2.22834923941065,-9.589126901473374,-0.5844444444444444,0.06888888888888889,0.7155555555555555,0.16686549263312447,1.6195431342085944,-0.015774119474843362
1588960025.0162356,0.9233036698992204,-2.22,-9.64991100969766,-0.5844444444444444,0.06888888888888889,0.7155555555555555,0.1456479368701274,2.2073136527857007,0.1040739684350637
1588960025.0262356,0.9526432756529611,-2.1916959054337988,-9.64735672434704,-0.5844444444444444,0.06888888888888889,0.7155555555555555,0.36440059103875916,2.791301182077518,0.16038011820775183
1588960025.0362356,0.9880978691977351,-2.151902130802265,-9.607377663502831,-0.5844444444444444,0.06888888888888889,0.7155555555555555,0.4434441587570776,3.0059441587570777,0.046110396892694
1588960025.0462356,1.0342060133220476,-2.1017596511242775,-9.547725315570602,-0.5822031469146253,0.07964711703202117,0.7155555555555555,0.40021459721046626,2.660139430684871,-0.3771459721046627
1588960025.0562356,1.063433103448276,-2.073133793103448,-9.506566896551725,-0.5788888888888889,0.09555555555555556,0.7155555555555555,0.3964568965517241,1.942176724137931,-1.1399094827586207
1588960025.0662355,1.0453222280062469,-2.1187110879750133,-9.562099947943778,-0.5788888888888889,0.09555555555555556,0.7155555555555555,0.2540278500780843,0.8739588755856325,-2.4052771993753255
1588960025.0762355,0.9868582858790456,-2.2344741584372523,-9.592286095293016,-0.5788888888888889,0.09555555555555556,0.7155555555555555,0.15059603186044834,-0.3999833309305846,-3.7124833309305845
1588960025.0862355,0.9252798997615295,-2.3061800250596174,-9.586180025059617,-0.5788888888888889,0.09555555555555556,0.7155555555555555,0.047749686754779516,-1.4782521927165435,-4.5976264096034924
1588960025.0962355,0.91,-2.31,-9.575848790074929,-0.5788888888888889,0.09555555555555556,0.7210588038597497,0.044222531015845716,-1.4587197518732342,-4.724054937968309
1588960025.1062355,0.91,-2.2839310483465676,-9.583034475826716,-0.5788888888888889,0.09555555555555556,0.7233333333333334,0.18469821087546487,-0.45711252387174595,-4.4023708412905815
1588960025.1162355,0.935349328116151,-2.227751119806415,-9.615349328116151,-0.5788888888888889,0.09555555555555556,0.7233333333333334,0.25,0.4752999021778304,-4.038755599032076
1588960025.1262355,0.9765484698914116,-2.166725765054294,-9.620531885488647,-0.5788888888888889,0.09555555555555556,0.7233333333333334,0.3318558736426456,1.534279368213228,-3.7090720631786773
1588960025.1362355,0.9806425499145395,-2.145963824871809,-9.56467872504273,-0.5788888888888889,0.09555555555555556,0.7233333333333334,0.5584840630341278,2.5504521891023835,-3.888178283653575
1588960025.1462355,1.000304109711029,-2.1057567122311767,-9.539695890288971,-0.5748483409274183,0.0868010349723694,0.7273738812948038,0.7007602742775725,3.05304109711029,-4.528421234249076
1588960025.1562355,1.0412890775762254,-2.061614563231699,-9.562578155152451,-0.5722222222222222,0.0811111111111111,0.73,0.7943522449504696,3.1612955100990607,-5.415283674257044
1588960025.1662354,1.0300671423558312,-2.05,-9.653087144695286,-0.5722222222222222,0.0811111111111111,0.73,0.6879196397239443,2.6266785588957773,-6.351928588138963
1588960025.1762354,1.0081982425006948,-2.0322973637510424,-9.672297363751042,-0.5722222222222222,0.0811111111111111,0.73,0.36683655470270043,1.7849121250347437,-7.203826890594599
1588960025.1862354,0.995349535382416,-1.9641944245889922,-9.63674767691208,-0.5722222222222222,0.0811111111111111,0.73,0.1875,0.8227573266619014,-7.911284846318799
1588960025.1962354,1.0138303474155672,-1.8857017915506598,-9.567105374651979,-0.5812247979125476,0.0811111111111111,0.7199382977578717,-0.08059140842513013,-0.9146535679699794,-8.640167276964048
1588960025.2062354,1.000767210505372,-1.9223103859928372,-9.513461201750895,-0.5911111111111111,0.0811111111111111,0.7088888888888889,-0.5384699562276164,-4.250109430959013,-9.49040986868285
1588960025.2162354,0.9735930467173677,-1.95,-9.56766257954369,-0.5911111111111111,0.0811111111111111,0.7088888888888889,-0.705086916032904,-6.616347198510011,-10.15043458016452
1588960025.2262354,0.8938399380875424,-1.95,-9.529698404388501,-0.5911111111111111,0.0811111111111111,0.7088888888888889,-0.6767691712380215,-7.642038729428903,-10.33838458561901
1588960025.2362354,0.84,-1.9354026144326517,-9.475134204810885,-0.5911111111111111,0.0811111111111111,0.7088888888888889,-0.4729439003401221,-8.48322439863951,-9.947565360816293
1588960025.2462354,0.8856210436930678,-1.8417924965261696,-9.398309788482322,-0.5737316658947044,0.0811111111111111,0.718302755047776,-0.2717669252740466,-10.143326868148835,-8.992236953836652
1588960025.2562354,1.1923200180546152,-1.4359557661927331,-9.159404197698036,-0.5644444444444444,0.0811111111111111,0.7233333333333334,-0.20356578650417512,-11.244710561949898,-8.269592078537576
1588960025.2662354,1.403462760470394,-1.0137361254384154,-9.430388281411183,-0.5644444444444444,0.0811111111111111,0.7233333333333334,-0.029912832680008272,-11.595087167319992,-8.440174334639984
1588960025.2762353,1.436208157524613,-0.767588908981314,-9.567243721117139,-0.5644444444444444,0.0811111111111111,0.7233333333333334,0.2736990154711674,-10.661676210568615,-10.767161442636127
1588960025.2862353,1.5510852032698743,-0.7255494595929116,-9.411126351017721,-0.5644444444444444,0.0811111111111111,0.7233333333333334,0.5833190459208866,-11.228880918417731,-16.506353898063313
1588960025.2962353,1.6792990010334137,-0.8493782294178436,-9.304669307612816,-0.573783059670073,0.0811111111111111,0.7233333333333334,0.6291336548398209,-16.201634085428868,-25.306708577333794
1588960025.3062353,1.4226891010759635,-0.8671568726406524,-9.28918767789733,-0.5844444444444444,0.0811111111111111,0.7233333333333334,0.649218008761128,-18.654499414579,-33.40759180006864
1588960025.3162353,0.9289634618361976,-0.678039170150178,-9.272268927078496,-0.5844444444444444,0.0811111111111111,0.7233333333333334,1.0444679904009908,-12.933469770862363,-41.157302310729214
1588960025.3262353,0.7121827034306532,-0.6299288661751756,-9.332182703430654,-0.5844444444444444,0.0811111111111111,0.7233333333333334,1.687055413594848,0.7727677877725787,-45.06205541359485
1588960025.3362353,0.767273577552611,-0.68,-9.356969602494154,-0.5844444444444444,0.0811111111111111,0.7233333333333334,2.0757599376461418,12.501997272018706,-45.29924006235386
1588960025.3462353,0.8533987146713811,-0.6940392288028286,-9.354679742934275,-0.5693652727673322,0.06967173949399144,0.7306129334533186,2.366993573356906,22.6696102205127,-45.6807194734453
1588960025.3562353,0.8963877165704132,-0.7373128609506886,-9.33268713904931,-0.5522222222222222,0.05666666666666665,0.7388888888888889,2.636564304753443,25.49421784762328,-47.64400197134607
1588960025.3662353,0.9505822142711565,-0.788987295907969,-9.362177132634345,-0.5522222222222222,0.05666666666666665,0.7388888888888889,2.8224682397699223,22.97357984782264,-50.67040835390294
1588960025.3762352,1.001763610981852,-0.804559097254537,-9.383677291763611,-0.5522222222222222,0.05666666666666665,0.7388888888888889,2.9430112843182874,17.548896288971616,-53.694770823638905
1588960025.3862352,1.0375367834582336,-0.8087683917291169,-9.356847412406324,-0.5522222222222222,0.05666666666666665,0.7388888888888889,3.10960489661396,11.787278808804489,-56.29555508690705
1588960025.3962352,1.1491431759018222,-0.9140955745630346,-9.344952398661212,-0.5582751539192595,0.03960840461137969,0.734486756745589,3.219047508367423,6.393445518780215,-59.05119468203793
1588960025.4062352,1.2515978169776996,-1.1201792612881467,-9.396391267910799,-0.5644444444444444,0.022222222222222227,0.73,3.2237431780553116,4.944904492774359,-61.22856580749341
1588960025.4162352,1.2545965745465568,-1.2,-9.473227403627545,-0.5644444444444444,0.022222222222222227,0.73,3.25,7.81158427221745,-62.68047099984843
1588960025.4262352,1.240893507688768,-1.136254553821375,-9.491787015377536,-0.5644444444444444,0.022222222222222227,0.73,3.335373365417801,12.527158751006635,-63.76782461556161
1588960025.4362352,1.2370187446527183,-0.9898125534728164,-9.431396904410049,-0.5644444444444444,0.022222222222222227,0.73,3.4813671540794897,16.765546006066735,-64.7073043867154
1588960025.4462352,1.2736409395973154,-0.8667545541706615,-9.36337727708533,-0.5734505166719932,0.024848993288590606,0.7228701928198572,3.6891478906999042,19.128295781399807,-65.9229835810163
1588960025.4562352,1.326735655973324,-0.878316086006669,-9.366632172013338,-0.5911111111111111,0.03,0.7088888888888889,3.9901223122915948,19.446084138208576,-67.22230726112453
1588960025.4662352,1.3588869725192596,-0.8702782568701851,-9.35055651374037,-0.5911111111111111,0.03,0.7088888888888889,4.241304472806715,18.59206479245717,-68.88010952052431
1588960025.4762352,1.4148912883254716,-0.9724021594929245,-9.39253261350236,-0.5911111111111111,0.03,0.7088888888888889,4.46861411040684,17.81304355837264,-71.99782576650944
1588960025.4862351,1.4930368344860865,-1.043796043107608,-9.37,-0.5911111111111111,0.03,0.7088888888888889,4.56724505388451,17.449362634711274,-73.620998874055
1588960025.4962351,1.5792137540422113,-1.126179368936683,-9.365393122978894,-0.5957179881322168,0.019506557896370565,0.7155432668082636,4.71629298138191,18.081119285891965,-77.20577366487439
1588960025.5062351,1.6086950914194675,-1.0832622714513316,-9.357176997192928,-0.6111111111111112,-0.015555555555555557,0.7377777777777778,4.8125,19.1875,-78.9375
1588960025.516235,1.6124904453630762,-1.1479923562904608,-9.473494267217847,-0.6111111111111112,-0.015555555555555557,0.7377777777777778,5.149856680446143,18.990708603073085,-80.7367356290461
1588960025.526235,1.6597848336268861,-1.2343007092873803,-9.485053791593279,-0.6111111111111112,-0.015555555555555557,0.7377777777777778,5.59341380254201,18.317206764411864,-83.46303464321417
1588960025.536235,1.6960353070981977,-1.2879735196763515,-9.451938212578154,-0.6111111111111112,-0.015555555555555557,0.7377777777777778,5.625,16.797627804339832,-84.50110334681868
1588960025.546235,1.759812973328943,-1.2627612775765558,-9.384664471517945,-0.6183498335345553,-0.022794277978999744,0.7297347528628397,5.69286302271979,14.531490780375371,-85.72504115903853
1588960025.556235,1.8443188019544388,-1.2404541320303741,-9.359091735939252,-0.6311111111111111,-0.03555555555555556,0.7155555555555555,5.872161674810162,13.524154187025404,-86.89063921145589
1588960025.566235,1.8731987744159326,-1.2519979573598876,-9.410797140303842,-0.6311111111111111,-0.03555555555555556,0.7155555555555555,5.96499744669986,14.539920847695647,-87.3874872334993
1588960025.576235,1.89,-1.2707051609606541,-9.41746806336229,-0.6311111111111111,-0.03555555555555556,0.7155555555555555,6.087139115993868,16.14783469596321,-87.67868548799183
1588960025.586235,1.9054620702821377,-1.2574229882863104,-9.37484597657262,-0.6311111111111111,-0.03555555555555556,0.7155555555555555,6.12307470715776,16.572830444683838,-87.69975573752608
1588960025.596235,1.9397792262692102,-1.2517034622884649,-9.36340692457693,-0.6311111111111111,-0.03555555555555556,0.7155555555555555,5.9800865572116235,16.179613032331964,-87.44952647512034
1588960025.606235,2.02036157525443,-1.2789152742367096,-9.321807876272151,-0.6222222222222222,-0.06888888888888889,0.73,6.055720463979435,14.863700773299058,-87.30572046397944
1588960025.616235,2.029199308877136,-1.2524020733685919,-9.365996544385679,-0.6222222222222222,-0.06888888888888889,0.73,5.890012958553699,14.587521597589499,-87.1400129585537
1588960025.626235,2.098419133172099,-1.254742600483704,-9.480514799032592,-0.6222222222222222,-0.06888888888888889,0.73,5.832260835348766,15.309510441859572,-86.47679373488425
1588960025.636235,2.0903683442742524,-1.278894967177243,-9.432210065645513,-0.6222222222222222,-0.06888888888888889,0.73,5.932895696571846,16.567446207148066,-85.72203227571116
1588960025.646235,2.084542222740253,-1.205457777259747,-9.367728888629875,-0.6242674074505766,-0.0757061729834036,0.7289774073858228,6.0241527769683545,17.779131942420886,-83.57245833090506
1588960025.656235,2.2149087942187773,-1.0750912057812227,-9.302545602890612,-0.6351312884071203,-0.11191910950521591,0.723545466907551,5.820455009033161,17.269887522582902,-82.96136502709948
1588960025.666235,2.298990296495957,-1.2,-9.390977358490565,-0.6355555555555555,-0.11333333333333333,0.7233333333333334,6.049878706199461,16.762216981132074,-82.77524258760108
1588960025.676235,2.314631042337033,-1.1935572508044396,-9.43677862540222,-0.6355555555555555,-0.11333333333333333,0.7233333333333334,6.292366408763875,17.42197837955096,-82.08222007303229
1588960025.686235,2.3180144705718657,-1.1820126617503826,-9.385992764714068,-0.6355555555555555,-0.11333333333333333,0.7233333333333334,6.106244347432865,17.531165211492972,-80.06856346528454
1588960025.696235,2.437797684990641,-1.2838988424953204,-9.331299614165108,-0.6358443587033571,-0.11542715615489424,0.7239109396289364,6.050316117202124,16.927796825457463,-78.43411916949994
1588960025.706235,2.521526943318895,-1.2911890456895347,-9.35,-0.64,-0.14555555555555555,0.7322222222222222,5.798732883889898,18.246792184807415,-74.72144986260537
1588960025.716235,2.4762378635231763,-1.22,-9.353762136476822,-0.64,-0.14555555555555555,0.7322222222222222,5.616959941059557,18.780339764238228,-72.08980564503233
1588960025.726235,2.460996801705757,-1.2019936034115137,-9.329989339019189,-0.64,-0.14555555555555555,0.7322222222222222,5.349946695095949,17.468450159914713,-68.07429371002132
1588960025.736235,2.456343648208469,-1.1690798045602606,-9.256368078175896,-0.64,-0.14555555555555555,0.7322222222222222,4.92055171009772,14.64876832247557,-62.65436685667753
1588960025.746235,2.5677443641277535,-1.2216136505008472,-9.253065356813453,-0.6417743077154072,-0.15039457659757524,0.7365773411600399,4.526207342184852,10.313475955041719,-58.67134177731065
1588960025.756235,2.79,-1.2920965692503177,-9.336988564167726,-0.6522222222222223,-0.17888888888888888,0.7622222222222222,4.286292884371029,7.31821791613723,-55.790343074968234
1588960025.7662349,2.779910967219749,-1.296458923512748,-9.41991096721975,-0.6522222222222223,-0.17888888888888888,0.7622222222222222,3.8954623634156214,6.814725819506273,-51.528682719546744
1588960025.7762349,2.7533040773247417,-1.247768025774914,-9.404463948450173,-0.6522222222222223,-0.17888888888888888,0.7622222222222222,3.7567006443728475,7.521747583601822,-47.70431063215198
1588960025.7862349,2.7333334391416826,-1.2411111463805609,-9.417777707238878,-0.6522222222222223,-0.17888888888888888,0.7622222222222222,3.590278659514022,8.145830026822416,-44.95834788198137
1588960025.7962348,2.7141105310072584,-1.2297631478415891,-9.345810518273272,-0.6504304087609831,-0.18000877230216336,0.7604304087609831,3.349309181204635,8.708749840825162,-37.81621673245893
1588960025.8062348,2.838700983887067,-1.14091544274918,-9.267175245971767,-0.6433333333333333,-0.18444444444444444,0.7533333333333333,2.785309425352916,5.996675816341081,-32.15126372451162
1588960025.8162348,2.9558420252742907,-1.1635937792767472,-9.328315949451419,-0.6433333333333333,-0.18444444444444444,0.7533333333333333,2.324435804551038,4.4375,-29.33214014323486
1588960025.8262348,2.916055553797969,-1.0406428548831028,-9.42394444620203,-0.6433333333333333,-0.18444444444444444,0.7533333333333333,2.1106646841089565,4.459002973836566,-27.24397323547091
1588960025.8362348,3.0188895820336867,-1.1736119775421086,-9.286805988771055,-0.6433333333333333,-0.18444444444444444,0.7533333333333333,2.0,5.0867903930131,-25.172762008733624
1588960025.8462348,2.9388450184501846,-1.076830258302583,-9.238918819188193,-0.6412066420664206,-0.18422058220582205,0.7604969249692497,1.9874077490774908,6.223892988929889,-23.417689114391145
1588960025.8562348,2.819324434848039,-0.9343726895017502,-9.184565708116597,-0.6222222222222222,-0.18222222222222226,0.8244444444444444,1.7976289789642426,4.348877056956849,-21.660773873785455
1588960025.8662348,3.0114276834494715,-1.112754277488795,-9.30806065364609,-0.6222222222222222,-0.18222222222222226,0.8244444444444444,1.583228031864429,2.8909506166781167,-20.374368191186573
1588960025.8762348,2.924144420301102,-1.0343725748874748,-9.282015171503957,-0.6222222222222222,-0.18222222222222226,0.8244444444444444,1.7191064915412075,3.5933935084587927,-18.004990881576905
1588960025.8862348,3.1530436469447136,-1.196956353055286,-9.403912706110573,-0.6222222222222222,-0.18222222222222226,0.8244444444444444,1.6297556983511154,3.820659553831232,-16.497272065955382
1588960025.8962348,3.1676835255497777,-1.1521892339424222,-9.31884176277489,-0.616023201541605,-0.18085843767248644,0.8294036609889383,1.6875,5.50026508439125,-13.992230848560556
1588960025.9062347,2.9873251241965484,-1.1194236338379677,-9.187201987144775,-0.5666666666666667,-0.17,0.8688888888888889,1.5871921573705647,5.180819285192946,-11.885806865538106
1588960025.9162347,3.0342712956335003,-1.2232591267000716,-9.188879980911477,-0.5666666666666667,-0.17,0.8688888888888889,1.2478913147220234,2.2591088045812455,-9.535087091386304
1588960025.9262347,3.2177203470146534,-1.3236604213749363,-9.516139826492672,-0.5666666666666667,-0.17,0.8688888888888889,0.9758739155792083,0.6961298024349347,-6.246364000874827
1588960025.9362347,3.32474119705475,-1.4536143107093387,-9.462629401472626,-0.5666666666666667,-0.17,0.8688888888888889,0.6414337592039075,2.1772219235255523,-2.854185271925348
1588960025.9462347,3.0334225065425993,-1.2434225065425997,-9.213422506542601,-0.5541174760104681,-0.1734225065425996,0.8729451929393773,0.4714791121450034,3.5201608994862847,2.0456830958612
1588960025.9562347,3.1062143645995173,-1.3216513486700485,-9.245436984070531,-0.4566666666666666,-0.2,0.9044444444444444,0.1480565486775359,0.5703769911835727,6.484849690208337
1588960025.9662347,3.2408571193325284,-1.4658461411790538,-9.273362608409265,-0.4566666666666666,-0.2,0.9044444444444444,-0.125,-1.2030220798111757,10.021702437150072
1588960025.9762347,3.31121203795676,-1.484825961071074,-9.405544307542744,-0.4566666666666666,-0.2,0.9044444444444444,-0.1475870194644631,-0.4616298053553691,15.188132700720672
1588960025.9862347,3.093799302754802,-1.2865130904368036,-9.334029667099596,-0.4566666666666666,-0.2,0.9044444444444444,-0.2635689384100075,0.39967273907990974,19.078534076150113
1588960025.9962347,3.1439737849477067,-1.3725264884817827,-9.255184052225033,-0.4566666666666666,-0.2,0.9044444444444444,-0.4427635176703808,-1.7506622120445692,21.76645276505571
1588960026.0062346,3.317575873868688,-1.5463638108030318,-9.319757587386869,-0.43,-0.2977777777777777,0.8511111111111112,-1.0030301576641403,-4.356819054015158,26.401889651092137
1588960026.0162346,3.1826573026826184,-1.362657302682618,-9.314667837164674,-0.43,-0.2977777777777777,0.8511111111111112,-1.1833479645584093,-3.8875658405128415,30.612653627863295
1588960026.0262346,3.091881131131131,-1.2663843843843843,-9.326701951951952,-0.43,-0.2977777777777777,0.8511111111111112,-1.436838400900901,-5.18973973973974,32.77616053553554
1588960026.0362346,3.3634730791987155,-1.4907784633589722,-9.297305384160257,-0.43,-0.2977777777777777,0.8511111111111112,-1.929079325500803,-8.556324486518468,34.18525483898233
1588960026.0462346,3.4395901286233,-1.55601975506185,-9.276325927749399,-0.4335379955005778,-0.3005673511532333,0.8486617296107112,-1.8807407378915626,-7.2072531386546865,35.42858022032125
1588960026.0562346,3.128804457953394,-1.448804457953394,-9.148247213779129,-0.5455555555555556,-0.3888888888888889,0.7711111111111111,-2.1212639311043566,-4.139437689969605,37.75671225937183
1588960026.0662346,3.2337759246541746,-1.5490856470126557,-9.16784675757873,-0.5455555555555556,-0.3888888888888889,0.7711111111111111,-2.3418142352594917,-5.332227999607574,39.91021411753164
1588960026.0762346,3.4642093593642698,-1.7548297851466692,-9.47234808201707,-0.5455555555555556,-0.3888888888888889,0.7711111111111111,-2.496122338860002,-7.081053173746689,40.42457446286667
1588960026.0862346,3.448014645092713,-1.8900122042439274,-9.39561513326247,-0.5455555555555556,-0.3888888888888889,0.7711111111111111,-2.639996948939018,-5.950061021219637,41.45995728514625
1588960026.0962346,3.2441224811083127,-1.7199272670025187,-9.188317695214106,-0.5509161069129583,-0.4004257276798209,0.7658670934788693,-2.6743899559193953,-5.190095639168765,42.20366026448363
1588960026.1062346,3.4256276150627616,-1.8802510460251045,-9.395878661087865,-0.5966666666666667,-0.4988888888888889,0.7211111111111111,-2.6691291841004183,-7.2237839958159,42.96639644351465
1588960026.1162345,3.350026409155174,-1.850040814148905,-9.29004801664577,-0.5966666666666667,-0.4988888888888889,0.7211111111111111,-3.0,-8.499834942780163,43.250150052018036
1588960026.1262345,3.451295872118524,-2.02,-9.48020785613334,-0.5966666666666667,-0.4988888888888889,0.7211111111111111,-2.993199900092597,-7.628897302500122,43.8886001998148
1588960026.1362345,3.341091528610034,-2.004226295382446,-9.38317471507461,-0.5966666666666667,-0.4988888888888889,0.7211111111111111,-2.963789507695923,-6.269592292327576,44.046006638467865
1588960026.1462345,3.037192456820585,-1.8810239689813184,-9.25175890024674,-0.5966666666666667,-0.4988888888888889,0.7211111111111111,-3.1691267183644696,-7.398946951004582,44.40534675713782
1588960026.1562345,3.2258124258278036,-2.0218941280692664,-9.427298042689756,-0.5455555555555556,-0.4388888888888889,0.6577777777777778,-3.5304085112073142,-10.6342851053872,46.51775745064937
1588960026.1662345,3.316951710766042,-2.148086984137597,-9.469362328045866,-0.5455555555555556,-0.4388888888888889,0.6577777777777778,-3.7056763668577735,-10.327566357998897,47.70081547628997
1588960026.1762345,2.9762165753197145,-1.8990541438299284,-9.46905414382993,-0.5455555555555556,-0.4388888888888889,0.6577777777777778,-3.8243232021258926,-7.157085617007142,50.26687842551071
1588960026.1862345,2.888429413589823,-1.8632596959354637,-9.43134967421657,-0.5455555555555556,-0.4388888888888889,0.6577777777777778,-3.985250542972386,-8.695194694384114,51.9831290722929
1588960026.1962345,2.674909658281003,-1.758182763801672,-9.314364140694225,-0.5448888118383823,-0.43531271804223226,0.6550501898438871,-4.20795690950418,-11.55911218553762,53.59205609276881
1588960026.2062345,2.747623569749971,-1.8793726162499518,-9.378998728666641,-0.5350140831203742,-0.38234826400928035,0.6146535723611272,-4.510931540624879,-14.285883865623916,54.95544193281196
1588960026.2162344,2.909266096619119,-2.0005754984632356,-9.463035897233825,-0.5333333333333333,-0.37333333333333335,0.6077777777777778,-4.5625,-13.934529907794152,58.33444444991725
1588960026.2262344,2.8163575856793965,-1.9587858618931322,-9.391214138106868,-0.5333333333333333,-0.37333333333333335,0.6077777777777778,-4.5599705456106925,-11.45446982099246,60.34158872547704
1588960026.2362344,2.648032310495986,-1.9223119735999605,-9.456247352607988,-0.5333333333333333,-0.37333333333333335,0.6077777777777778,-4.46538996699995,-9.3057799339999,61.844825887799836
1588960026.2462344,2.710007880608777,-2.0944663350243804,-9.504450573806826,-0.5333333333333333,-0.37333333333333335,0.6077777777777778,-4.680582918780476,-9.736165837560952,62.57648192385362
1588960026.2562344,2.731931409007733,-2.2490342954961338,-9.4585514432442,-0.5577777777777778,-0.2933333333333333,0.6077777777777778,-4.9495713062983295,-10.086642612596659,65.35562393011038
1588960026.2662344,2.7649424473171598,-2.2325287763414203,-9.43379316451213,-0.5577777777777778,-0.2933333333333333,0.6077777777777778,-5.155890295732247,-10.499280591464494,67.16091508765716
1588960026.2762344,2.7356563830840845,-2.1301859463206894,-9.553391601465782,-0.5577777777777778,-0.2933333333333333,0.6077777777777778,-5.37971829503813,-11.771267146182034,67.99528170496187
1588960026.2862344,2.549870529896593,-2.0115583800159085,-9.359350280095452,-0.5577777777777778,-0.2933333333333333,0.6077777777777778,-5.4423699375497145,-13.796257002386312,67.97158956284801
1588960026.2962344,2.45758982517305,-2.025755411511838,-9.444532469071031,-0.5577777777777778,-0.2933333333333333,0.6077777777777778,-5.486735660974495,-15.925811726775772,68.28214962682146
1588960026.3062344,2.213604325596494,-1.5526558188605746,-9.312086714819023,-0.5777777777777777,-0.2222222222222222,0.6,-5.623814366580101,-19.356368436536275,68.9410569002597
1588960026.3162344,2.3752901314721635,-1.671792728453173,-9.40569428664178,-0.5777777777777777,-0.2222222222222222,0.6,-5.570628246226262,-21.324254889628307,69.10061526132121
1588960026.3262343,2.3393752966154615,-1.6732691395029349,-9.531827151242663,-0.5777777777777777,-0.2222222222222222,0.6,-5.224459847633321,-18.949829836393157,68.47566348195329
1588960026.3362343,2.218935929828886,-1.7259610525667097,-9.44532035085557,-0.5777777777777777,-0.2222222222222222,0.6,-4.924199122861075,-14.555778948665804,67.45344693001377
1588960026.3462343,2.210320042727142,-1.85519935909287,-9.48839978636429,-0.5777777777777777,-0.2222222222222222,0.6,-4.8165005340892755,-11.9710128181426,67.07650186931247
1588960026.3562343,2.1155211135805354,-1.708833781728857,-9.395521113580536,-0.5977233204663314,-0.17183348279850796,0.6136469502605892,-4.5763027839513395,-8.863485495379576,67.12154930401216
1588960026.3662343,2.063786394176932,-1.8302911534154536,-9.385145576707727,-0.5988888888888889,-0.1688888888888889,0.6144444444444445,-4.634465985442329,-7.570994890817469,66.73580102183651
1588960026.3762343,2.1004806480963043,-2.123845184770437,-9.531922592385218,-0.5988888888888889,-0.1688888888888889,0.6144444444444445,-4.7262016202407615,-8.259012151805711,66.59819756963886
1588960026.3862343,2.097767866339795,-2.15,-9.50955357326796,-0.5988888888888889,-0.1688888888888889,0.6144444444444445,-4.869419665849488,-9.390624678107168,66.35825899754846
1588960026.3962343,2.05456418285573,-2.15,-9.500912836571146,-0.5988888888888889,-0.1688888888888889,0.6144444444444445,-4.761410457139325,-10.902753600049444,66.03423137141797
1588960026.4062343,2.0213401763770418,-2.0942267842513616,-9.47288660787432,-0.6177777777777778,-0.12222222222222222,0.6222222222222222,-4.847938051178256,-13.241623897643487,65.06185545274927
1588960026.4162343,1.9616664506932746,-2.0697224741911797,-9.502500323960088,-0.6177777777777778,-0.12222222222222222,0.6222222222222222,-4.670138438944322,-13.47569219472161,64.59201141419378
1588960026.4262342,1.907914779703319,-2.13,-9.58,-0.6177777777777778,-0.12222222222222222,0.6222222222222222,-4.5625,-12.890582543324678,63.97914779703319
1588960026.4362342,1.8657041644023107,-2.13,-9.58,-0.6177777777777778,-0.12222222222222222,0.6222222222222222,-4.5625,-11.940843699051989,63.55704164402311
1588960026.4462342,1.7548949116276997,-1.8065997280852297,-9.434469877638353,-0.6177777777777778,-0.12222222222222222,0.6222222222222222,-4.5625,-11.45878095259322,63.60106258497336
1588960026.4562342,1.7635475888707828,-1.803804695515722,-9.413419035548314,-0.6013767343298395,-0.08792913137653315,0.62669523407166,-4.4786310278230435,-12.171755235681092,63.415327569557604
1588960026.4662342,1.78,-1.8899531451329508,-9.449971887079771,-0.5933333333333334,-0.07111111111111111,0.6288888888888889,-4.406279284291906,-12.375175705751435,62.81296854867049
1588960026.4762342,1.6976304206652717,-1.8929316689515838,-9.497650624143157,-0.5933333333333334,-0.07111111111111111,0.6288888888888889,-4.375,-10.863703189263294,61.650601594631645
1588960026.4862342,1.639474538916599,-1.9128900359587053,-9.5,-0.5933333333333334,-0.07111111111111111,0.6288888888888889,-4.310857934114372,-8.766420658856282,59.95566422108804
1588960026.4962342,1.6232571627421413,-2.0020856049182227,-9.5,-0.5933333333333334,-0.07111111111111111,0.6288888888888889,-4.260178633569192,-9.273213664308084,58.58732310636817
1588960026.5062342,1.5809631398124964,-1.9419262796249928,-9.493493856635416,-0.5853813803321752,-0.05376139547222061,0.6332263177986115,-4.209336603971351,-9.537653584114599,57.49923207942701
1588960026.5162342,1.5026675180588258,-1.880889172686275,-9.537777068284312,-0.5811111111111111,-0.04444444444444445,0.6355555555555555,-4.247221335355389,-9.983328012132338,55.56946661611526
1588960026.5262341,1.43835581278309,-1.852602583459151,-9.560548062405637,-0.5811111111111111,-0.04444444444444445,0.6355555555555555,-4.25,-10.0,54.42978841637309
1588960026.5362341,1.4181170492377781,-1.8156488522866656,-9.52129770457333,-0.5811111111111111,-0.04444444444444445,0.6355555555555555,-4.09780532679166,-9.949268442263886,53.32872130716664
1588960026.5462341,1.3662657430730478,-1.6795025188916877,-9.463942065491183,-0.5811111111111111,-0.04444444444444445,0.6355555555555555,-4.0625,-9.98547701511335,52.275936712846345
1588960026.5562341,1.3688531560013082,-1.622675969330281,-9.421529125331588,-0.59,-0.031111111111111114,0.6433333333333333,-3.747610741669392,-10.730885933355136,50.58438260837966
1588960026.566234,1.345990951706094,-1.6760211126857807,-9.452012064391875,-0.59,-0.031111111111111114,0.6433333333333333,-3.6999811493876957,-10.349849195101566,49.77467953959083
1588960026.576234,1.3131823826714801,-1.5916687364620938,-9.522574440433212,-0.59,-0.031111111111111114,0.6433333333333333,-3.6875,-9.020859205776173,47.998138989169675
1588960026.586234,1.278853259542606,-1.611146740457394,-9.467706519085212,-0.59,-0.031111111111111114,0.6433333333333333,-3.6875,-8.144998270529829,46.54716366891837
1588960026.596234,1.2395224546859287,-1.6961938632851783,-9.434761227342964,-0.59,-0.031111111111111114,0.6433333333333333,-3.5446365063402907,-7.889878835446764,44.99697088616909
1588960026.606234,1.2101581830491783,-1.6803163660983567,-9.410158183049179,-0.5646465672295056,0.0008562606429904952,0.6708914124316968,-3.3759886440573643,-7.812994322028683,43.322880762602324
1588960026.616234,1.1807405067733556,-1.6214810135467117,-9.47827215086217,-0.5644444444444444,0.0011111111111111113,0.6711111111111111,-3.131170889777965,-7.8734572775555085,42.154311726445336
1588960026.626234,1.0852246071113996,-1.7242529321774605,-9.5747753928886,-0.5644444444444444,0.0011111111111111113,0.6711111111111111,-3.184234620555375,-9.00045779055213,40.76260372722637
1588960026.636234,1.0520775291965667,-1.7858449416068665,-9.524155058393132,-0.5644444444444444,0.0011111111111111113,0.6711111111111111,-3.1875,-9.935077212607288,40.04761004408799
1588960026.646234,1.0423395811230305,-1.8512833510157571,-9.51233958112303,-0.5644444444444444,0.0011111111111111113,0.6711111111111111,-3.0917447640378795,-9.616979056151518,39.90424476403788
1588960026.656234,0.97,-1.93,-9.48,-0.5733333333333334,0.04,0.6711111111111111,-3.0,-8.0,40.0
1588960026.666234,0.97,-1.93,-9.48,-0.5733333333333334,0.04,0.6711111111111111,-3.0,-8.0,40.0
1588960026.676234,0.9213641902154863,-2.048115538048105,-9.570323646742668,-0.5733333333333334,0.04,0.6711111111111111,-3.0434248301647444,-6.523555774398691,40.738222112800656
1588960026.686234,0.8912104324565314,-2.073631297369594,-9.583631297369594,-0.5733333333333334,0.04,0.6711111111111111,-2.952630405706643,-6.094739188586714,41.77665236290682
1588960026.696234,0.8843775888380205,-2.1655809897536518,-9.56875517767604,-0.5733333333333334,0.04,0.6711111111111111,-3.0780602790494878,-6.511540767386091,42.331820906910835
1588960026.706234,0.8648371238030096,-2.2753800444596446,-9.56,-0.5778260373917009,0.05010858413132695,0.6750422271621827,-3.1243213491792066,-7.254750555745554,43.09816123033516
1588960026.716234,0.8322680171633731,-2.3809279313465077,-9.542268017163373,-0.5822222222222222,0.06,0.6788888888888889,-3.117912446364459,-8.297036910009048,44.10953691000905
1588960026.726234,0.8207715809893307,-2.39,-9.6599694471387,-0.5822222222222222,0.06,0.6788888888888889,-3.125,-8.778743331716779,44.648920950533466
1588960026.736234,0.8335563521902597,-2.444225408761039,-9.649665471714611,-0.5822222222222222,0.06,0.6788888888888889,-3.1673636005945616,-8.685409198216316,45.068772405351055
1588960026.746234,0.8120269988998245,-2.4630067497249564,-9.612026998899825,-0.5822222222222222,0.06,0.6788888888888889,-3.231207814219024,-8.013090600933662,45.38112344265707
1588960026.756234,0.8171212650942635,-2.4171968372643415,-9.591439367452868,-0.609806482651869,0.06,0.6788888888888889,-3.035984186321706,-6.786928838447678,45.169980232902134
1588960026.766234,0.7605286865262718,-2.2995532749773617,-9.598495901924817,-0.6144444444444445,0.06,0.6788888888888889,-3.0,-6.0940061296988555,44.434707968608514
1588960026.776234,0.7588565078413745,-2.2091479372690044,-9.661995554889621,-0.6144444444444445,0.06,0.6788888888888889,-3.0553531740085904,-5.833940477974228,43.31614286784537
1588960026.786234,0.7425597460791635,-2.086638349514563,-9.5740786034354,-0.6144444444444445,0.06,0.6788888888888889,-2.7899960324869304,-6.194005554518297,41.87948095593727
1588960026.796234,0.7785736050276139,-2.139432489049705,-9.56,-0.6144444444444445,0.06,0.6788888888888889,-2.75,-6.6839530565606555,40.57850885545611
1588960026.806234,1.69,-1.85,-9.44,-0.62,0.08444444444444445,0.6622222222222223,-2.625,-8.25,36.8125
1588960026.8162339,1.69,-1.85,-9.44,-0.62,0.08444444444444445,0.6622222222222223,-2.625,-8.25,36.8125
1588960026.8262339,1.2397721814468161,-1.9580546764527642,-9.521041007339573,-0.62,0.08444444444444445,0.6622222222222223,-0.5989748165106725,-2.11564597221287,8.391868953830269
1588960026.8362339,1.2180412679425836,-2.0728179824561406,-9.567388357256778,-0.62,0.08444444444444445,0.6622222222222223,0.44287031499202556,1.71714264354067,-9.530084978070175
1588960026.8462338,1.128728957464204,-2.177790402716924,-9.573259680090564,-0.62,0.08444444444444445,0.6622222222222223,0.7241030062262845,2.100484004528207,-14.881576119997483
1588960026.8562338,0.8830424665503199,-2.53663321698662,-9.604918920884236,-0.64847876672484,0.08404890601771056,0.6701329907569,1.3877413285340314,1.8812740874054683,-28.17331115474113
1588960026.8662338,0.7621592268752876,-2.837840773124712,-9.636619420156466,-0.7,0.08333333333333333,0.6844444444444444,2.000885872066268,0.3453520478601012,-38.90587321675103
1588960026.8762338,0.8246315939854995,-2.7965263045108752,-9.666547376692025,-0.7,0.08333333333333333,0.6844444444444444,2.3389473731204684,-0.18026313439765707,-43.627631790421084
1588960026.8862338,0.9629512135436363,-2.8763962981913638,-9.718524393228183,-0.7,0.08333333333333333,0.6844444444444444,2.4825838134857956,1.3268670329914796,-47.50926008320171
1588960026.8962338,0.9931977872389723,-2.9802033191415416,-9.696802212761028,-0.7,0.08333333333333333,0.6844444444444444,2.768715425608944,5.075786703159846,-52.4869468097431
1588960026.9062338,1.2005936442700875,-3.0891024762853645,-9.664925794466239,-0.7989038107165014,0.03109540513799807,0.6482261475623453,3.14924912302551,9.164134337962098,-57.635203260892126
1588960026.9162338,1.1489975026757047,-3.0573985016054226,-9.68420049946486,-0.8577777777777778,0.0,0.6266666666666667,3.8468828041384233,14.43724134855512,-66.47416161255798
1588960026.9262338,0.975704282837811,-2.9300604059716653,-9.683128775373229,-0.8577777777777778,0.0,0.6266666666666667,4.3240063852558634,17.38153831153518,-73.63732154842455
1588960026.9362338,0.79979231033299,-2.64262959148644,-9.71391005835908,-0.8577777777777778,0.0,0.6266666666666667,4.764922330930313,19.020329128046686,-80.08391263302437
1588960026.9462337,0.7505554029124308,-2.349720924755662,-9.6243050594654,-0.8577777777777778,0.0,0.6266666666666667,4.8125,17.2387054990776,-80.47395690230404
1588960026.9562337,0.8117153732423165,-1.973138507030734,-9.527249048412973,-1.1516115987011581,-0.15936749609403672,0.419488921744419,4.6444170939633205,14.769615668942087,-76.28498261977414
1588960026.9662337,0.8865421365240596,-1.923364465868985,-9.45345786347594,-1.1855555555555557,-0.17777777777777778,0.3955555555555556,4.417055823362314,13.470793072652148,-71.28971415813032
1588960026.9762337,0.8296516182230468,-1.805683879612451,-9.53672902494331,-1.1855555555555557,-0.17777777777777778,0.3955555555555556,3.990282287157287,13.140080653473511,-66.03318581220367
1588960026.9862337,0.8812341824157766,-1.9430854560394413,-9.542345727198027,-1.1855555555555557,-0.17777777777777778,0.3955555555555556,3.8418215899753494,12.981482384963023,-61.51468518898932
1588960026.9962337,0.8865267928081688,-2.057366035959156,-9.54,-1.1855555555555557,-0.17777777777777778,0.3955555555555556,3.7002232734014067,11.618248462466527,-58.23538055792602
1588960027.0062337,0.8663793588866991,-2.1544825644532035,-9.54543096166995,-1.2740601161029108,-0.1618871862249572,0.28351682777174475,3.483298475646543,9.309815287777019,-54.72576720427945
1588960027.0162337,0.8710607982824241,-2.107675742493738,-9.591060798282424,-1.6744444444444444,-0.09,-0.22333333333333333,2.9494933476464658,4.651816791906574,-45.285307081747504
1588960027.0262337,0.8931063846799664,-2.027234038300084,-9.5606808459601,-1.6744444444444444,-0.09,-0.22333333333333333,2.3425531223763643,4.122872356374685,-37.26808434614001
1588960027.0362337,0.9168072945019053,-1.9987951369987298,-9.55120486300127,-1.6744444444444444,-0.09,-0.22333333333333333,1.7823784249682453,4.0474392124841225,-29.56549401197605
1588960027.0462337,0.9455684145134943,-1.984810528495502,-9.549621056991004,-1.6744444444444444,-0.09,-0.22333333333333333,1.303026424775096,2.6076979269723672,-22.304869946851344
1588960027.0562336,0.9855268799805833,-2.1033799199061525,-9.56127239998382,-1.5761186845192348,0.08065191987019582,0.052262426457038325,0.9561380000809029,0.7368280004854172,-15.879592502325957
1588960027.0662336,0.9674309681929396,-2.1596050332051733,-9.56371548409647,-1.4433333333333334,0.3111111111111111,0.4244444444444445,0.48394355120587207,0.2364120936735407,-7.610188745193988
1588960027.0762336,0.8799028929799717,-1.929684402184908,-9.52496358486749,-1.4433333333333334,0.3111111111111111,0.4244444444444445,-0.09443278373457414,0.8131069188751769,0.35399175601861277
1588960027.0862336,0.8527453070205597,-1.8552296637557588,-9.51,-1.4433333333333334,0.3111111111111111,0.4244444444444445,-0.5077636147974971,-0.10581981021797437,8.094012153613422
1588960027.0962336,0.9330021863612702,-1.9457505465903175,-9.520500364393545,-1.4433333333333334,0.3111111111111111,0.4244444444444445,-1.0812636647579386,-3.196927381572098,17.665791254554918
1588960027.1062336,0.9966678283901997,-1.8799860593176037,-9.489993029658802,-1.1529123634490799,0.1792362829493837,0.5822497163458373,-1.812565346948733,-5.4793264036524585,27.375936639598507
1588960027.1162336,0.9854322153991497,-1.8545677846008504,-9.47,-1.007777777777778,0.11333333333333333,0.6611111111111111,-2.1820973075106282,-5.664354038734057,35.20674893717525
1588960027.1262336,1.05040022627634,-1.698079479564418,-9.512240135765804,-1.007777777777778,0.11333333333333333,0.6611111111111111,-2.5580009899589875,-5.342499292886438,41.3490135765804
1588960027.1362336,1.002014331210191,-1.7135560737033666,-9.513288785259327,-1.007777777777778,0.11333333333333333,0.6611111111111111,-2.7919450921292084,-5.458890184258417,45.77094233393994
1588960027.1462336,0.9097552874517657,-1.758828701216236,-9.5,-1.007777777777778,0.11333333333333333,0.6611111111111111,-2.9317088360279393,-5.700611781370585,48.9335649391882
1588960027.1562335,0.8414653446002052,-1.7110257412201435,-9.5,-1.007777777777778,0.11333333333333333,0.6611111111111111,-3.059752478874615,-5.871336638499487,51.32371293899282
1588960027.1662335,0.8261487631798201,-1.569236360502198,-9.479229752635964,-0.7688888888888888,0.06555555555555556,0.6966666666666667,-3.701900838911713,-7.7018182405837905,59.41314067572615
1588960027.1762335,0.9090878314839195,-1.5051520280860133,-9.49,-0.7688888888888888,0.06555555555555556,0.6966666666666667,-4.2404982446241615,-9.933593505109398,65.47888455269262
1588960027.1862335,0.9465325323055996,-1.6045205168895942,-9.519396395375198,-0.7688888888888888,0.06555555555555556,0.6966666666666667,-4.5625,-11.574111596009976,69.61900646111992
1588960027.1962335,0.96,-1.7812678461643556,-9.541267846164356,-0.7688888888888888,0.06555555555555556,0.6966666666666667,-4.643191987157593,-12.76897329052531,72.54112729694651
1588960027.2062335,1.0057157426293344,-1.6575829779343594,-9.424616169108104,-0.7384117271359993,0.07415167810124235,0.714249644601026,-4.915521277582051,-13.596148943074356,73.94644678286667
1588960027.2162335,1.0696289208213048,-1.723951798631159,-9.485844172694541,-0.6822222222222222,0.09,0.7466666666666667,-4.917439748288949,-13.595431655259658,74.92926708618509
1588960027.2262335,0.9369458051774546,-1.9275752705868685,-9.561018064940848,-0.6822222222222222,0.09,0.7466666666666667,-4.90924327647298,-14.584393817646717,74.22772982941893
1588960027.2362335,0.7788376739458095,-2.0958803322934556,-9.594119667706543,-0.6822222222222222,0.09,0.7466666666666667,-4.606623961582951,-14.36773546216131,72.80534280907148
1588960027.2462335,0.7003139995341253,-2.1150784998835315,-9.600313999534125,-0.6822222222222222,0.09,0.7466666666666667,-4.499018751455858,-13.33737188446308,71.12009375727929
1588960027.2562335,0.74217113438665,-2.0091443280667494,-9.516534706195634,-0.6247415034420183,0.1113499812612186,0.7409185947886463,-4.668449316527605,-14.461765489082195,71.73629726611043
1588960027.2662334,0.7187535397012896,-1.9837484425314325,-9.504997168238969,-0.6044444444444445,0.11888888888888888,0.7388888888888889,-4.718753539701289,-15.523378210003399,71.8906444683571
1588960027.2762334,0.5490784640528164,-2.0584054758167607,-9.640737228757747,-0.6044444444444445,0.11888888888888888,0.7388888888888889,-4.549078464052816,-18.365435727115326,70.95743155229049
1588960027.2862334,0.44849516240497583,-2.1830096751900485,-9.643946613683482,-0.6044444444444445,0.11888888888888888,0.7388888888888889,-4.371237906012439,-19.79911994644091,70.91283366447823
1588960027.2962334,0.4203460918023171,-2.2759307816395364,-9.61,-0.6044444444444445,0.11888888888888888,0.7388888888888889,-4.275432614752896,-20.247836926235518,71.32846091802317
1588960027.3062334,0.41125395763656636,-2.2603134894091417,-9.566410702341136,-0.57000351789917,0.12373214418431809,0.7491135389570173,-4.251959308807135,-19.275471014492755,71.65527034559643
1588960027.3162334,0.386930621794295,-2.2217822970095087,-9.58772248717718,-0.5333333333333333,0.1288888888888889,0.76,-4.011139356309427,-18.084778712618856,71.40532297009509
1588960027.3262334,0.4,-2.057602230902974,-9.652382414704089,-0.5333333333333333,0.1288888888888889,0.76,-3.7976099080994423,-17.309464402646373,69.98795357554135
1588960027.3362334,0.3525207100591716,-2.011544378698225,-9.618455621301775,-0.5333333333333333,0.1288888888888889,0.76,-3.824186390532544,-15.256619822485208,68.47104289940829
1588960027.3462334,0.29526761463492573,-2.0894647707301486,-9.575160568780955,-0.5333333333333333,0.1288888888888889,0.76,-3.844084518293657,-12.145740134206742,67.69017614634926
1588960027.3562334,0.24584086536716399,-2.194358052923881,-9.56,-0.5212537660169153,0.1285533453523217,0.7633554353656716,-3.7558770282042904,-9.5835216341791,67.32425405640858
1588960027.3662333,0.18866257197696737,-2.326687140115163,-9.564012284069099,-0.4933333333333334,0.12777777777777774,0.7711111111111111,-3.608282149712092,-8.22929462571977,66.9538339731286
1588960027.3762333,0.18,-2.373334308428262,-9.61000585056957,-0.4933333333333334,0.12777777777777774,0.7711111111111111,-3.5208394276766355,-8.812591415149534,65.85405087414392
1588960027.3862333,0.17248241363138972,-2.3662177583242143,-9.646241206815695,-0.4933333333333334,0.12777777777777774,0.7711111111111111,-3.539007542598093,-9.539300648741598,64.81974460684695
1588960027.3962333,0.12,-2.3183439546666196,-9.609640581142866,-0.4933333333333334,0.12777777777777774,0.7711111111111111,-3.375,-10.811135188094692,62.49911844404823
1588960027.4062333,0.13620688216892596,-2.357327632950991,-9.622413764337852,-0.48950670837678145,0.133855358591125,0.7668342949832001,-3.375,-12.102909280500521,60.83135818561001
1588960027.4162333,0.2049610937228308,-2.1599221874456616,-9.769844374891322,-0.4744444444444445,0.15777777777777774,0.75,-3.747082029212311,-12.131808598504607,57.32514454007999
1588960027.4262333,0.1415644835720713,-2.1335010579051046,-9.5025708310027,-0.4744444444444445,0.15777777777777774,0.75,-3.2695560446508916,-9.852774872929789,54.06215648483669
1588960027.4362333,0.018283837756279404,-2.156050590219224,-9.431155054584185,-0.4744444444444445,0.15777777777777774,0.75,-2.5541803496937963,-8.774133531552321,51.21245895091861
1588960027.4462333,-0.022708650558795646,-2.2203338408940727,-9.881825494871721,-0.4744444444444445,0.15777777777777774,0.75,-2.9385432527939783,-9.884322837360301,49.136409342948255
1588960027.4562333,0.20361758533082958,-1.9038307743289515,-9.621492322986855,-0.464609521705512,0.16685616799833078,0.7583218577021736,-2.321827018667845,-8.320411741963989,45.849683806472996
1588960027.4662333,0.1598606975479661,-1.9827316744776158,-9.460738976204656,-0.4455555555555555,0.18444444444444444,0.7744444444444445,-2.2523093006395483,-2.4696020299836876,41.132798542243854
1588960027.4762332,-0.03336144984817083,-2.0354583795247505,-9.408556417795344,-0.4455555555555555,0.18444444444444444,0.7744444444444445,-1.734984274834916,-0.9208379524750565,35.92551332722803
1588960027.4862332,-0.07246632716196279,-1.9772714292513445,-9.628051020893817,-0.4455555555555555,0.18444444444444444,0.7744444444444445,-1.8928507686449956,-4.9075127314263955,31.939094402931797
1588960027.4962332,0.0721053363531609,-1.9229640004768147,-9.575678666507729,-0.4455555555555555,0.18444444444444444,0.7744444444444445,-1.6705333373067905,-7.70914168355386,28.70896660309135
1588960027.5062332,0.18578179772363354,-1.9313273034145497,-9.572890898861816,-0.43752528093939785,0.18797776527555382,0.7664141698282868,-1.649886939022807,-7.120004219500585,24.66682444713723
1588960027.5162332,0.1954561815727641,-2.0031482777583363,-9.609534819777034,-0.4177777777777778,0.19666666666666666,0.7466666666666667,-1.1648034044893265,-2.8811522021696745,18.66536582012698
1588960027.5262332,0.21377960234061458,-2.380803284213106,-9.713377960234062,-0.4177777777777778,0.19666666666666666,0.7466666666666667,-0.7272142397598113,1.963632777794798,9.30451923960663
1588960027.5362332,0.3369856430588094,-2.4145215354117857,-9.642662341563044,-0.4177777777777778,0.19666666666666666,0.7466666666666667,-0.055899711659758544,3.8948008650207244,-3.4557840752087463
1588960027.5462332,0.49415527610716237,-2.1753963914707493,-10.638958447238927,-0.4177777777777778,0.19666666666666666,0.7466666666666667,0.24719792236194638,7.0793124658283215,-16.031472115910333
1588960027.5562332,0.6513700918964077,-1.9386299081035923,-10.106338067390698,-0.41440886166032365,0.21098456016584674,0.7411921779758037,-1.69494917850181,9.754560011138958,-30.950170565302145
1588960027.5662332,0.6378910946311637,-1.7326980520151212,-6.500183023817885,-0.4088888888888889,0.2344444444444445,0.7322222222222222,-1.219524003800946,8.397107201140283,-44.084049453614
1588960027.5762331,0.5033838880484115,-1.337767019667171,-9.587566944024207,-0.4088888888888889,0.2344444444444445,0.7322222222222222,6.071804084720121,0.5421709531013619,-58.123534417549166
1588960027.5862331,0.13069864442127213,-1.3345509645464024,-10.146926485922837,-0.4088888888888889,0.2344444444444445,0.7322222222222222,4.5625,-30.925583697210634,-67.62668429027633
1588960027.5962331,-0.23892094517705337,-0.4917209987281612,-6.344437378673271,-0.4088888888888889,0.2344444444444445,0.7322222222222222,8.670405482294665,-45.952678392127986,-89.38342174844367
1588960027.6062331,-0.585186909426135,0.4247822078820005,-2.2124752247061537,-0.41113548948810535,0.2333211441448363,0.7374642902870605,43.29527252823231,87.81012330029961,-353.0530738649458
1588960027.616233,-2.6967014870345336,-0.7949425463930195,-10.658274241120807,-0.4155555555555556,0.2311111111111111,0.7477777777777778,0.749994239277374,102.02113225082954,-358.0595677921838
1588960027.626233,-1.9522004145900407,0.17186256781193493,-15.07539452211882,-0.4155555555555556,0.2311111111111111,0.7477777777777778,-11.357892647642569,58.692858796806775,-278.61110406651085
1588960027.636233,-0.37488352228606925,-0.24992234819071285,-7.306850442615314,-0.4155555555555556,0.2311111111111111,0.7477777777777778,11.72481654760056,37.951142452244135,-209.37483498990525
1588960027.646233,-0.15892690875232773,-0.1728026070763501,-7.757721135940409,-0.4155555555555556,0.2311111111111111,0.7477777777777778,10.283519553072626,25.7486906424581,-171.79214676443203
1588960027.656233,-1.4465866018039932,-1.6248525387655823,-9.987666970710448,-0.44743218134522483,0.195370651892391,0.735703298311994,8.432299584473498,7.502331002331003,-140.4163562886389
1588960027.666233,-3.640021976543404,-7.3458403785347475,-10.281613930437512,-0.4888888888888889,0.14888888888888888,0.72,5.641053528580719,-15.357644417285224,-83.00157115466553
1588960027.676233,-0.3101289453425715,-6.153157717474981,-10.544900644726713,-0.4888888888888889,0.14888888888888888,0.72,0.3619039886451114,-32.87571419120477,-0.793598741820631
1588960027.686233,3.125790292177191,-1.8629585296889726,-9.482730442978323,-0.4888888888888889,0.14888888888888888,0.72,-3.2600966069745523,-39.73016317153629,54.12527686145146
1588960027.696233,3.59,-1.1,-9.4,-0.4888888888888889,0.14888888888888888,0.72,-3.375,-38.4375,63.375
1588960027.706233,1.8501271093578786,-1.4907341661187814,-9.517957484111331,-0.4888888888888889,0.14888888888888888,0.72,-2.683842866535174,-24.84474304185843,50.289091606399296
1588960027.716233,1.0177729285668442,-1.7038181118028368,-9.310863872665426,-0.5247726932374901,0.09352530503676129,0.72,-0.4767064052371477,-4.948025640202809,29.823310442205248
1588960027.726233,0.7704912921952268,-1.9310083852934852,-9.545009675338637,-0.5277777777777778,0.08888888888888889,0.72,-0.8437701569554934,-3.7406270156955492,19.57466136314771
1588960027.736233,0.6396463546183295,-2.729292709236659,-9.7144146449798,-0.5277777777777778,0.08888888888888889,0.72,-0.7964939508026819,-3.440396370481609,17.53628064256858
1588960027.746233,0.755807691204726,-3.0049946947320123,-9.814149866651372,-0.5277777777777778,0.08888888888888889,0.72,-1.2342921051876918,-3.6926475438043074,19.114505964841847
1588960027.756233,0.5066772490308782,-2.8866264536826627,-9.650006349418527,-0.5188832449613093,0.09222433869506454,0.7125878893196097,-0.41669312257719554,-3.1041931225771955,18.375039683865793
1588960027.766233,0.6274212711847569,-2.5108493771234426,-9.604434046611432,-0.5011111111111111,0.09888888888888887,0.6977777777777778,-0.36340426377381735,-2.9416276747928713,17.95361705509527
1588960027.776233,0.6711592004045889,-2.1972463999574114,-9.592463999574116,-0.5011111111111111,0.09888888888888887,0.6977777777777778,-0.436594998536027,-2.511775000665442,16.36684500519045
1588960027.786233,0.5685311875373488,-2.20629376249253,-9.671818912402893,-0.5011111111111111,0.09888888888888887,0.6977777777777778,-0.805508046734942,-2.150352109048198,14.140744451771106
1588960027.796233,0.5894561598224195,-2.2369034406215316,-9.587364039955604,-0.5011111111111111,0.09888888888888887,0.6977777777777778,-0.6380757491675916,-1.8255757491675915,12.522232241953386
1588960027.806233,0.6174712836140785,-2.346761327484009,-9.573238672515991,-0.5011111111111111,0.10151829402155914,0.7097979155271276,-0.30983766451224004,-1.5818542580623556,10.61701299353672
1588960027.816233,0.6723259582299752,-2.4176740417700247,-9.577745859006162,-0.5011111111111111,0.10666666666666667,0.7333333333333333,-0.07613952348563655,-1.375,8.55725124029767
1588960027.826233,0.6172286835881305,-2.49,-9.606891473435251,-0.5011111111111111,0.10666666666666667,0.7333333333333333,-0.27153585448516326,-1.2242490186038573,6.3843506936824905
1588960027.836233,0.6290751582749519,-2.4302147379284342,-9.608042947585686,-0.5011111111111111,0.10666666666666667,0.7333333333333333,-0.3685486831920932,-0.7133052672316272,3.659269752118602
1588960027.846233,0.5779761158427499,-2.2819044633709997,-9.581011942078625,-0.5011111111111111,0.10666666666666667,0.7333333333333333,-0.468376810042967,-0.17485072401718682,1.5357086882062416
1588960027.856233,0.5651493142096974,-2.2305972568387897,-9.587425342895152,-0.5011111111111111,0.10666666666666667,0.7333333333333333,-0.2679580345265218,-0.09468321381060872,0.5736985657273048
1588960027.8662329,0.5418349553199957,-2.2463300893600087,-9.544587388299988,-0.4900102504733307,0.12382254219778188,0.7212233035466638,0.09632882312506785,-0.005734235374986435,0.017202706124959305
1588960027.8762329,0.5480931159122648,-2.25,-9.515720652263205,-0.4888888888888889,0.12555555555555556,0.72,0.2261639489033106,0.0,-0.1517459233549659
1588960027.8862329,0.557790508927719,-2.2733715267831567,-9.603314236608421,-0.4888888888888889,0.12555555555555556,0.72,-0.020713978802635348,-0.013809319201756898,-0.006904659600878449
1588960027.8962328,0.541771030268309,-2.225313090804927,-9.627343454597538,-0.4888888888888889,0.12555555555555556,0.72,-0.17089659123460327,-0.11393106082306884,-0.05696553041153442
1588960027.9062328,0.5493934642041275,-2.2518196073876178,-9.589393464204127,-0.4888888888888889,0.12440987683001854,0.7195282499365435,-0.10983660510318659,-0.125,0.12120915127579665
1588960027.9162328,0.5412734734967283,-2.276179579509815,-9.581273473496728,-0.4888888888888889,0.1090721166049311,0.7132127016085664,0.09316316258179425,-0.125,0.07045920935455144
1588960027.9262328,0.5681085718595618,-2.2781085718595615,-9.54026285024701,-0.4888888888888889,0.10666666666666667,0.7122222222222222,0.1520357223667836,0.0625,-0.011821425877738809
1588960027.9362328,0.5601998717803673,-2.2701998717803673,-9.666802051514123,-0.4888888888888889,0.10666666666666667,0.7122222222222222,0.0037475958818871113,0.0625,-0.061250801372704305
1588960027.9462328,0.5542580172255819,-2.2742580172255815,-9.592870991387208,-0.4888888888888889,0.10666666666666667,0.7122222222222222,-0.29516217702034087,0.0,0.026612607659886385
1588960027.9562328,0.541907091998369,-2.2561858160032617,-9.593325178005708,-0.48751154466784463,0.10730236399945632,0.7156126079971004,-0.5148227000407767,0.0,-0.0625
1588960027.9662328,0.5555601491019994,-2.226659776347001,-9.543319552694001,-0.4744444444444445,0.11333333333333333,0.7477777777777778,-0.020876397831243648,0.027749068112504237,-0.04862546594374788
1588960027.9762328,0.5413470010166046,-2.247979498475093,-9.585958996950186,-0.4744444444444445,0.11333333333333333,0.7477777777777778,0.11237186546933242,0.11658124364622162,-0.0042093781768891905
1588960027.9862328,0.5524925752246972,-2.262492575224697,-9.64002969910121,-0.4744444444444445,0.11333333333333333,0.7477777777777778,0.15652842907385697,-0.03134280969128566,0.00018561938257131982
1588960027.9962327,0.558908002295677,-2.2672700057391926,-9.607270005739192,-0.4744444444444445,0.11333333333333333,0.7477777777777778,-0.125,0.0625,-0.1806750143479812
1588960028.0062327,0.5458961671501031,-2.234740417875258,-9.574740417875258,-0.4744444444444445,0.11333333333333333,0.7477777777777778,-0.125,0.0625,-0.0993510446881447
1588960028.0162327,0.54,-2.228574258906209,-9.620019812343465,-0.48016061704858387,0.12381298310758893,0.7315819553993828,-0.07141088183619304,0.00891088183619304,-0.00891088183619304
1588960028.0262327,0.5650352481011507,-2.264964751898849,-9.629929503797698,-0.4811111111111111,0.12555555555555556,0.7288888888888889,0.15647030063219175,0.0,0.0625
1588960028.0362327,0.5544694283055409,-2.2732958575416884,-9.635418144319525,-0.4811111111111111,0.12555555555555556,0.7288888888888889,0.02059910963555421,0.0,0.03456607309036948
1588960028.0462327,0.5635074101591522,-2.2456716067727682,-9.552164196613617,-0.4811111111111111,0.12555555555555556,0.7288888888888889,-0.16557868650529856,0.0,-0.04897377116490048
1588960028.0562327,0.5417858168245765,-2.23,-9.559404727725141,-0.48197094884146274,0.12515870737231632,0.7283597579779033,-0.3013386448463968,-0.0037204517178677384,-0.007440903435735477
1588960028.0662327,0.5673088301984581,-2.2407646792061677,-9.555382339603085,-0.4955555555555556,0.11888888888888888,0.72,-0.09136037748072645,-0.02886037748072645,-0.14181981125963677
1588960028.0762327,0.5579394926337753,-2.2638184779013257,-9.586484058929798,-0.4955555555555556,0.11888888888888888,0.72,0.038634513116714585,0.0625,-0.1488654868832854
1588960028.0862327,0.5522705651043319,-2.2445411302086637,-9.63637660937401,-0.4955555555555556,0.11888888888888888,0.72,0.17330896809792604,0.0625,0.0
1588960028.0962327,0.5588679721515261,-2.258867972151526,-9.59,-0.4955555555555556,0.11888888888888888,0.72,0.09669930378814967,0.07665034810592516,0.0
1588960028.1062326,0.5500458532276046,-2.2500458532276046,-9.59,-0.4955555555555556,0.11888888888888888,0.72,-0.12385366930988789,0.18692683465494395,0.0
1588960028.1162326,0.5462505366755838,-2.2218747316622083,-9.56187473166221,-0.4888888888888889,0.11333333333333333,0.72,-0.25,-0.01171707288880082,0.0
1588960028.1262326,0.5323983619009875,-2.228800819049506,-9.568800819049507,-0.4888888888888889,0.11333333333333333,0.72,-0.25,-0.05500511905941412,0.0
1588960028.1362326,0.55,-2.27,-9.641649154408086,-0.4888888888888889,0.11333333333333333,0.72,0.125,0.03640360752526769,-0.0625
1588960028.1462326,0.55,-2.2642527113356112,-9.598505422671222,-0.4888888888888889,0.11333333333333333,0.72,0.11302648194919031,-0.050526481949190315,-0.0625
1588960028.1562326,0.55,-2.240885269647898,-9.551770539295797,-0.4888888888888889,0.11333333333333333,0.72,0.06434431176645372,-0.0018443117664537143,-0.0625
1588960028.1662326,0.5337469037597922,-2.248126548120104,-9.558126548120104,-0.4825682403510303,0.10159498604873878,0.7136793514621413,-0.19145462875324726,0.0,-0.011709074249350547
1588960028.1762326,0.5585251322751323,-2.2670502645502646,-9.586223544973546,-0.4811111111111111,0.09888888888888887,0.7122222222222222,-0.09734623015873016,-0.01843584656084656,-0.03484623015873016
1588960028.1862326,0.55,-2.25,-9.672351320926445,-0.4811111111111111,0.09888888888888887,0.7122222222222222,0.0625,-0.1113416445115087,0.1113416445115087
1588960028.1962326,0.5528196358316364,-2.2509398786105455,-9.607180364168363,-0.4811111111111111,0.09888888888888887,0.7122222222222222,0.056625758684090866,0.011748482631818272,-0.005874241315909136
1588960028.2062325,0.5776963682014985,-2.259232122733833,-9.582303631798501,-0.4811111111111111,0.09888888888888887,0.7122222222222222,0.0047992329135446155,0.11540153417291077,-0.057700767086455385
1588960028.2162325,0.55,-2.258685269194556,-9.551314730805444,-0.4955555555555556,0.11333333333333333,0.7333333333333333,-0.3042829324659762,-0.07071706753402379,0.05428293246597621
1588960028.2262325,0.5503620284279149,-2.249637971572085,-9.56362028427915,-0.4955555555555556,0.11333333333333333,0.7333333333333333,-0.23868661162765845,-0.12047464465106338,-0.0022626776744683126
1588960028.2362325,0.56,-2.2426127208795124,-9.652161837361463,-0.4955555555555556,0.11333333333333333,0.7333333333333333,0.07066475274847554,0.0,-0.03800574175457337
1588960028.2462325,0.5595414509835153,-2.259541450983515,-9.59908290196703,-0.4955555555555556,0.11333333333333333,0.7333333333333333,0.11926813729393963,-0.0028659313530301823,0.12213406864696982
1588960028.2562325,0.5528610336863901,-2.25286103368639,-9.58572206737278,-0.4955555555555556,0.11333333333333333,0.7333333333333333,0.035762921079875776,-0.04461853946006211,0.08038146053993789
1588960028.2662325,0.55897623058207,-2.25,-9.544095077671718,-0.5065265040447522,0.11832012810114999,0.7213650258905733,-0.11220288227587498,0.04970288227587498,0.0625
1588960028.2762325,0.5450219658478818,-2.242510982923941,-9.584934102456355,-0.5077777777777778,0.11888888888888888,0.72,-0.125,0.015693643274630402,0.015693643274630402
1588960028.2862325,0.55,-2.261524426839515,-9.667713359740727,-0.5077777777777778,0.11888888888888888,0.72,-0.0625,-0.12976383387348459,-0.009527667746969152
1588960028.2962325,0.55,-2.279308575421783,-9.634468603374264,-0.5077777777777778,0.11888888888888888,0.72,-0.04953578915843067,-0.17453578915843065,-0.11635719277228711
1588960028.3062325,0.55,-2.2709342118398723,-9.567473694718979,-0.5077777777777778,0.11888888888888888,0.72,0.10748352800239594,-0.01751647199760406,-0.011677647998402721
1588960028.3162324,0.5577987421383648,-2.2422012578616353,-9.551100628930818,-0.4888888888888889,0.09222222222222222,0.7288888888888889,0.04186320754716981,-0.06937893081761007,0.05562106918238994
1588960028.3262324,0.54,-2.25687564324348,-9.577183962160861,-0.4888888888888889,0.09222222222222222,0.7288888888888889,-0.125,-0.14452722972825016,0.009763614864125079
1588960028.3362324,0.5416319693706628,-2.2416319693706632,-9.663472122517348,-0.4888888888888889,0.09222222222222222,0.7288888888888889,-0.1097002871500359,-0.23470028715003588,0.047200287150035894
1588960028.3462324,0.5592903238656735,-2.260709676134326,-9.588580647731346,-0.4888888888888889,0.09222222222222222,0.7288888888888889,0.05806452416045891,-0.0625,-0.11169357248137673
1588960028.3562324,0.5509361430904673,-2.2690638569095327,-9.571872286180934,-0.4888888888888889,0.09222222222222222,0.7288888888888889,0.005850894315420463,-0.0625,0.044947317053738584
1588960028.3662324,0.55,-2.2488395222917705,-9.53,-0.5011111111111111,0.11333333333333333,0.72,0.10686753580891671,0.0,-0.11049402864713337
1588960028.3762324,0.55,-2.2327329979647477,-9.53,-0.5011111111111111,0.11333333333333333,0.72,-0.14479690680081408,0.0,0.09083752544065127
1588960028.3862324,0.5407001817998183,-2.25,-9.65579890920109,-0.5011111111111111,0.11333333333333333,0.72,-0.1162477275022725,-0.10311931875568124,0.049371591253408745
1588960028.3962324,0.5491132082017833,-2.2508867917982167,-9.596452832807133,-0.5011111111111111,0.11333333333333333,0.72,0.005542448738854387,0.1875,-0.11391510252229123
1588960028.4062324,0.5418372480310863,-2.2581627519689134,-9.567348992124346,-0.5011111111111111,0.11333333333333333,0.72,0.05101719980571072,0.1875,-0.02296560038857856
1588960028.4162323,0.559104354830417,-2.259402903220278,-9.541194193559443,-0.5011111111111111,0.11333333333333333,0.7333333333333333,0.053170362816843474,0.05876814512673739,-0.0625
1588960028.4262323,0.5375394608305198,-2.2450263072203467,-9.569947385559306,-0.5011111111111111,0.11333333333333333,0.7333333333333333,-0.1714639496820854,-0.031085579872834154,-0.0625
1588960028.4362323,0.5598848297413099,-2.25,-9.66965448922393,-0.5011111111111111,0.11333333333333333,0.7333333333333333,-0.31034055764956026,0.0625,-0.061780185883186754
1588960028.4462323,0.5531287651815342,-2.25,-9.649386295544602,-0.5011111111111111,0.11333333333333333,0.7333333333333333,-0.18366434715376437,0.0625,-0.019554782384588132
1588960028.4562323,0.55,-2.2422492599986232,-9.57024333998761,-0.5011111111111111,0.11333333333333333,0.7333333333333333,-0.07655787499139532,0.014057874991395332,0.04844212500860467
1588960028.4662323,0.5575906274787232,-2.26277188243617,-9.557590627478724,-0.491833677526005,0.11755034859929064,0.7333333333333333,0.07982426522605957,0.047441421742019846,-0.03238284348403969
1588960028.4762323,0.54,-2.2768921468693746,-9.52870198876575,-0.4888888888888889,0.11888888888888888,0.7333333333333333,-0.007769632826563144,-0.007769632826563144,-0.058615183586718425
1588960028.4862323,0.54,-2.2314097030948403,-9.656052831334447,-0.4888888888888889,0.11888888888888888,0.7333333333333333,-0.12147574226289877,-0.12147574226289877,-0.001762128868550615
1588960028.4962323,0.5696259740259739,-2.240249350649351,-9.619376623376622,-0.4888888888888889,0.11888888888888888,0.7333333333333333,-0.12422077922077922,-0.06327922077922078,-0.12266233766233767
1588960028.5062323,0.5444853146853147,-2.25700979020979,-9.577475524475524,-0.4888888888888889,0.11888888888888888,0.7333333333333333,-0.0718444055944056,-0.1156555944055944,0.0344667832167832
1588960028.5162323,0.5498073256111792,-2.26,-9.550385348777642,-0.4888888888888889,0.11344037466045605,0.7202568991850945,0.06009157013973873,-0.06370421493013063,0.0012042149301306343
1588960028.5262322,0.5740899007589025,-2.268029966919634,-9.582119867678538,-0.4888888888888889,0.11333333333333333,0.72,-0.03787458649542713,-0.0625,0.0
1588960028.5362322,0.5502774318096899,-2.2303699090795863,-9.659352659110723,-0.4888888888888889,0.11333333333333333,0.72,-0.1244220170631461,-0.1244220170631461,-0.061922017063146095
1588960028.5462322,0.55,-2.2459434937406684,-9.644056506259332,-0.4888888888888889,0.11333333333333333,0.72,-0.17482341793958883,-0.07517658206041117,-0.0625
1588960028.5562322,0.55,-2.25,-9.602556695049742,-0.4888888888888889,0.11333333333333333,0.72,-0.08720543316895041,-0.02906847772298346,-0.02906847772298346
1588960028.5662322,0.55,-2.255613223772215,-9.558773552455571,-0.4888888888888889,0.10959118415185681,0.727484298362953,0.07016529715268488,0.03508264857634244,0.03508264857634244
1588960028.5762322,0.5594893504161906,-2.250510649583809,-9.565617145421903,-0.4888888888888889,0.10666666666666667,0.7333333333333333,-0.24680844010119143,-0.0625,-0.009574679696425656
1588960028.5862322,0.5509323486208585,-2.2590676513791412,-9.659744165170556,-0.4888888888888889,0.10666666666666667,0.7333333333333333,-0.1933271788803656,-0.0625,-0.1700184633589032
1588960028.5962322,0.5565655358993729,-2.2403033923018816,-9.630606784603762,-0.4888888888888889,0.10666666666666667,0.7333333333333333,-0.1875,-0.18560379811324068,-0.0643962018867593
1588960028.6062322,0.5537372748629601,-2.23626272513704,-9.572423649177761,-0.4888888888888889,0.10666666666666667,0.7333333333333333,-0.1483579678935004,-0.09343187157400157,0.03914203210649961
1588960028.6162322,0.5561702541073857,-2.246170254107386,-9.537659491785229,-0.49643031057569365,0.10186758013869998,0.7251063278568189,-0.04787182365767828,0.0,-0.05319226451348259
1588960028.6262321,0.5507075670902599,-2.25,-9.53,-0.5011111111111111,0.09888888888888887,0.72,0.11615541137175106,-0.05807770568587553,-0.06692229431412447
1588960028.6362321,0.5570322501446785,-2.2289032495659646,-9.635483752170176,-0.5011111111111111,0.09888888888888887,0.72,-0.006854690212721171,0.06935469021272117,-0.01854843659575961
1588960028.6462321,0.5504343171738798,-2.22956568282612,-9.613040220217158,-0.5011111111111111,0.09888888888888887,0.72,-0.0625,-0.05435655298975378,-0.05978551766325126
1588960028.656232,0.5562646033866041,-2.223735396613396,-9.597470793226792,-0.5011111111111111,0.09888888888888887,0.72,-0.14080754233255038,-0.0625,-0.10165377116627519
1588960028.666232,0.548551647923032,-2.2371725281154524,-9.56137911980758,-0.49411489595296393,0.10715714316669916,0.7238161173589893,-0.008619498797373726,-0.0625,-0.08922389975947476
1588960028.676232,0.54,-2.2615135880976664,-9.545756794048833,-0.4888888888888889,0.11333333333333333,0.7266666666666667,0.08902003719479273,-0.0625,-0.09847996280520727
1588960028.686232,0.54,-2.245833948769775,-9.630553504100751,-0.4888888888888889,0.11333333333333333,0.7266666666666667,0.0625,-0.16319188012593772,-0.07465405993703114
1588960028.696232,0.5305045883350898,-2.24949541166491,-9.612018353340359,-0.4888888888888889,0.11333333333333333,0.7266666666666667,0.0625,0.04988529162275404,-0.0031536770943114897
1588960028.706232,0.5455688389571448,-2.2422155805214277,-9.563293483128566,-0.4888888888888889,0.11333333333333333,0.7266666666666667,-0.03480524348215504,0.11115262174107751,0.0
1588960028.716232,0.55,-2.24,-9.562586324047192,-0.49308433023795306,0.11682953445755348,0.7133811023946302,0.016164525294953366,0.08566773735252331,0.0
1588960028.726232,0.5410327003034049,-2.25793459939319,-9.561032700303405,-0.4955555555555556,0.11888888888888888,0.7055555555555556,0.0625,-0.04959124620743903,-0.056045623103719515
1588960028.736232,0.54,-2.2521390599610824,-9.646470340428094,-0.4955555555555556,0.11888888888888888,0.7055555555555556,0.0625,-0.013369124756765431,-0.0625
1588960028.746232,0.5579219067808749,-2.223117139828688,-9.616234279657375,-0.4955555555555556,0.11888888888888888,0.7055555555555556,-0.049511917380468104,0.05600595869023405,0.049511917380468104
1588960028.756232,0.5526732446076182,-2.2419802661771455,-9.595346489215236,-0.4955555555555556,0.11888888888888888,0.7055555555555556,-0.0625,0.01670777879761358,-0.07487666360715925
1588960028.766232,0.55,-2.25,-9.59,-0.4903081311340051,0.11451603520426354,0.7169249751355814,-0.013305396047964872,0.09838920790407026,-0.125
1588960028.776232,0.5596592026522069,-2.2596592026522067,-9.580340797347793,-0.4888888888888889,0.11333333333333333,0.72,-0.06037001657629309,0.004259966847413824,-0.004259966847413824
1588960028.786232,0.56,-2.246119820065431,-9.628580629770992,-0.4888888888888889,0.11333333333333333,0.72,0.06762668688658668,0.0433755622955289,-0.0867511245910578
1588960028.796232,0.5363251406573882,-2.24,-9.64210838021913,-0.4888888888888889,0.11333333333333333,0.72,0.1743226236304412,-0.1841131181522061,-0.026354752739117554
1588960028.806232,0.5365588143007438,-2.24,-9.600647114195537,-0.4888888888888889,0.11333333333333333,0.72,0.1875,-0.12702223186105316,0.0
1588960028.816232,0.531730025201434,-2.248269974798566,-9.571730025201434,-0.4888888888888889,0.11333333333333333,0.7273510887098364,0.03243797252688746,-0.0625,0.0
1588960028.826232,0.544740923370581,-2.25,-9.56262953831471,-0.4888888888888889,0.11333333333333333,0.7288888888888889,0.09213077106613116,-0.10856538553306558,-0.04606538553306558
1588960028.836232,0.5750251256281407,-2.25,-9.601708542713567,-0.4888888888888889,0.11333333333333333,0.7288888888888889,0.125,-0.020728643216080395,-0.010364321608040197
1588960028.846232,0.5516379006692498,-2.235818950334625,-9.602909475167312,-0.4888888888888889,0.11333333333333333,0.7288888888888889,-0.007947340612891873,-0.08863156040859457,0.044315780204297286
1588960028.856232,0.5338922601457285,-2.23,-9.575569040582915,-0.4888888888888889,0.11333333333333333,0.7288888888888889,-0.024326625910803312,0.02769349635678675,0.024326625910803312
1588960028.866232,0.5452561329790522,-2.235085377659684,-9.56,-0.4888888888888889,0.10994308156021065,0.7311490567376373,-0.06356722074605038,0.09321638962697482,0.0
1588960028.876232,0.5466865451868214,-2.2533134548131786,-9.56,-0.4888888888888889,0.10666666666666667,0.7333333333333333,-0.041790907417632986,0.020895453708816493,-0.04160454629118351
1588960028.886232,0.5464439650946171,-2.266443965094617,-9.630883616040789,-0.4888888888888889,0.10666666666666667,0.7333333333333333,0.161099127365428,-0.040274781841357,-0.102774781841357
1588960028.896232,0.5575928819721275,-2.2472213540836177,-9.632035590139362,-0.4888888888888889,0.10666666666666667,0.7333333333333333,0.15508897534840704,-0.015044487674203529,-0.030088975348407057
1588960028.9062319,0.5394991258046571,-2.246833624731781,-9.585831876341095,-0.4888888888888889,0.10666666666666667,0.7333333333333333,0.125,0.0,-0.042710154573631094
1588960028.9162319,0.5466156598409099,-2.241692170079545,-9.57,-0.4888888888888889,0.10666666666666667,0.7222562267727267,-0.030771811008529548,-0.051923937002843173,-0.0625
1588960028.9262319,0.5430160847690197,-2.2469839152309805,-9.576983915230981,-0.4888888888888889,0.10666666666666667,0.72,-0.0625,-0.10614947019362708,0.024798940387254165
1588960028.9362319,0.54,-2.25,-9.615651131045242,-0.4888888888888889,0.10666666666666667,0.72,0.0011627340093603722,-0.125,0.030668632995319814
1588960028.9462318,0.5530350345684767,-2.243482482715762,-9.636964965431524,-0.4888888888888889,0.10666666666666667,0.72,0.0625,-0.125,-0.0814689660529791
1588960028.9562318,0.56,-2.246324217551396,-9.585730477140228,-0.4888888888888889,0.10666666666666667,0.72,0.0625,-0.045947280607548324,-0.045947280607548324
1588960028.9662318,0.5521967932026861,-2.234393586405372,-9.536590379608057,-0.4888888888888889,0.12140605728381527,0.7364734365721073,0.0625,0.0,-0.09754008496642455
1588960028.9762318,0.5418562915425167,-2.2462874169149667,-9.538143708457483,-0.4888888888888889,0.12555555555555556,0.7411111111111112,-0.039296355718542286,0.05089817785927114,-0.07410182214072886
1588960028.9862318,0.5479074766355141,-2.25,-9.61907476635514,-0.4888888888888889,0.12555555555555556,0.7411111111111112,0.08576518691588786,-0.036343457943925225,-0.0625
1588960028.9962318,0.55,-2.25,-9.594284196424447,-0.4888888888888889,0.12555555555555556,0.7411111111111112,0.17262062872453457,-0.014879371275465424,0.03274125744906915
1588960029.0062318,0.5437500493895453,-2.2562499506104547,-9.561250148168636,-0.4888888888888889,0.12555555555555556,0.7411111111111112,0.031251234738630534,-0.1171865739460271,-0.054686573946027106
1588960029.0162318,0.54,-2.2532090148176627,-9.556790985182337,-0.4934162123437803,0.10744626173598992,0.7328110181104769,-0.0625,-0.14505634261039307,-0.08255634261039307
1588960029.0262318,0.555867418539971,-2.2579337092699854,-9.607602255619913,-0.4955555555555556,0.09888888888888887,0.7288888888888889,0.0366713658748182,-0.0258286341251818,-0.0625
1588960029.0362318,0.5518858334731845,-2.26,-9.62,-0.4955555555555556,0.09888888888888887,0.7288888888888889,0.08785677039629834,0.0,-0.03714322960370166
1588960029.0462317,0.5418302126537364,-2.26,-9.62,-0.4955555555555556,0.09888888888888887,0.7288888888888889,0.11928058545707368,0.0,-0.005719414542926321
1588960029.0562317,0.5519758451576872,-2.2659879225788435,-9.596048309684626,-0.4955555555555556,0.09888888888888887,0.7288888888888889,0.05015096776445538,-0.03742451611777231,-0.07484903223554462
1588960029.0662317,0.5535094507601699,-2.2570189015203397,-9.56701890152034,-0.4955555555555556,0.10826412667975467,0.7317735774399244,-0.12169779824681551,-0.0625,0.037263730995754
1588960029.0762317,0.565917834362915,-2.2579589171814574,-9.575917834362915,-0.4955555555555556,0.11333333333333333,0.7333333333333333,-0.03827030284767216,-0.012756767615890716,-0.02422969715232784
1588960029.0862317,0.5555998126250941,-2.26,-9.618400499666416,-0.4955555555555556,0.11333333333333333,0.7333333333333333,0.0,0.03000039036438741,-0.03249960963561259
1588960029.0962317,0.54,-2.26,-9.646683024680302,-0.4955555555555556,0.11333333333333333,0.7333333333333333,0.011890156535444353,0.0625,-0.011890156535444353
1588960029.1062317,0.5441349299689939,-2.251730140062012,-9.585865070031007,-0.4955555555555556,0.11333333333333333,0.7333333333333333,-0.01502993691863573,0.03665668769378809,-0.08834331230621191
1588960029.1162317,0.5543932927752051,-2.244393292775205,-9.57121341444959,-0.4955555555555556,0.11333333333333333,0.7313807587665755,-0.015167680619873489,0.08237423953509489,-0.04262576046490511
1588960029.1262317,0.5672870122596303,-2.25,-9.56728701225963,-0.4955555555555556,0.11333333333333333,0.7288888888888889,-0.01163147986806895,0.0964123467546207,0.10804382662268966
1588960029.1362317,0.5633964064239148,-2.25,-9.622828748608683,-0.4955555555555556,0.11333333333333333,0.7288888888888889,0.020044919701065353,-0.1438622992526634,0.08372754014946732
1588960029.1462317,0.5552532370803255,-2.25,-9.631012948321303,-0.4955555555555556,0.11333333333333333,0.7288888888888889,0.03283273175203391,-0.10166365876016958,0.0031654635040678294
1588960029.1562316,0.5575212962721755,-2.2462393518639123,-9.598718055591737,-0.4955555555555556,0.11333333333333333,0.7288888888888889,-0.023504050850548363,0.038995949149451634,0.008012152551645085
1588960029.1662316,0.5660965873343023,-2.2439034126656976,-9.572193174668605,-0.5003263932580748,0.11550189592538755,0.7223832011127262,-0.11129265832122015,-0.07318898748183021,0.10060367083938992
1588960029.1762316,0.56,-2.2548646938918955,-9.574594081675688,-0.5077777777777778,0.11888888888888888,0.7122222222222222,-0.1875,-0.03547831587825964,0.0625
1588960029.1862316,0.5473669370681089,-2.26,-9.627899188795674,-0.5077777777777778,0.11888888888888888,0.7122222222222222,-0.14802167833784002,0.125,0.0625
1588960029.1962316,0.5467133932259397,-2.2532866067740605,-9.62985982032218,-0.5077777777777778,0.11888888888888888,0.7122222222222222,0.000876122986369271,0.04108258467575382,0.02054129233787691
1588960029.2062316,0.5388046602537079,-2.25,-9.580816310887977,-0.5077777777777778,0.11888888888888888,0.7122222222222222,-0.007470873414325674,0.03498543670716284,0.0
1588960029.2162316,0.5475087686911575,-2.2383274875392285,-9.544163743769614,-0.5006445757184174,0.11564652431645231,0.7122222222222222,0.010453202879822779,-0.010453202879822779,0.07295320287982278
1588960029.2262316,0.553265857589836,-2.256936569640656,-9.553468284820328,-0.4955555555555556,0.11333333333333333,0.7122222222222222,-0.02167678012705035,-0.0625,0.04082321987294965
1588960029.2362316,0.55,-2.27,-9.62288,-0.4955555555555556,0.11333333333333333,0.7122222222222222,-0.0625,-0.09525,0.0
1588960029.2462316,0.55,-2.264650752125572,-9.642555264879006,-0.4955555555555556,0.11333333333333333,0.7122222222222222,-0.0625,-0.09156720078482669,0.06686559843034663
1588960029.2562315,0.5555226616196833,-2.2489546767606337,-9.587909353521267,-0.4955555555555556,0.11333333333333333,0.7122222222222222,-0.0625,-0.027983364876979777,0.09048336487697978
1588960029.2662315,0.5535622644005027,-2.2593132067984922,-9.576437735599498,-0.4912637318225573,0.11690985311083188,0.735111948798213,-0.10273584749685868,-0.04023584749685868,0.10273584749685868
1588960029.2762315,0.5426791460178031,-2.255358292035606,-9.587320853982197,-0.4888888888888889,0.11888888888888888,0.7477777777777778,-0.079244662611269,-0.016744662611268994,0.079244662611269
1588960029.2862315,0.552000550195516,-2.2439997249022423,-9.632001925684305,-0.4888888888888889,0.11888888888888888,0.7477777777777778,0.012503438721974416,0.03750171936098721,0.1000017193609872
1588960029.2962315,0.5497704172293696,-2.255344374155946,-9.64977041722937,-0.4888888888888889,0.11888888888888888,0.7477777777777778,-0.033402338474660606,0.030532553841779796,-0.0028697846328808174
1588960029.3062315,0.54,-2.255791262243742,-9.606846278568732,-0.4888888888888889,0.11888888888888888,0.7477777777777778,-0.125,-0.11840614796881593,-0.06579692601559203
1588960029.3162315,0.5436469765117442,-2.2436469765117444,-9.566353023488256,-0.4888888888888889,0.11443147315231272,0.7425099228163695,-0.0566191904047976,-0.136031984007996,0.022793603198400802
1588960029.3262315,0.55,-2.25,-9.56,-0.4888888888888889,0.10666666666666667,0.7333333333333333,-0.010368861863240014,0.013920758757839984,0.0625
1588960029.3362315,0.55,-2.245468321723494,-9.591721747935544,-0.4888888888888889,0.10666666666666667,0.7333333333333333,-0.0683540215436722,-0.0908229892281639,-0.022468967684491692
1588960029.3462315,0.5541736089280102,-2.24417360892801,-9.61330556428796,-0.4888888888888889,0.10666666666666667,0.7333333333333333,0.0,-0.07282988839987425,-0.07282988839987425
1588960029.3562315,0.5501659201769815,-2.254917039911509,-9.570331840353964,-0.4888888888888889,0.10666666666666667,0.7333333333333333,0.03073149944693274,-0.03073149944693274,0.03073149944693274
1588960029.3662314,0.5491313051754128,-2.2554343474122938,-9.545434347412293,-0.48533782576511725,0.11529067711011198,0.7313041544054638,0.0054293426536707046,0.05164131469265859,0.03396467132683535
1588960029.3762314,0.5539987706274528,-2.262002458745094,-9.54,-0.4811111111111111,0.12555555555555556,0.7288888888888889,-0.0625,0.07497694926474065,0.0
1588960029.3862314,0.55,-2.250629707976473,-9.604567640078423,-0.4811111111111111,0.12555555555555556,0.7288888888888889,-0.0625,0.04035477504901455,0.0
1588960029.3962314,0.5631726907630522,-2.2531726907630523,-9.633413654618474,-0.4811111111111111,0.12555555555555556,0.7288888888888889,0.06099397590361447,0.0625,-0.04116465863453816
1588960029.4062314,0.5622850164476006,-2.2561425082238,-9.610712541119002,-0.4811111111111111,0.12555555555555556,0.7288888888888889,0.10089067639875196,0.0625,-0.014281352797503921
1588960029.4162314,0.5504418969095453,-2.2502209484547726,-9.581104742273864,-0.4811111111111111,0.12555555555555556,0.7288888888888889,0.06388092784232893,0.0625,0.05973814431534215
1588960029.4262314,0.5430014766015447,-2.2543338255338483,-9.564333825533849,-0.4744444444444445,0.11333333333333333,0.7055555555555556,-0.13332718082689687,-0.016654361653793734,0.03541359041344844
1588960029.4362314,0.5643955143325471,-2.26,-9.605164114660377,-0.4744444444444445,0.11333333333333333,0.7055555555555556,-0.035028035421580776,0.042584106264742336,0.027471964578419224
1588960029.4462314,0.5553331575477917,-2.26,-9.65,-0.4744444444444445,0.11333333333333333,0.7055555555555556,0.0,-0.08541694133157549,0.08541694133157549
1588960029.4562314,0.53,-2.2523183405832814,-9.615432532624768,-0.4744444444444445,0.11333333333333333,0.7055555555555556,0.02400518567724516,-0.0529844429682645,0.125
1588960029.4662313,0.5359942781890015,-2.24,-9.56,-0.4787736453587233,0.1113352406036662,0.7138809419291686,0.0063036419781118055,0.0812321193406294,0.06880364197811181
1588960029.4762313,0.5574490857238719,-2.243724542861936,-9.556275457138065,-0.4888888888888889,0.10666666666666667,0.7333333333333333,-0.07844321422580104,0.031886428451602084,0.007335178661298444
1588960029.4862313,0.5662772331154684,-2.2462772331154683,-9.598395969498911,-0.4888888888888889,0.10666666666666667,0.7333333333333333,0.0,-0.07846541394335513,0.14826729302832245
1588960029.4962313,0.5610947919974596,-2.24,-9.673431248015243,-0.4888888888888889,0.10666666666666667,0.7333333333333333,0.0,0.0,0.16013020006351222
1588960029.5062313,0.5619796912577854,-2.2319796912577856,-9.599949228144464,-0.4888888888888889,0.10666666666666667,0.7333333333333333,0.025063464819420747,0.050126929638841494,-0.0625
1588960029.5162313,0.5457460876499319,-2.2285078247001366,-9.565746087649933,-0.48558029039439143,0.11186589287230547,0.7484583550224644,0.0359130478120743,0.0984130478120743,0.017260856563777127
1588960029.5262313,0.54,-2.245318818376022,-9.575956455128066,-0.4811111111111111,0.11888888888888888,0.7688888888888888,0.0,-0.03722784455041754,0.058514770299721644
1588960029.5362313,0.5557579766536965,-2.2447473411154344,-9.621515953307393,-0.4811111111111111,0.11888888888888888,0.7688888888888888,-0.09848735408560312,-0.05934176394293125,-0.032829118028534374
1588960029.5462313,0.5646097900184675,-2.2453902099815326,-9.628439160073869,-0.4811111111111111,0.11888888888888888,0.7688888888888888,-0.12012237523084289,0.0,-0.028811187615421445
1588960029.5562313,0.5565251051713934,-2.2534748948286065,-9.59957531551418,-0.4811111111111111,0.11888888888888888,0.7688888888888888,-0.040781907321208635,-0.06515427803637411,0.043436185357582736
1588960029.5662313,0.55,-2.2595652831329853,-9.578695849398956,-0.48198054484513997,0.118357568273649,0.7671500214208311,-0.0027169804188402506,-0.176632078324639,0.125
1588960029.5762312,0.5589831286273451,-2.25,-9.53203374274531,-0.5011111111111111,0.10666666666666667,0.7288888888888889,-0.0625,-0.07786138480226754,0.040783169118639495
1588960029.5862312,0.5648248269896193,-2.2551751730103806,-9.572102076124567,-0.5011111111111111,0.10666666666666667,0.7288888888888889,-0.0625,-0.08827584342560554,0.0021896626297577826
1588960029.5962312,0.5387325519186811,-2.2546831379796703,-9.61404941393901,-0.5011111111111111,0.10666666666666667,0.7288888888888889,0.003960775254121876,0.029269612372939062,0.029269612372939062
1588960029.6062312,0.5324560729189546,-2.25,-9.587543927081045,-0.5011111111111111,0.10666666666666667,0.7288888888888889,0.0625,0.0,0.025950151914488618
1588960029.6162312,0.5537958478165897,-2.25,-9.56620415218341,-0.49879142633430623,0.10793194927219658,0.727201845414849,0.03877595114631413,0.011862024426842935,0.03877595114631413
1588960029.6262312,0.5697295192508595,-2.25,-9.550270480749141,-0.4890541826800303,0.11324317308361982,0.7201202136662846,-0.06080949531787187,0.061654747658935936,-0.06080949531787187
1588960029.6362312,0.5471969788833648,-2.2456060422332706,-9.573636253399622,-0.4888888888888889,0.11333333333333333,0.72,-0.07244335406309006,-0.017518881978969978,-0.08996223604206005
1588960029.6462312,0.54,-2.2597369031445704,-9.658947612578283,-0.4888888888888889,0.11333333333333333,0.72,0.06085564465356705,-0.0625,0.0
1588960029.6562312,0.5422931005223164,-2.2422931005223163,-9.577706899477684,-0.4888888888888889,0.11333333333333333,0.72,-0.03383624347104633,-0.048168121735523164,0.0
1588960029.6662312,0.5507432596550887,-2.2496283701724558,-9.569628370172456,-0.4888888888888889,0.11353979434863573,0.7197109545785766,0.06482268642215205,0.004645372844304105,-0.004645372844304105
1588960029.6762311,0.5585925906083415,-2.2438024697972194,-9.567604939594439,-0.4888888888888889,0.11888888888888888,0.7122222222222222,0.029938255069513267,0.125,-0.07746912753475663
1588960029.6862311,0.54,-2.2548343315425545,-9.613840320797882,-0.4888888888888889,0.11888888888888888,0.7122222222222222,-0.094785427859034,0.064570855718068,-0.030214572140965994
1588960029.6962311,0.5439210653839942,-2.2521578692320117,-9.642157869232012,-0.4888888888888889,0.11888888888888888,0.7122222222222222,-0.0625,-0.024506658649963205,-0.0625
1588960029.706231,0.55,-2.24,-9.617824141571566,-0.4888888888888889,0.11888888888888888,0.7122222222222222,-0.0878663717259062,-0.0625,-0.0498168141370469
1588960029.716231,0.55,-2.2453166398254454,-9.567341680087278,-0.4888888888888889,0.1174120444929318,0.717834230926859,-0.1875,-0.045885500545482884,0.0
1588960029.726231,0.5537165136119111,-2.26,-9.55628348638809,-0.4888888888888889,0.11333333333333333,0.7333333333333333,-0.14104357985111124,0.023228210074444384,-0.023228210074444384
1588960029.736231,0.5561216118726168,-2.2561216118726164,-9.58490549314645,-0.4888888888888889,0.11333333333333333,0.7333333333333333,-0.014020148407708953,-0.058699628980727614,-0.014020148407708953
1588960029.746231,0.55,-2.253335330972487,-9.626658676110052,-0.4888888888888889,0.11333333333333333,0.7333333333333333,0.04165418142195587,-0.14577090710977936,-3.7455734132385565e-05
1588960029.756231,0.5431524507307135,-2.26,-9.58972867609607,-0.4888888888888889,0.11333333333333333,0.7333333333333333,-0.06419577439956119,0.0625,-0.08220281706695921
1588960029.766231,0.5324484664191106,-2.255103067161779,-9.562654600742668,-0.49052119983496256,0.11170102238725962,0.7300687114411859,-0.14159125464167716,0.0625,-0.030605830238881904
1588960029.776231,0.5365029077337037,-2.2434970922662965,-9.557485461331481,-0.4955555555555556,0.10666666666666667,0.72,-0.043713653328704104,0.0625,-0.08128634667129589
1588960029.786231,0.5362880697332494,-2.25,-9.608864209199748,-0.4955555555555556,0.10666666666666667,0.72,-0.04639912833438353,0.0035493462507876494,-0.019650217916404117
1588960029.796231,0.5563491426852502,-2.25,-9.6373017146295,-0.4955555555555556,0.10666666666666667,0.72,0.0853178582171864,-0.125,-0.0426589291085932
1588960029.806231,0.5664483966585826,-2.25,-9.606448396658582,-0.4955555555555556,0.10666666666666667,0.72,-0.007399173627952932,-0.11760082637204707,-0.007399173627952932
1588960029.816231,0.5476111560226354,-2.25,-9.587611156022636,-0.4955555555555556,0.10666666666666667,0.72,-0.0466434249528429,-0.0783565750471571,-0.0466434249528429
1588960029.826231,0.5570651502322708,-2.241173939907092,-9.55,-0.4888888888888889,0.11888888888888888,0.7411111111111112,-0.058831437790338455,-0.06983712441932309,0.125
1588960029.836231,0.5112273847904418,-2.2596931538023894,-9.553068461976105,-0.4888888888888889,0.11888888888888888,0.7411111111111112,0.0038355774701308554,-0.17982884505973828,0.12116442252986914
1588960029.846231,0.55,-2.252774025358455,-9.630581822490816,-0.4888888888888889,0.11888888888888888,0.7411111111111112,0.07298702452897263,0.07983765849034245,0.0
1588960029.856231,0.55,-2.259874223418482,-9.580880436070625,-0.4888888888888889,0.11888888888888888,0.7411111111111112,-0.06014168909654158,0.12421389636551386,0.0
1588960029.866231,0.5490305673193845,-2.25,-9.57,-0.4888888888888889,0.1183503151774358,0.7417573995648549,0.11288209149230576,0.012117908507694243,-0.0625
1588960029.876231,0.5402371168602458,-2.25,-9.57,-0.4888888888888889,0.11346506492235872,0.7476196998709473,0.0029639607530714124,0.12203603924692859,-0.0625
1588960029.886231,0.5465321765300605,-2.24,-9.572017352049093,-0.4888888888888889,0.11333333333333333,0.7477777777777778,0.122478309938633,-0.002521690061367002,-0.10332610331287767
1588960029.896231,0.5474153008325916,-2.254830601665183,-9.651461747918521,-0.4888888888888889,0.11333333333333333,0.7477777777777778,-0.023172815101848456,-0.14817281510184846,-0.016154369796303088
1588960029.906231,0.563167893023914,-2.26416053488043,-9.60416053488043,-0.4888888888888889,0.11333333333333333,0.7477777777777778,-0.08229933139946229,-0.14790133720107543,0.042700668600537714
1588960029.916231,0.5677311901504788,-2.2345376196990423,-9.566596785225718,-0.4902753837969296,0.11333333333333333,0.7456350129198966,-0.11081993844049248,-0.06959003077975376,0.014180061559507524
1588960029.926231,0.55,-2.2551944271158244,-9.547402786442088,-0.5011111111111111,0.11333333333333333,0.7288888888888889,-0.04626741526304845,-0.07873258473695155,0.0324651694739031
1588960029.936231,0.55,-2.236936432570335,-9.598150379136843,-0.5011111111111111,0.11333333333333333,0.7288888888888889,-0.1033236482177025,0.021676351782297498,-0.0599709446531075
1588960029.946231,0.5472273847168604,-2.2555452305662795,-9.661682154150581,-0.5011111111111111,0.11333333333333333,0.7288888888888889,-0.0625,-0.006815382078491472,0.027842308960754264
