time,acc_x,acc_y,acc_z,mag_x,mag_y,mag_z,gyr_x,gyr_y,gyr_z
1589381222.176669,-0.51,-4.14,8.89,0.4988888888888889,0.18222222222222226,-0.7922222222222223,4.9375,6.5,-4.125
1589381222.19004,-0.5,-4.11,8.91,0.4988888888888889,0.18222222222222226,-0.7922222222222223,-5.8125,3.125,6.75
1589381222.197441,-0.52,-4.12,8.77,0.4988888888888889,0.18222222222222226,-0.7922222222222223,2.9375,-4.375,-4.0
1589381222.2100565,-0.5,-4.11,8.79,0.4988888888888889,0.18222222222222226,-0.7922222222222223,-6.4375,-2.0,-10.3125
1589381222.2191627,-0.5,-4.11,8.81,0.4988888888888889,0.18222222222222226,-0.7922222222222223,-8.0,8.9375,5.125
1589381222.2300267,-0.47,-4.13,8.88,0.5255555555555556,0.18222222222222226,-0.7922222222222223,0.3125,5.0,-4.625
1589381222.236562,-0.5,-4.13,8.84,0.5255555555555556,0.18222222222222226,-0.7922222222222223,6.1875,0.25,-4.375
1589381222.247257,-0.5,-4.13,8.79,0.5255555555555556,0.18222222222222226,-0.7922222222222223,-2.1875,1.0,4.375
1589381222.2579882,-0.51,-4.11,8.8,0.5255555555555556,0.18222222222222226,-0.7922222222222223,-0.4375,5.0,-4.5
1589381222.2693427,-0.5,-4.13,8.89,0.5255555555555556,0.18222222222222226,-0.7922222222222223,2.3125,-5.625,0.5
1589381222.2774196,-0.49,-4.11,8.92,0.5133333333333333,0.17555555555555555,-0.8,-1.8125,1.625,2.375
1589381222.2873588,-0.47,-4.12,8.91,0.5133333333333333,0.17555555555555555,-0.8,-4.4375,5.375,4.875
1589381222.3004966,-0.48,-4.15,8.79,0.5133333333333333,0.17555555555555555,-0.8,5.5625,-2.125,-7.1875
1589381222.3087196,-0.48,-4.11,8.82,0.5133333333333333,0.17555555555555555,-0.8,0.1875,5.75,0.75
1589381222.3217273,-0.51,-4.11,8.85,0.5133333333333333,0.17555555555555555,-0.8,-2.6875,2.5,1.375
1589381222.3277044,-0.5,-4.14,8.88,0.5133333333333333,0.17555555555555555,-0.7922222222222223,-6.8125,-4.125,3.5
1589381222.3401515,-0.52,-4.1,8.86,0.5133333333333333,0.17555555555555555,-0.7922222222222223,1.8125,-3.5,-1.875
1589381222.3477647,-0.52,-4.11,8.79,0.5133333333333333,0.17555555555555555,-0.7922222222222223,5.4375,-0.5,-0.5
1589381222.3586698,-0.5,-4.13,8.9,0.5133333333333333,0.17555555555555555,-0.7922222222222223,3.1875,-3.375,3.625
1589381222.3700712,-0.51,-4.12,8.89,0.5133333333333333,0.17555555555555555,-0.7922222222222223,1.4375,4.25,1.75
1589381222.3818686,-0.44,-4.19,8.96,0.48,0.17555555555555555,-0.7922222222222223,-2.0625,-6.5,-1.625
1589381222.3890133,-0.16,-4.29,8.79,0.48,0.17555555555555555,-0.7922222222222223,-3.3125,1.125,4.125
1589381222.4005206,-0.04,-4.27,8.71,0.48,0.17555555555555555,-0.7922222222222223,-0.0625,2.625,-5.625
1589381222.4070935,-1.57,-3.68,8.82,0.48,0.17555555555555555,-0.7922222222222223,5.6875,-1.875,-2.125
1589381222.4194546,-0.56,-4.12,8.89,0.48,0.17555555555555555,-0.7922222222222223,1.5625,5.125,-1.0
1589381222.4264052,-0.46,-4.13,8.87,0.4922222222222222,0.17555555555555555,-0.8066666666666666,0.9375,3.5,3.875
1589381222.43711,-0.46,-4.13,8.87,0.4922222222222222,0.17555555555555555,-0.8066666666666666,0.9375,3.5,3.875
1589381222.4424446,-0.49,-4.11,8.92,0.4922222222222222,0.17555555555555555,-0.8066666666666666,4.1875,2.875,-5.875
1589381222.4553895,-0.49,-4.11,8.8,0.4922222222222222,0.17555555555555555,-0.8066666666666666,8.625,-2.25,0.0
1589381222.4616823,-0.5,-4.12,8.84,0.4922222222222222,0.17555555555555555,-0.8066666666666666,-4.5625,-5.125,-2.25
1589381222.4748776,-0.5,-4.12,8.87,0.4922222222222222,0.17555555555555555,-0.8066666666666666,8.125,-1.375,-3.625
1589381222.480957,-0.51,-4.11,8.9,0.5133333333333333,0.1688888888888889,-0.8,-5.0625,0.0,1.75
1589381222.4942882,-0.52,-4.09,8.75,0.5133333333333333,0.1688888888888889,-0.8,-0.9375,-3.625,-1.125
1589381222.5010445,-0.51,-4.14,8.77,0.5133333333333333,0.1688888888888889,-0.8,0.1875,8.4375,2.75
1589381222.5129685,-0.49,-4.09,8.73,0.5133333333333333,0.1688888888888889,-0.8,3.8125,7.0625,-0.5
1589381222.520517,-0.5,-4.14,8.89,0.5133333333333333,0.1688888888888889,-0.8,-1.9375,7.1875,1.5
1589381222.5322607,-0.48,-4.11,8.92,0.5066666666666667,0.17555555555555555,-0.8133333333333334,2.0625,0.0,-11.0625
1589381222.5382106,-0.5,-4.12,8.91,0.5066666666666667,0.17555555555555555,-0.8133333333333334,2.3125,0.0,5.875
1589381222.5528572,-0.52,-4.15,8.86,0.5066666666666667,0.17555555555555555,-0.8133333333333334,-3.6875,1.875,-4.375
1589381222.559277,-0.51,-4.14,8.87,0.5066666666666667,0.17555555555555555,-0.8133333333333334,3.9375,-1.875,-7.1875
1589381222.5705702,-0.49,-4.13,8.86,0.5066666666666667,0.17555555555555555,-0.8133333333333334,-1.6875,-1.5,9.4375
1589381222.5776293,-0.5,-4.11,8.89,0.5188888888888888,0.16111111111111112,-0.7922222222222223,-2.8125,3.75,-0.25
1589381222.5901866,-0.51,-4.14,8.81,0.5188888888888888,0.16111111111111112,-0.7922222222222223,-1.8125,1.0,-1.875
1589381222.600026,-0.52,-4.13,8.7,0.5188888888888888,0.16111111111111112,-0.7922222222222223,-4.4375,1.0,4.375
1589381222.609227,-0.53,-4.13,8.76,0.5188888888888888,0.16111111111111112,-0.7922222222222223,-1.5625,-0.875,4.875
1589381222.6258562,-0.5,-4.16,8.84,0.5188888888888888,0.16111111111111112,-0.7922222222222223,2.4375,10.0625,5.5
1589381222.6318033,-0.48,-4.14,8.91,0.5133333333333333,0.1688888888888889,-0.8211111111111111,1.1875,-4.0,-1.75
1589381222.6391265,-0.48,-4.12,8.88,0.5133333333333333,0.1688888888888889,-0.8211111111111111,5.4375,4.125,-4.125
1589381222.6503775,-0.48,-4.12,8.79,0.5133333333333333,0.1688888888888889,-0.8211111111111111,0.5625,-6.125,3.0
1589381222.6615007,-0.49,-4.13,8.85,0.5133333333333333,0.1688888888888889,-0.8211111111111111,2.3125,0.375,-5.75
1589381222.671028,-0.48,-4.13,8.9,0.5133333333333333,0.1688888888888889,-0.8211111111111111,-1.0625,-2.0,6.625
1589381222.683958,-0.5,-4.1,8.91,0.5066666666666667,0.17555555555555555,-0.7855555555555556,3.5625,4.25,1.75
1589381222.6910634,-0.52,-4.11,8.89,0.5066666666666667,0.17555555555555555,-0.7855555555555556,0.8125,0.25,4.125
1589381222.7041776,-0.52,-4.11,8.74,0.5066666666666667,0.17555555555555555,-0.7855555555555556,1.9375,2.5,-7.6875
1589381222.7105784,-0.51,-4.11,8.74,0.5066666666666667,0.17555555555555555,-0.7855555555555556,0.6875,0.0,-1.25
1589381222.7321827,-0.49,-4.12,8.87,0.4922222222222222,0.1688888888888889,-0.7777777777777778,-0.6875,1.875,-0.125
1589381222.743532,-0.51,-4.11,8.85,0.4922222222222222,0.1688888888888889,-0.7777777777777778,-2.1875,-2.0,1.0
1589381222.7497642,-0.47,-4.08,8.79,0.4922222222222222,0.1688888888888889,-0.7777777777777778,-3.6875,-4.875,-0.5
1589381222.7629824,-0.48,-4.16,8.9,0.4922222222222222,0.1688888888888889,-0.7777777777777778,3.5625,-1.125,2.25
1589381222.7719395,-0.47,-4.12,8.93,0.4922222222222222,0.1688888888888889,-0.7777777777777778,0.0625,3.25,2.0
1589381222.7821095,-0.48,-4.12,8.96,0.4988888888888889,0.18222222222222226,-0.7711111111111111,3.5625,-3.5,-4.625
1589381222.7889078,-0.51,-4.09,8.88,0.4988888888888889,0.18222222222222226,-0.7711111111111111,5.0625,-4.375,-9.5625
1589381222.8004858,-0.52,-4.18,8.91,0.4988888888888889,0.18222222222222226,-0.7711111111111111,2.6875,1.125,-1.625
1589381222.8104422,-0.49,-4.11,8.77,0.4988888888888889,0.18222222222222226,-0.7711111111111111,2.6875,-4.25,-6.5
1589381222.8215435,-0.49,-4.14,8.84,0.4988888888888889,0.18222222222222226,-0.7711111111111111,-0.8125,4.5,0.625
1589381222.8342907,-0.5,-4.1,8.8,0.5133333333333333,0.1688888888888889,-0.8,0.0625,-0.5,-4.0
1589381222.8406308,-0.51,-4.12,8.77,0.5133333333333333,0.1688888888888889,-0.8,0.3125,1.5,-5.625
1589381222.8554304,-0.5,-4.12,8.76,0.5133333333333333,0.1688888888888889,-0.8,3.5625,3.5,-4.625
1589381222.861967,-0.5,-4.11,8.83,0.5133333333333333,0.1688888888888889,-0.8,1.5625,-2.5,-5.0
1589381222.8720524,-0.5,-4.11,8.9,0.5133333333333333,0.1688888888888889,-0.8,1.6875,-1.75,-2.625
1589381222.8798873,-0.49,-4.12,8.95,0.5133333333333333,0.16111111111111112,-0.7855555555555556,2.5625,-0.875,-1.75
1589381222.8938394,-0.46,-4.13,8.94,0.5133333333333333,0.16111111111111112,-0.7855555555555556,2.4375,-4.75,1.375
1589381222.9000914,-0.45,-4.11,8.82,0.5133333333333333,0.16111111111111112,-0.7855555555555556,1.6875,0.125,9.6875
1589381222.91426,-0.49,-4.12,8.83,0.5133333333333333,0.16111111111111112,-0.7855555555555556,0.9375,4.875,-3.0
1589381222.922225,-0.52,-4.12,8.83,0.5133333333333333,0.16111111111111112,-0.7855555555555556,-6.8125,1.0,7.0625
1589381222.9335554,-0.53,-4.12,8.84,0.4988888888888889,0.17555555555555555,-0.7855555555555556,-9.125,-1.75,0.25
1589381222.9408321,-0.52,-4.12,8.84,0.4988888888888889,0.17555555555555555,-0.7855555555555556,-3.0625,-8.1875,2.75
1589381222.9510086,-0.5,-4.12,8.72,0.4988888888888889,0.17555555555555555,-0.7855555555555556,-6.6875,-3.25,0.25
1589381222.9603865,-0.47,-4.13,8.79,0.4988888888888889,0.17555555555555555,-0.7855555555555556,0.9375,-0.25,-6.0
1589381222.9727108,-0.48,-4.11,8.89,0.4988888888888889,0.17555555555555555,-0.7855555555555556,2.4375,3.25,-0.375
1589381222.984582,-0.48,-4.1,8.91,0.48,0.1688888888888889,-0.7855555555555556,0.4375,0.125,1.25
1589381222.990571,-0.5,-4.12,8.91,0.48,0.1688888888888889,-0.7855555555555556,2.5625,-5.625,0.0
1589381223.000817,-0.5,-4.12,8.81,0.48,0.1688888888888889,-0.7855555555555556,-0.5625,3.5,-0.75
1589381223.0127707,-0.5,-4.14,8.84,0.48,0.1688888888888889,-0.7855555555555556,-5.5625,0.375,5.125
1589381223.0253036,-0.49,-4.11,8.87,0.48,0.1688888888888889,-0.7855555555555556,9.875,-1.25,-6.25
1589381223.0312655,-0.51,-4.1,8.85,0.5188888888888888,0.17555555555555555,-0.7922222222222223,0.1875,-0.75,3.875
1589381223.041694,-0.53,-4.05,8.7,0.5188888888888888,0.17555555555555555,-0.7922222222222223,2.4375,4.75,-8.5625
1589381223.050294,-0.48,-4.22,8.94,0.5188888888888888,0.17555555555555555,-0.7922222222222223,-3.5625,3.625,-3.25
1589381223.0653849,-0.13,-3.99,9.3,0.5188888888888888,0.17555555555555555,-0.7922222222222223,2.9375,1.375,-0.5
1589381223.0730796,-0.42,-3.94,8.75,0.5188888888888888,0.17555555555555555,-0.7922222222222223,-4.4375,4.125,-12.6875
1589381223.084725,-0.49,-4.03,8.92,0.5133333333333333,0.1688888888888889,-0.8066666666666666,-0.0625,-1.625,-11.1875
1589381223.0910275,-0.6,-4.22,8.82,0.5133333333333333,0.1688888888888889,-0.8066666666666666,-9.0,-1.5,1.375
1589381223.101317,-0.47,-3.98,8.79,0.5133333333333333,0.1688888888888889,-0.8066666666666666,4.6875,3.5,-1.25
1589381223.1109061,-0.41,-3.52,8.85,0.5133333333333333,0.1688888888888889,-0.8066666666666666,-5.1875,-4.125,-1.0
1589381223.1232862,-0.51,-3.53,8.92,0.5133333333333333,0.1688888888888889,-0.8066666666666666,4.4375,-2.75,-8.8125
1589381223.1293824,-0.66,-3.24,8.91,0.48,0.17555555555555555,-0.7777777777777778,-3.0625,0.25,0.5
1589381223.1414135,-0.75,-3.09,8.93,0.48,0.17555555555555555,-0.7777777777777778,-0.0625,-1.375,-6.75
1589381223.1507688,-0.8,-2.88,8.82,0.48,0.17555555555555555,-0.7777777777777778,0.9375,-2.25,12.4375
1589381223.1634078,-0.9,-2.68,8.84,0.48,0.17555555555555555,-0.7777777777777778,-2.6875,0.0,30.0
1589381223.1780171,-0.68,-2.69,9.0,0.48,0.17555555555555555,-0.7777777777777778,-3.9375,1.375,29.25
1589381223.1835012,-0.58,-2.76,9.01,0.4988888888888889,0.1688888888888889,-0.8066666666666666,-9.0,-0.75,32.0
1589381223.1935456,-0.57,-2.83,9.05,0.4988888888888889,0.1688888888888889,-0.8066666666666666,-7.375,-4.25,39.0625
1589381223.2006235,-0.58,-2.89,8.89,0.4988888888888889,0.1688888888888889,-0.8066666666666666,-2.9375,-9.8125,37.9375
1589381223.2155404,-0.6,-2.92,8.94,0.4988888888888889,0.1688888888888889,-0.8066666666666666,-1.0625,-2.125,43.0
1589381223.223384,-0.63,-2.93,8.96,0.4988888888888889,0.1688888888888889,-0.8066666666666666,-2.3125,-3.125,37.0625
1589381223.2352602,-0.69,-2.93,8.98,0.4988888888888889,0.18777777777777774,-0.7855555555555556,-6.4375,-6.625,50.4375
1589381223.2411382,-0.76,-2.95,8.91,0.4988888888888889,0.18777777777777774,-0.7855555555555556,0.0625,-10.0625,56.625
1589381223.2513072,-0.78,-2.93,8.83,0.4988888888888889,0.18777777777777774,-0.7855555555555556,-3.4375,-3.125,65.3125
1589381223.2616427,-0.81,-2.94,8.88,0.4988888888888889,0.18777777777777774,-0.7855555555555556,-1.3125,-1.5,62.25
1589381223.2734704,-0.83,-2.92,9.0,0.4988888888888889,0.18777777777777774,-0.7855555555555556,0.8125,-11.3125,64.6875
1589381223.2809575,-0.87,-2.93,9.02,0.5133333333333333,0.15555555555555556,-0.7922222222222223,-0.9375,-5.875,88.25
1589381223.292575,-0.85,-3.0,9.01,0.5133333333333333,0.15555555555555556,-0.7922222222222223,-4.4375,-7.3125,96.6875
1589381223.30174,-0.83,-2.98,8.92,0.5133333333333333,0.15555555555555556,-0.7922222222222223,-2.9375,-13.4375,94.0625
1589381223.3118453,-0.81,-3.12,8.92,0.5133333333333333,0.15555555555555556,-0.7922222222222223,-0.1875,-9.5625,82.9375
1589381223.3290446,-0.83,-3.15,8.96,0.5133333333333333,0.15555555555555556,-0.7922222222222223,2.9375,-14.75,93.6875
1589381223.3348489,-0.86,-3.13,8.97,0.4866666666666667,0.14888888888888888,-0.8211111111111111,-2.1875,-16.125,96.6875
1589381223.3469539,-0.92,-3.14,8.88,0.4866666666666667,0.14888888888888888,-0.8211111111111111,-8.375,-10.8125,94.5625
1589381223.3532832,-0.97,-3.16,8.82,0.4866666666666667,0.14888888888888888,-0.8211111111111111,-3.3125,-11.0625,102.0
1589381223.366457,-1.02,-3.14,8.85,0.4866666666666667,0.14888888888888888,-0.8211111111111111,-2.8125,-10.9375,104.125
1589381223.3745902,-1.01,-3.12,8.9,0.4866666666666667,0.14888888888888888,-0.8211111111111111,-4.8125,-12.3125,113.75
1589381223.3814595,-0.94,-3.15,8.95,0.4988888888888889,0.11666666666666667,-0.8722222222222222,-3.3125,-6.625,108.1875
1589381223.3935616,-0.99,-3.21,8.97,0.4988888888888889,0.11666666666666667,-0.8722222222222222,-4.5625,-11.8125,113.625
1589381223.40509,-1.02,-3.2,8.84,0.4988888888888889,0.11666666666666667,-0.8722222222222222,-9.25,-12.1875,107.3125
1589381223.411809,-1.09,-3.27,8.92,0.4988888888888889,0.11666666666666667,-0.8722222222222222,-2.1875,-11.5625,111.4375
1589381223.4238582,-0.98,-3.16,8.93,0.4988888888888889,0.11666666666666667,-0.8722222222222222,-1.0625,-5.875,109.8125
1589381223.4315422,-1.03,-3.16,8.98,0.46,0.07555555555555556,-0.8777777777777778,-7.875,-6.125,113.875
1589381223.446149,-0.99,-3.2,8.98,0.46,0.07555555555555556,-0.8777777777777778,-6.3125,-9.5625,104.25
1589381223.4522126,-1.09,-3.29,8.82,0.46,0.07555555555555556,-0.8777777777777778,-3.5625,-11.1875,99.25
1589381223.4643517,-1.14,-3.3,8.89,0.46,0.07555555555555556,-0.8777777777777778,-5.9375,-11.8125,96.1875
1589381223.474914,-1.14,-3.27,8.88,0.46,0.07555555555555556,-0.8777777777777778,4.9375,-9.8125,89.75
1589381223.4853358,-1.2,-3.27,8.94,0.4211111111111111,0.0011111111111111113,-0.9011111111111112,-1.3125,-11.0625,90.375
1589381223.4926622,-1.27,-3.22,8.95,0.4211111111111111,0.0011111111111111113,-0.9011111111111112,1.5625,-1.75,66.6875
1589381223.5030785,-1.29,-3.22,8.85,0.4211111111111111,0.0011111111111111113,-0.9011111111111112,0.0625,-6.375,72.375
1589381223.5130546,-1.33,-3.25,8.9,0.4211111111111111,0.0011111111111111113,-0.9011111111111112,-0.4375,-5.25,70.0
1589381223.524614,-1.42,-3.27,8.96,0.4211111111111111,0.0011111111111111113,-0.9011111111111112,0.9375,-14.125,68.8125
1589381223.532213,-1.46,-3.28,8.98,0.3466666666666667,-0.04777777777777778,-0.9288888888888888,3.4375,-7.8125,65.8125
1589381223.544003,-1.46,-3.3,8.95,0.3466666666666667,-0.04777777777777778,-0.9288888888888888,-0.8125,-10.3125,64.5625
1589381223.5570874,-1.49,-3.3,8.88,0.3466666666666667,-0.04777777777777778,-0.9288888888888888,-3.8125,-10.4375,59.25
1589381223.5630245,-1.54,-3.12,8.88,0.3466666666666667,-0.04777777777777778,-0.9288888888888888,2.1875,-3.625,57.0
1589381223.5751677,-1.58,-3.11,8.93,0.3466666666666667,-0.04777777777777778,-0.9288888888888888,1.5625,-5.5,52.1875
1589381223.5821967,-1.56,-3.07,8.95,0.31222222222222223,-0.13111111111111112,-0.9011111111111112,-3.5625,-5.375,54.9375
1589381223.5966132,-1.63,-3.15,8.97,0.31222222222222223,-0.13111111111111112,-0.9011111111111112,-3.4375,-6.25,48.625
1589381223.602867,-1.67,-3.18,8.9,0.31222222222222223,-0.13111111111111112,-0.9011111111111112,-1.4375,-0.25,56.5
1589381223.6130266,-1.78,-3.21,8.78,0.31222222222222223,-0.13111111111111112,-0.9011111111111112,-2.0625,-2.25,50.8125
1589381223.6249685,-1.69,-3.15,8.96,0.31222222222222223,-0.13111111111111112,-0.9011111111111112,-2.3125,-3.0,46.25
1589381223.6358526,-1.58,-3.11,8.98,0.29444444444444445,-0.20444444444444448,-0.8366666666666667,-4.9375,-1.25,39.0625
1589381223.6430695,-1.68,-3.14,8.93,0.29444444444444445,-0.20444444444444448,-0.8366666666666667,-1.4375,-6.375,36.8125
1589381223.6535587,-1.69,-3.11,8.9,0.29444444444444445,-0.20444444444444448,-0.8366666666666667,-4.3125,-9.8125,30.375
1589381223.663264,-1.75,-3.16,8.87,0.29444444444444445,-0.20444444444444448,-0.8366666666666667,5.3125,3.375,27.0625
1589381223.6752832,-1.77,-3.16,8.87,0.29444444444444445,-0.20444444444444448,-0.8366666666666667,-0.8125,-2.0,27.5625
1589381223.6824865,-1.85,-3.2,8.89,0.3211111111111111,-0.24,-0.7711111111111111,-6.3125,2.125,27.8125
1589381223.6938345,-1.79,-3.21,8.94,0.3211111111111111,-0.24,-0.7711111111111111,-7.875,-2.625,21.3125
1589381223.7038796,-1.86,-3.22,8.84,0.3211111111111111,-0.24,-0.7711111111111111,-0.3125,1.5,14.5
1589381223.7152648,-1.88,-3.26,8.9,0.3211111111111111,-0.24,-0.7711111111111111,0.5625,-1.625,19.625
1589381223.725373,-1.85,-3.2,8.91,0.3211111111111111,-0.24,-0.7711111111111111,0.0625,1.125,19.125
1589381223.7339802,-1.86,-3.22,8.99,0.37666666666666665,-0.25222222222222224,-0.7355555555555555,-0.0625,-5.625,9.8125
1589381223.7487533,-1.88,-3.29,8.91,0.37666666666666665,-0.25222222222222224,-0.7355555555555555,-4.5625,2.75,1.75
1589381223.7548676,-1.91,-3.35,8.81,0.37666666666666665,-0.25222222222222224,-0.7355555555555555,2.9375,2.75,1.375
1589381223.7648394,-1.91,-3.38,8.84,0.37666666666666665,-0.25222222222222224,-0.7355555555555555,-8.875,-0.625,-1.25
1589381223.7756615,-1.92,-3.44,8.89,0.37666666666666665,-0.25222222222222224,-0.7355555555555555,-0.3125,-0.625,-5.875
1589381223.7838228,-1.9,-3.4,8.91,0.4266666666666667,-0.2466666666666667,-0.7266666666666667,-2.3125,6.0,-14.0
1589381223.793538,-1.86,-3.42,8.93,0.4266666666666667,-0.2466666666666667,-0.7266666666666667,0.4375,3.875,-17.625
1589381223.8042393,-1.89,-3.41,8.82,0.4266666666666667,-0.2466666666666667,-0.7266666666666667,-0.1875,2.0,-20.25
1589381223.8135705,-1.92,-3.33,8.85,0.4266666666666667,-0.2466666666666667,-0.7266666666666667,-1.1875,5.25,-24.9375
1589381223.8257635,-1.92,-3.27,8.96,0.4266666666666667,-0.2466666666666667,-0.7266666666666667,-5.9375,-0.375,-28.5
1589381223.8338408,-1.98,-3.33,8.96,0.46,-0.25,-0.7,-1.4375,5.25,-26.4375
1589381223.844467,-2.0,-3.37,8.98,0.46,-0.25,-0.7,6.3125,3.25,-28.0
1589381223.85453,-1.97,-3.4,8.82,0.46,-0.25,-0.7,1.5625,12.3125,-37.8125
1589381223.86453,-1.97,-3.38,8.86,0.46,-0.25,-0.7,-6.0625,2.625,-33.625
1589381223.8802016,-1.97,-3.39,8.91,0.46,-0.25,-0.7,6.8125,-4.375,-39.1875
1589381223.8859267,-2.09,-3.48,8.92,0.52,-0.19666666666666666,-0.6855555555555556,1.1875,3.0,-33.0
1589381223.8992784,-2.1,-3.43,8.83,0.52,-0.19666666666666666,-0.6855555555555556,0.8125,9.9375,-39.0625
1589381223.905201,-2.1,-3.46,8.83,0.52,-0.19666666666666666,-0.6855555555555556,2.3125,3.0,-41.1875
1589381223.919131,-2.09,-3.47,8.84,0.52,-0.19666666666666666,-0.6855555555555556,5.6875,6.625,-52.0625
1589381223.9264526,-1.96,-3.43,8.91,0.52,-0.19666666666666666,-0.6855555555555556,-1.1875,9.5625,-56.0
1589381223.9376733,-1.96,-3.38,8.91,0.5777777777777777,-0.16666666666666666,-0.7211111111111111,6.0625,4.375,-43.625
1589381223.9441993,-2.0,-3.4,8.96,0.5777777777777777,-0.16666666666666666,-0.7211111111111111,1.6875,1.5,-46.875
1589381223.9583929,-2.01,-3.44,8.85,0.5777777777777777,-0.16666666666666666,-0.7211111111111111,1.4375,8.6875,-52.1875
1589381223.9644768,-2.0,-3.42,8.88,0.5777777777777777,-0.16666666666666666,-0.7211111111111111,-7.125,4.25,-46.875
1589381223.9763794,-1.95,-3.41,8.9,0.5777777777777777,-0.16666666666666666,-0.7211111111111111,0.5625,-0.125,-39.8125
1589381223.9837673,-1.95,-3.41,8.91,0.6444444444444445,-0.15222222222222226,-0.7733333333333333,0.9375,6.0,-38.5625
1589381223.9941964,-2.0,-3.44,8.9,0.6444444444444445,-0.15222222222222226,-0.7733333333333333,0.0625,1.25,-39.6875
1589381224.0051706,-2.01,-3.45,8.82,0.6444444444444445,-0.15222222222222226,-0.7733333333333333,6.4375,0.625,-39.4375
1589381224.0150723,-1.94,-3.44,8.89,0.6444444444444445,-0.15222222222222226,-0.7733333333333333,-8.125,-0.75,-36.0625
1589381224.0286224,-1.93,-3.42,8.9,0.6444444444444445,-0.15222222222222226,-0.7733333333333333,-1.0625,2.25,-33.5
1589381224.035356,-1.92,-3.43,8.93,0.6433333333333333,-0.27111111111111114,-0.83,4.6875,0.5,-29.0
1589381224.0507474,-1.9,-3.43,8.9,0.6433333333333333,-0.27111111111111114,-0.83,-0.4375,1.625,-28.375
1589381224.0568256,-1.92,-3.45,8.82,0.6433333333333333,-0.27111111111111114,-0.83,-0.5625,5.125,-42.125
1589381224.0708485,-1.85,-3.45,8.88,0.6433333333333333,-0.27111111111111114,-0.83,1.6875,5.75,-23.5625
1589381224.0774796,-1.87,-3.49,8.93,0.6433333333333333,-0.27111111111111114,-0.83,-4.4375,2.25,-20.875
1589381224.0882044,-1.91,-3.54,8.92,0.5433333333333333,-0.24,-0.7422222222222222,5.3125,-4.5,-31.375
1589381224.09422,-1.88,-3.53,8.93,0.5433333333333333,-0.24,-0.7422222222222222,2.0625,3.375,-18.875
1589381224.1090982,-1.82,-3.51,8.81,0.5433333333333333,-0.24,-0.7422222222222222,-3.6875,-0.125,-12.0625
1589381224.1149294,-1.83,-3.49,8.86,0.5433333333333333,-0.24,-0.7422222222222222,2.8125,3.125,-18.25
1589381224.1271884,-1.81,-3.52,8.88,0.5433333333333333,-0.24,-0.7422222222222222,-1.0625,1.125,-15.375
1589381224.1343527,-1.79,-3.58,8.92,0.5155555555555555,-0.16666666666666666,-0.6855555555555556,6.4375,0.0,-12.3125
1589381224.1446269,-1.77,-3.49,8.89,0.5155555555555555,-0.16666666666666666,-0.6855555555555556,5.6875,0.0,-23.5625
1589381224.155336,-1.73,-3.54,8.82,0.5155555555555555,-0.16666666666666666,-0.6855555555555556,-1.4375,-4.5,-15.5
1589381224.1659114,-1.76,-3.62,8.86,0.5155555555555555,-0.16666666666666666,-0.6855555555555556,1.3125,-4.25,-18.625
1589381224.1771586,-1.77,-3.65,8.9,0.5155555555555555,-0.16666666666666666,-0.6855555555555556,7.875,10.1875,-3.875
1589381224.1881995,-1.84,-3.71,8.9,0.5077777777777778,-0.11888888888888888,-0.6877777777777778,-3.4375,9.6875,-3.125
1589381224.1948595,-1.82,-3.69,8.9,0.5077777777777778,-0.11888888888888888,-0.6877777777777778,-1.6875,1.875,-2.0
1589381224.2053134,-1.72,-3.58,8.79,0.5077777777777778,-0.11888888888888888,-0.6877777777777778,-1.8125,-4.875,-7.9375
1589381224.216208,-1.77,-3.62,8.83,0.5077777777777778,-0.11888888888888888,-0.6877777777777778,0.6875,1.5,-5.875
1589381224.2287614,-1.72,-3.59,8.92,0.5077777777777778,-0.11888888888888888,-0.6877777777777778,4.3125,1.125,-9.4375
1589381224.2404282,-1.74,-3.65,8.89,0.5433333333333333,-0.09222222222222222,-0.6711111111111111,-4.5625,2.75,-10.6875
1589381224.2476914,-1.7,-3.49,8.86,0.5433333333333333,-0.09222222222222222,-0.6711111111111111,6.3125,4.375,-2.5
1589381224.2605648,-1.66,-3.51,8.8,0.5433333333333333,-0.09222222222222222,-0.6711111111111111,3.9375,0.625,-5.875
1589381224.2671359,-1.68,-3.52,8.86,0.5433333333333333,-0.09222222222222222,-0.6711111111111111,5.0625,-0.125,-1.125
1589381224.282048,-1.56,-3.45,8.87,0.5433333333333333,-0.09222222222222222,-0.6711111111111111,-4.4375,-0.25,-0.5
1589381224.288763,-1.64,-3.56,8.95,0.5244444444444445,-0.045555555555555564,-0.6644444444444444,5.0625,4.125,-4.625
1589381224.2998815,-1.6,-3.44,8.89,0.5244444444444445,-0.045555555555555564,-0.6644444444444444,-1.0625,-5.0,-0.125
1589381224.3061244,-1.6,-3.53,8.84,0.5244444444444445,-0.045555555555555564,-0.6644444444444444,-2.0625,-6.0,-6.875
1589381224.3189907,-1.73,-3.64,8.86,0.5244444444444445,-0.045555555555555564,-0.6644444444444444,1.0625,-2.25,-5.0
1589381224.3278275,-1.72,-3.65,8.89,0.5244444444444445,-0.045555555555555564,-0.6644444444444444,-1.3125,0.875,-5.25
1589381224.3391151,-1.83,-3.74,8.93,0.5166666666666667,-0.03888888888888889,-0.6788888888888889,5.8125,2.25,0.5
1589381224.3454342,-1.88,-3.75,8.91,0.5166666666666667,-0.03888888888888889,-0.6788888888888889,-1.4375,-1.625,-9.1875
1589381224.3561993,-1.81,-3.55,8.82,0.5166666666666667,-0.03888888888888889,-0.6788888888888889,-6.8125,1.125,-4.0
1589381224.3659866,-1.84,-3.67,8.86,0.5166666666666667,-0.03888888888888889,-0.6788888888888889,2.4375,-4.125,1.875
1589381224.3781526,-1.8,-3.66,8.86,0.5166666666666667,-0.03888888888888889,-0.6788888888888889,0.0625,-3.875,-4.375
1589381224.3854787,-1.9,-3.8,9.14,0.5333333333333333,-0.03888888888888889,-0.6711111111111111,1.0625,6.5,0.625
1589381224.396345,-1.76,-3.73,8.44,0.5333333333333333,-0.03888888888888889,-0.6711111111111111,10.375,-1.125,-6.25
1589381224.4104776,-1.53,-3.5,9.05,0.5333333333333333,-0.03888888888888889,-0.6711111111111111,2.6875,2.5,-9.4375
1589381224.4163592,-1.3,-3.48,8.74,0.5333333333333333,-0.03888888888888889,-0.6711111111111111,3.9375,-1.5,-7.8125
1589381224.4303026,-1.67,-3.55,8.91,0.5333333333333333,-0.03888888888888889,-0.6711111111111111,3.3125,7.3125,-3.875
1589381224.4369767,-1.78,-3.7,8.89,0.5455555555555556,-0.03555555555555556,-0.6933333333333334,-1.8125,1.5,-1.25
1589381224.4466805,-1.66,-3.65,8.96,0.5455555555555556,-0.03555555555555556,-0.6933333333333334,0.0625,-1.125,0.75
1589381224.456802,-1.56,-3.56,8.8,0.5455555555555556,-0.03555555555555556,-0.6933333333333334,-0.4375,-0.25,-12.6875
1589381224.467746,-1.64,-3.65,8.87,0.5455555555555556,-0.03555555555555556,-0.6933333333333334,2.4375,1.375,-8.6875
1589381224.4786935,-1.69,-3.72,8.91,0.5455555555555556,-0.03555555555555556,-0.6933333333333334,4.8125,1.625,-11.6875
1589381224.4905994,-1.6,-3.62,8.94,0.56,-0.021111111111111112,-0.6788888888888889,-2.9375,-1.125,-3.625
1589381224.4961455,-1.63,-3.62,8.89,0.56,-0.021111111111111112,-0.6788888888888889,2.6875,-2.0,-5.75
1589381224.5065765,-1.62,-3.62,8.79,0.56,-0.021111111111111112,-0.6788888888888889,2.1875,-0.25,-0.125
1589381224.516688,-1.64,-3.64,8.86,0.56,-0.021111111111111112,-0.6788888888888889,-1.0625,-2.125,-9.6875
1589381224.528895,-1.69,-3.69,8.86,0.56,-0.021111111111111112,-0.6788888888888889,-0.1875,-2.5,9.9375
1589381224.5358171,-1.69,-3.75,8.92,0.5522222222222222,-0.021111111111111112,-0.7,4.4375,6.125,-0.625
1589381224.5466304,-1.6,-3.82,8.9,0.5522222222222222,-0.021111111111111112,-0.7,0.1875,-1.125,-1.875
1589381224.5603335,-1.62,-3.85,8.79,0.5522222222222222,-0.021111111111111112,-0.7,3.8125,-1.0,3.0
1589381224.5665498,-1.58,-3.74,8.84,0.5522222222222222,-0.021111111111111112,-0.7,2.4375,3.125,-1.875
1589381224.5838606,-1.63,-3.73,8.91,0.5522222222222222,-0.021111111111111112,-0.7,-3.4375,-6.25,0.25
1589381224.5897539,-1.67,-3.72,8.9,0.5911111111111111,-0.021111111111111112,-0.7155555555555555,-0.4375,1.5,0.0
1589381224.5972586,-1.79,-3.83,8.91,0.5911111111111111,-0.021111111111111112,-0.7155555555555555,2.3125,-0.75,10.8125
1589381224.6091585,-1.16,-3.96,8.88,0.5911111111111111,-0.021111111111111112,-0.7155555555555555,3.1875,-0.5,-5.5
1589381224.6206815,-1.81,-4.18,9.01,0.5911111111111111,-0.021111111111111112,-0.7155555555555555,-0.5625,-1.5,9.0625
1589381224.6285634,-1.49,-4.05,8.66,0.5911111111111111,-0.021111111111111112,-0.7155555555555555,-2.4375,-1.125,-9.8125
1589381224.640455,-1.51,-3.89,8.87,0.6577777777777778,-0.054444444444444434,-0.6977777777777778,-5.3125,2.125,-4.375
1589381224.647933,-1.46,-3.84,8.89,0.6577777777777778,-0.054444444444444434,-0.6977777777777778,4.0625,-6.75,-1.5
1589381224.659352,-1.44,-3.76,8.79,0.6577777777777778,-0.054444444444444434,-0.6977777777777778,-3.8125,3.375,-12.5625
1589381224.6678553,-1.48,-3.76,8.87,0.6577777777777778,-0.054444444444444434,-0.6977777777777778,0.5625,1.875,-5.875
1589381224.6806645,-1.56,-3.81,8.91,0.6577777777777778,-0.054444444444444434,-0.6977777777777778,-4.1875,0.625,-16.0
1589381224.6872144,-1.55,-3.82,8.92,0.8422222222222222,-0.09333333333333334,-0.7144444444444444,-1.3125,2.375,-6.5
1589381224.6980774,-1.62,-4.01,8.88,0.8422222222222222,-0.09333333333333334,-0.7144444444444444,1.3125,1.25,-17.0
1589381224.708384,-1.47,-4.12,8.78,0.8422222222222222,-0.09333333333333334,-0.7144444444444444,0.3125,3.75,-24.3125
1589381224.7206204,-1.19,-3.88,8.85,0.8422222222222222,-0.09333333333333334,-0.7144444444444444,-4.0625,4.0,-12.4375
1589381224.7287912,-1.24,-3.75,8.89,0.8422222222222222,-0.09333333333333334,-0.7144444444444444,1.8125,1.375,-25.3125
1589381224.7404575,-1.26,-3.63,8.91,1.2844444444444445,-0.18777777777777774,-0.8066666666666666,-0.6875,2.125,-33.25
1589381224.7475774,-1.28,-3.63,8.88,1.2844444444444445,-0.18777777777777774,-0.8066666666666666,1.8125,3.125,-41.1875
1589381224.7590628,-1.23,-3.68,8.84,1.2844444444444445,-0.18777777777777774,-0.8066666666666666,-1.0625,8.0625,-41.6875
1589381224.76896,-1.26,-3.73,8.82,1.2844444444444445,-0.18777777777777774,-0.8066666666666666,-0.4375,7.5625,-49.5625
1589381224.7800179,-1.28,-3.81,8.86,1.2844444444444445,-0.18777777777777774,-0.8066666666666666,5.4375,-0.125,-54.8125
1589381224.7924767,-1.36,-3.71,8.91,1.6777777777777778,-0.5333333333333333,-1.1955555555555557,-3.3125,5.25,-51.3125
1589381224.7998304,-1.39,-3.69,8.92,1.6777777777777778,-0.5333333333333333,-1.1955555555555557,2.0625,3.0,-48.125
1589381224.8133385,-1.35,-3.67,8.83,1.6777777777777778,-0.5333333333333333,-1.1955555555555557,2.1875,3.625,-54.6875
1589381224.820144,-1.26,-3.57,8.9,1.6777777777777778,-0.5333333333333333,-1.1955555555555557,2.6875,-0.125,-55.5625
1589381224.830134,-1.25,-3.54,8.93,1.6777777777777778,-0.5333333333333333,-1.1955555555555557,-5.9375,1.0,-52.8125
1589381224.837646,-1.27,-3.53,8.98,0.9522222222222222,-0.4011111111111111,-0.8655555555555555,-3.1875,2.75,-49.5625
1589381224.8488605,-1.22,-3.49,8.94,0.9522222222222222,-0.4011111111111111,-0.8655555555555555,5.4375,4.25,-54.5625
1589381224.8587315,-1.23,-3.57,8.88,0.9522222222222222,-0.4011111111111111,-0.8655555555555555,5.6875,7.6875,-52.8125
1589381224.8721936,-1.39,-3.76,8.85,0.9522222222222222,-0.4011111111111111,-0.8655555555555555,2.6875,6.5,-50.0625
1589381224.8794599,-1.55,-3.89,8.89,0.9522222222222222,-0.4011111111111111,-0.8655555555555555,2.5625,-2.375,-37.9375
1589381224.8871126,-1.53,-3.89,8.87,0.6877777777777778,-0.1288888888888889,-0.75,-2.8125,0.375,-40.6875
1589381224.8933694,-1.53,-3.89,8.87,0.6877777777777778,-0.1288888888888889,-0.75,-2.8125,0.375,-40.6875
1589381224.899957,-1.46,-3.91,8.91,0.6877777777777778,-0.1288888888888889,-0.75,3.5625,2.5,-29.75
1589381224.9115336,-1.51,-4.06,8.79,0.6877777777777778,-0.1288888888888889,-0.75,3.1875,1.625,-23.6875
1589381224.9223135,-1.49,-4.2,8.82,0.6877777777777778,-0.1288888888888889,-0.75,-0.9375,5.25,-12.0625
1589381224.9303393,-1.09,-4.0,8.89,0.6877777777777778,-0.1288888888888889,-0.75,-0.5625,-3.625,-15.125
1589381224.9367378,-1.11,-3.72,8.94,0.6044444444444445,-0.004444444444444445,-0.75,1.6875,-10.9375,-5.625
1589381224.948608,-1.12,-3.53,8.91,0.6044444444444445,-0.004444444444444445,-0.75,-4.0625,3.375,-12.5625
1589381224.9633672,-1.11,-3.46,8.85,0.6044444444444445,-0.004444444444444445,-0.75,7.125,0.25,-18.25
1589381224.969295,-1.1,-3.52,8.87,0.6044444444444445,-0.004444444444444445,-0.75,9.375,-4.0,-11.0625
1589381224.9797075,-1.1,-3.6,8.93,0.6044444444444445,-0.004444444444444445,-0.75,5.1875,0.125,-16.0
1589381224.9873974,-1.09,-3.63,8.92,0.5522222222222222,0.05111111111111112,-0.7355555555555555,1.0625,3.125,-10.4375
1589381224.9996548,-1.09,-3.54,8.9,0.5522222222222222,0.05111111111111112,-0.7355555555555555,3.1875,-5.0,-6.625
1589381225.008827,-1.12,-3.64,8.84,0.5522222222222222,0.05111111111111112,-0.7355555555555555,-0.1875,-1.25,-12.6875
1589381225.0229769,-1.14,-3.73,8.87,0.5522222222222222,0.05111111111111112,-0.7355555555555555,-4.6875,-5.0,-4.75
1589381225.0315602,-1.01,-3.63,8.9,0.5522222222222222,0.05111111111111112,-0.7355555555555555,-2.1875,0.625,-3.125
1589381225.0418975,-0.86,-3.45,8.94,0.5611111111111111,0.054444444444444434,-0.7211111111111111,-2.3125,3.375,-14.125
1589381225.0488346,-0.88,-3.42,8.91,0.5611111111111111,0.054444444444444434,-0.7211111111111111,0.5625,0.875,-17.5
1589381225.0603428,-0.85,-3.44,8.86,0.5611111111111111,0.054444444444444434,-0.7211111111111111,-1.4375,4.25,-10.4375
1589381225.0689628,-0.86,-3.42,8.85,0.5611111111111111,0.054444444444444434,-0.7211111111111111,4.6875,-1.5,-18.75
1589381225.080964,-0.94,-3.57,8.91,0.5611111111111111,0.054444444444444434,-0.7211111111111111,1.3125,4.75,-9.6875
1589381225.0883932,-0.96,-3.6,8.93,0.5422222222222223,0.07555555555555556,-0.7288888888888889,-1.4375,5.875,-25.9375
1589381225.1003664,-1.06,-3.72,8.92,0.5422222222222223,0.07555555555555556,-0.7288888888888889,2.5625,0.125,-10.4375
1589381225.1087055,-0.97,-3.86,8.78,0.5422222222222223,0.07555555555555556,-0.7288888888888889,1.6875,3.125,-3.5
1589381225.1214395,-0.84,-3.89,8.88,0.5422222222222223,0.07555555555555556,-0.7288888888888889,-3.5625,6.625,-3.125
1589381225.1313276,-0.79,-3.81,8.79,0.5422222222222223,0.07555555555555556,-0.7288888888888889,-4.1875,1.25,-13.4375
1589381225.1379688,-0.74,-3.73,8.96,0.5577777777777778,0.06333333333333334,-0.7211111111111111,-3.1875,-3.5,-10.3125
1589381225.143554,-0.74,-3.73,8.96,0.5577777777777778,0.06333333333333334,-0.7211111111111111,-3.1875,-3.5,-10.3125
1589381225.1538782,-0.71,-3.63,8.86,0.5577777777777778,0.06333333333333334,-0.7211111111111111,3.0625,10.1875,-25.1875
1589381225.1605835,-0.73,-3.59,8.82,0.5577777777777778,0.06333333333333334,-0.7211111111111111,-0.6875,8.8125,-22.6875
1589381225.1739635,-0.72,-3.62,8.87,0.5577777777777778,0.06333333333333334,-0.7211111111111111,4.8125,3.75,-28.5
1589381225.1823127,-0.8,-3.72,8.91,0.5577777777777778,0.06333333333333334,-0.7211111111111111,4.0625,6.875,-33.375
1589381225.1921904,-0.71,-3.79,8.92,0.51,0.05111111111111112,-0.6644444444444444,3.8125,7.0625,-39.6875
1589381225.199496,-0.51,-3.7,8.92,0.51,0.05111111111111112,-0.6644444444444444,-3.3125,1.125,-35.6875
1589381225.210264,-0.6,-3.68,8.83,0.51,0.05111111111111112,-0.6644444444444444,2.9375,5.25,-48.125
1589381225.2201974,-0.8,-3.72,8.98,0.51,0.05111111111111112,-0.6644444444444444,2.8125,15.5,-59.625
1589381225.2303984,-0.93,-3.78,8.97,0.51,0.05111111111111112,-0.6644444444444444,5.8125,2.375,-53.5625
1589381225.2380686,-8.38,-15.33,6.04,0.4988888888888889,0.11888888888888888,-0.6666666666666666,-49.375,51.8125,-301.1875
1589381225.250907,2.04,1.6,3.86,0.4988888888888889,0.11888888888888888,-0.6666666666666666,-2.4375,9.1875,-290.0625
1589381225.258699,0.89,-2.25,16.21,0.4988888888888889,0.11888888888888888,-0.6666666666666666,74.9375,70.5,-293.1875
1589381225.2699661,-0.89,-0.39,8.95,0.4988888888888889,0.11888888888888888,-0.6666666666666666,-0.5625,20.125,-267.875
1589381225.2811475,-2.82,-0.21,7.04,0.4988888888888889,0.11888888888888888,-0.6666666666666666,2.6875,11.1875,-238.625
1589381225.2930393,-0.5,-0.34,9.25,0.4988888888888889,0.18666666666666668,-0.6622222222222223,4.8125,19.625,-205.1875
1589381225.3040307,-1.27,-0.06,9.47,0.4988888888888889,0.18666666666666668,-0.6622222222222223,4.6875,14.375,-157.0
1589381225.3102345,-0.48,-0.21,9.06,0.4988888888888889,0.18666666666666668,-0.6622222222222223,-2.1875,16.125,-123.8125
1589381225.3193738,0.34,-0.85,9.0,0.4988888888888889,0.18666666666666668,-0.6622222222222223,-0.0625,14.875,-99.25
1589381225.331307,0.18,-2.29,8.74,0.4988888888888889,0.18666666666666668,-0.6622222222222223,5.0625,0.75,-63.4375
1589381225.3390102,0.07,-2.72,9.23,0.44222222222222224,0.2733333333333333,-0.6555555555555556,3.9375,7.0625,-51.0625
1589381225.3498955,-0.09,-2.78,8.99,0.44222222222222224,0.2733333333333333,-0.6555555555555556,0.1875,-2.625,-20.25
1589381225.3603284,-0.34,-2.95,9.08,0.44222222222222224,0.2733333333333333,-0.6555555555555556,3.3125,3.5,-4.875
1589381225.3693187,-0.47,-3.06,8.71,0.44222222222222224,0.2733333333333333,-0.6555555555555556,2.4375,-0.625,7.0625
1589381225.3818707,-0.42,-3.19,8.93,0.44222222222222224,0.2733333333333333,-0.6555555555555556,7.75,5.875,28.625
1589381225.389804,-2.08,-7.15,9.17,0.41,0.32666666666666666,-0.67,-6.0625,-18.25,102.25
1589381225.4015641,2.54,-1.46,9.49,0.41,0.32666666666666666,-0.67,-9.25,-11.8125,74.875
1589381225.4096956,0.96,-2.61,9.13,0.41,0.32666666666666666,-0.67,4.0625,4.25,77.4375
1589381225.4200494,-1.78,-6.48,8.95,0.41,0.32666666666666666,-0.67,-5.8125,-22.0625,83.1875
1589381225.4315386,-0.07,-4.81,9.23,0.41,0.32666666666666666,-0.67,3.8125,-5.0,78.8125
1589381225.4393175,0.25,-3.86,8.88,0.44,0.3244444444444444,-0.6411111111111111,-7.25,2.75,81.5625
1589381225.4462886,0.25,-3.86,8.88,0.44,0.3244444444444444,-0.6411111111111111,-7.25,2.75,81.5625
1589381225.454576,0.1,-4.03,8.85,0.44,0.3244444444444444,-0.6411111111111111,-0.4375,-9.6875,81.6875
1589381225.4635973,0.01,-4.3,8.68,0.44,0.3244444444444444,-0.6411111111111111,-1.9375,-9.9375,77.0625
1589381225.4758024,-0.01,-4.23,8.86,0.44,0.3244444444444444,-0.6411111111111111,5.8125,-2.375,81.9375
1589381225.4816394,-0.01,-4.11,8.83,0.44,0.3244444444444444,-0.6411111111111111,-0.6875,-5.75,77.6875
1589381225.4900358,-0.07,-4.25,8.85,0.4544444444444444,0.2933333333333333,-0.6533333333333333,-3.3125,-12.4375,73.375
1589381225.5019858,-0.09,-4.35,8.88,0.4544444444444444,0.2933333333333333,-0.6533333333333333,1.3125,-8.4375,74.5
1589381225.5140011,4.71,-12.76,8.11,0.4544444444444444,0.2933333333333333,-0.6533333333333333,1.6875,-3.0,27.4375
1589381225.520816,-0.4,-2.08,8.51,0.4544444444444444,0.2933333333333333,-0.6533333333333333,4.1875,1.5,17.0
1589381225.5321734,-0.06,-3.68,9.09,0.4544444444444444,0.2933333333333333,-0.6533333333333333,-7.875,-6.75,1.0
1589381225.5401065,-0.16,-4.02,8.99,0.4688888888888889,0.27555555555555555,-0.6611111111111111,0.5625,1.0,2.25
1589381225.5547366,-0.32,-4.21,8.85,0.4688888888888889,0.27555555555555555,-0.6611111111111111,0.8125,0.0,6.0
1589381225.5608988,-0.34,-4.07,8.76,0.4688888888888889,0.27555555555555555,-0.6611111111111111,-3.9375,0.75,1.0
1589381225.5719619,-0.32,-4.22,8.79,0.4688888888888889,0.27555555555555555,-0.6611111111111111,-3.4375,-3.625,4.375
1589381225.5816839,-0.3,-4.18,8.85,0.4688888888888889,0.27555555555555555,-0.6611111111111111,3.8125,1.875,3.125
1589381225.5935745,-0.32,-4.09,8.85,0.4688888888888889,0.2677777777777778,-0.6533333333333333,0.4375,-1.75,1.0
1589381225.6004586,-0.29,-4.14,8.91,0.4688888888888889,0.2677777777777778,-0.6533333333333333,2.5625,2.0,-2.0
1589381225.6123755,-0.31,-4.13,8.74,0.4688888888888889,0.2677777777777778,-0.6533333333333333,-0.6875,7.0625,-0.25
1589381225.6212409,-0.33,-4.16,8.81,0.4688888888888889,0.2677777777777778,-0.6533333333333333,-5.1875,7.4375,-3.375
1589381225.6334558,-0.3,-4.16,8.8,0.4688888888888889,0.2677777777777778,-0.6533333333333333,5.0625,4.125,6.625
1589381225.640697,-0.31,-4.14,8.8,0.4688888888888889,0.25555555555555554,-0.6611111111111111,2.8125,-3.375,2.375
1589381225.6521626,-0.33,-4.11,8.84,0.4688888888888889,0.25555555555555554,-0.6611111111111111,1.3125,-5.5,0.0
1589381225.6638196,-0.3,-4.13,8.77,0.4688888888888889,0.25555555555555554,-0.6611111111111111,0.9375,3.375,2.875
1589381225.6712518,-0.31,-4.11,8.79,0.4688888888888889,0.25555555555555554,-0.6611111111111111,2.8125,-3.625,8.9375
1589381225.6844606,-0.31,-4.14,8.83,0.4688888888888889,0.25555555555555554,-0.6611111111111111,-1.0625,7.0625,-3.0
1589381225.6914608,-0.32,-4.16,8.86,0.4833333333333333,0.2677777777777778,-0.6533333333333333,-0.3125,-4.875,5.5
1589381225.7061093,-0.28,-4.13,8.88,0.4833333333333333,0.2677777777777778,-0.6533333333333333,1.9375,1.25,-3.375
1589381225.7119806,-0.32,-4.13,8.78,0.4833333333333333,0.2677777777777778,-0.6533333333333333,3.4375,4.75,-14.375
1589381225.7215974,-0.3,-4.13,8.79,0.4833333333333333,0.2677777777777778,-0.6533333333333333,-0.8125,2.125,1.125
1589381225.7336216,-0.32,-4.14,8.83,0.4833333333333333,0.2677777777777778,-0.6533333333333333,1.0625,3.75,6.0
1589381225.7418787,-0.29,-4.14,8.86,0.4711111111111111,0.2611111111111111,-0.6611111111111111,3.5625,-4.125,0.25
1589381225.7516818,-0.3,-4.13,8.86,0.4711111111111111,0.2611111111111111,-0.6611111111111111,4.0625,0.25,-2.0
1589381225.762197,-0.32,-4.13,8.78,0.4711111111111111,0.2611111111111111,-0.6611111111111111,-2.3125,-4.25,5.75
1589381225.7717602,-0.3,-4.11,8.79,0.4711111111111111,0.2611111111111111,-0.6611111111111111,0.1875,3.75,7.4375
1589381225.7840805,-0.31,-4.15,8.82,0.4711111111111111,0.2611111111111111,-0.6611111111111111,-1.1875,-1.0,6.0
1589381225.7915487,-0.31,-4.14,8.86,0.4711111111111111,0.2488888888888889,-0.6466666666666666,2.0625,2.25,2.625
1589381225.8027427,-0.29,-4.14,8.84,0.4711111111111111,0.2488888888888889,-0.6466666666666666,0.8125,-4.75,-5.5
1589381225.813905,-0.32,-4.14,8.77,0.4711111111111111,0.2488888888888889,-0.6466666666666666,4.9375,1.0,-0.25
1589381225.822196,-0.31,-4.14,8.79,0.4711111111111111,0.2488888888888889,-0.6466666666666666,1.8125,-4.5,-4.0
1589381225.8340304,-0.32,-4.14,8.83,0.4711111111111111,0.2488888888888889,-0.6466666666666666,-5.4375,1.25,2.875
1589381225.8421295,-0.3,-4.14,8.86,0.4711111111111111,0.2488888888888889,-0.6466666666666666,3.9375,1.5,-3.0
1589381225.8571734,-0.29,-4.11,8.88,0.4711111111111111,0.2488888888888889,-0.6466666666666666,-10.875,1.25,11.5625
1589381225.8633347,-0.32,-4.11,8.77,0.4711111111111111,0.2488888888888889,-0.6466666666666666,3.8125,0.125,1.375
1589381225.8733964,-0.31,-4.12,8.8,0.4711111111111111,0.2488888888888889,-0.6466666666666666,2.4375,0.5,3.5
1589381225.884459,-0.3,-4.13,8.8,0.4711111111111111,0.2488888888888889,-0.6466666666666666,-5.4375,0.0,4.75
1589381225.8955612,-0.31,-4.15,8.84,0.4777777777777778,0.2611111111111111,-0.6755555555555556,-4.4375,2.5,7.1875
1589381225.9027364,-0.32,-4.13,8.83,0.4777777777777778,0.2611111111111111,-0.6755555555555556,-3.4375,9.1875,-0.125
1589381225.9133205,-0.31,-4.11,8.75,0.4777777777777778,0.2611111111111111,-0.6755555555555556,3.3125,0.375,-4.75
1589381225.9227355,-0.3,-4.13,8.79,0.4777777777777778,0.2611111111111111,-0.6755555555555556,-5.1875,3.5,-2.625
1589381225.9350786,-0.3,-4.14,8.84,0.4777777777777778,0.2611111111111111,-0.6755555555555556,1.1875,-2.875,6.875
1589381225.9418714,-0.32,-4.15,8.85,0.4711111111111111,0.25555555555555554,-0.6533333333333333,2.9375,-2.625,-6.5
1589381225.9529662,-0.3,-4.14,8.85,0.4711111111111111,0.25555555555555554,-0.6533333333333333,0.9375,3.125,-3.0
1589381225.9627533,-0.31,-4.13,8.76,0.4711111111111111,0.25555555555555554,-0.6533333333333333,-6.8125,-3.5,0.625
1589381225.9729536,-0.33,-4.14,8.81,0.4711111111111111,0.25555555555555554,-0.6533333333333333,-2.1875,-3.0,7.0625
1589381225.9885855,-0.29,-4.14,8.84,0.4711111111111111,0.25555555555555554,-0.6533333333333333,2.4375,-0.875,-6.125
1589381225.9945607,-0.33,-4.16,8.84,0.4777777777777778,0.2611111111111111,-0.6533333333333333,-5.0625,-4.5,3.125
1589381226.002093,-0.31,-4.14,8.86,0.4777777777777778,0.2611111111111111,-0.6533333333333333,1.1875,1.5,3.0
1589381226.013079,-0.34,-4.13,8.75,0.4777777777777778,0.2611111111111111,-0.6533333333333333,-1.6875,5.125,8.0625
1589381226.0230105,-0.32,-4.13,8.84,0.4777777777777778,0.2611111111111111,-0.6533333333333333,-1.9375,-3.0,-3.0
1589381226.0356574,-0.32,-4.15,8.84,0.4777777777777778,0.2611111111111111,-0.6533333333333333,-9.0,1.5,4.75
1589381226.0466824,-0.3,-4.14,8.86,0.4633333333333333,0.2488888888888889,-0.64,-1.8125,4.875,2.125
1589381226.0526648,-0.3,-4.15,8.81,0.4633333333333333,0.2488888888888889,-0.64,-1.5625,-6.25,7.8125
1589381226.067287,-0.33,-4.14,8.73,0.4633333333333333,0.2488888888888889,-0.64,0.3125,-0.625,3.75
1589381226.0733864,-0.32,-4.15,8.79,0.4633333333333333,0.2488888888888889,-0.64,3.4375,0.125,-2.75
1589381226.0853872,-0.31,-4.13,8.84,0.4633333333333333,0.2488888888888889,-0.64,8.375,2.25,-7.6875
1589381226.0927165,-0.31,-4.13,8.85,0.4777777777777778,0.2611111111111111,-0.6611111111111111,-6.4375,-0.875,10.4375
1589381226.1035006,-0.29,-4.15,8.84,0.4777777777777778,0.2611111111111111,-0.6611111111111111,5.0625,2.375,-2.375
1589381226.1133168,-0.31,-4.15,8.75,0.4777777777777778,0.2611111111111111,-0.6611111111111111,-1.4375,-3.625,-1.625
1589381226.123882,-0.3,-4.15,8.81,0.4777777777777778,0.2611111111111111,-0.6611111111111111,-6.3125,-5.375,-0.5
1589381226.1377358,-0.31,-4.13,8.84,0.4777777777777778,0.2611111111111111,-0.6611111111111111,0.3125,-1.625,4.125
1589381226.1436481,-0.3,-4.13,8.86,0.4833333333333333,0.2677777777777778,-0.6844444444444444,-0.4375,-2.5,8.6875
1589381226.1590526,-0.33,-4.15,8.83,0.4833333333333333,0.2677777777777778,-0.6844444444444444,0.9375,2.375,4.875
1589381226.1654446,-0.29,-4.14,8.74,0.4833333333333333,0.2677777777777778,-0.6844444444444444,-3.6875,2.375,1.0
1589381226.1740048,-0.3,-4.15,8.79,0.4833333333333333,0.2677777777777778,-0.6844444444444444,-1.9375,4.625,-2.375
1589381226.185751,-0.31,-4.13,8.83,0.4833333333333333,0.2677777777777778,-0.6844444444444444,1.4375,-3.75,-0.5
1589381226.197454,-0.3,-4.16,8.87,0.49,0.2611111111111111,-0.6844444444444444,-3.6875,1.25,-3.25
1589381226.204199,-0.31,-4.12,8.86,0.49,0.2611111111111111,-0.6844444444444444,-1.5625,3.375,1.625
1589381226.2176704,-0.32,-4.14,8.72,0.49,0.2611111111111111,-0.6844444444444444,-1.5625,3.125,-3.375
1589381226.2245104,-0.3,-4.13,8.81,0.49,0.2611111111111111,-0.6844444444444444,3.1875,2.625,2.5
1589381226.240104,-0.32,-4.14,8.84,0.49,0.2611111111111111,-0.6844444444444444,-8.0,-3.75,5.625
1589381226.2464368,-0.31,-4.14,8.87,0.4777777777777778,0.25555555555555554,-0.6466666666666666,-1.8125,-0.5,4.125
1589381226.2571108,-0.3,-4.16,8.86,0.4777777777777778,0.25555555555555554,-0.6466666666666666,-1.8125,-7.0625,4.125
1589381226.2638712,-0.3,-4.14,8.74,0.4777777777777778,0.25555555555555554,-0.6466666666666666,7.375,4.0,-11.0625
1589381226.2748466,-0.31,-4.13,8.8,0.4777777777777778,0.25555555555555554,-0.6466666666666666,5.5625,1.75,-7.1875
1589381226.2890036,-0.31,-4.13,8.82,0.4777777777777778,0.25555555555555554,-0.6466666666666666,-7.625,0.25,-1.625
1589381226.2949936,-0.31,-4.13,8.88,0.4777777777777778,0.2677777777777778,-0.6533333333333333,7.25,0.625,0.75
1589381226.303536,-0.3,-4.14,8.83,0.4777777777777778,0.2677777777777778,-0.6533333333333333,5.4375,1.125,8.4375
1589381226.3140302,-0.31,-4.13,8.73,0.4777777777777778,0.2677777777777778,-0.6533333333333333,-3.4375,4.375,-0.5
