time,acc_x,acc_y,acc_z,mag_x,mag_y,mag_z,gyr_x,gyr_y,gyr_z
1589552135.3423805,0.49,-4.19,8.85,0.4577777777777778,0.31222222222222223,-0.6933333333333334,-2.75,2.5625,-2.875
1589552135.3532598,0.5,-4.21,8.86,0.4577777777777778,0.31222222222222223,-0.6933333333333334,1.0,2.8125,-0.125
1589552135.3588154,0.49,-4.23,8.78,0.4577777777777778,0.31222222222222223,-0.6933333333333334,3.75,2.5625,-8.8125
1589552135.371789,0.5,-4.24,8.79,0.4577777777777778,0.31222222222222223,-0.6933333333333334,-2.625,-2.3125,2.125
1589552135.378488,0.5,-4.16,8.86,0.4577777777777778,0.31222222222222223,-0.6933333333333334,0.375,-2.9375,-3.5
1589552135.3881936,0.54,-4.17,8.94,0.4533333333333333,0.32666666666666666,-0.7022222222222222,-3.5,-11.5,1.5
1589552135.3965993,0.51,-4.21,8.91,0.4533333333333333,0.32666666666666666,-0.7022222222222222,1.75,4.3125,-7.3125
1589552135.4105735,0.52,-4.27,8.74,0.4533333333333333,0.32666666666666666,-0.7022222222222222,-1.5,0.0625,0.25
1589552135.4165895,0.51,-4.34,8.77,0.4533333333333333,0.32666666666666666,-0.7022222222222222,6.375,0.0625,-4.625
1589552135.429002,0.51,-4.36,8.82,0.4533333333333333,0.32666666666666666,-0.7022222222222222,-3.625,4.3125,3.375
1589552135.436436,0.5,-4.34,8.85,0.4577777777777778,0.31222222222222223,-0.7,-0.375,-3.9375,0.75
1589552135.4471686,0.52,-4.33,8.8,0.4577777777777778,0.31222222222222223,-0.7,-0.75,1.0625,-7.4375
1589552135.4574757,0.52,-4.31,8.74,0.4577777777777778,0.31222222222222223,-0.7,3.25,8.0,3.125
1589552135.4669394,0.55,-4.28,8.79,0.4577777777777778,0.31222222222222223,-0.7,3.375,-1.8125,-2.625
1589552135.4809678,0.51,-4.28,8.83,0.4577777777777778,0.31222222222222223,-0.7,-2.0,-5.1875,-5.875
1589552135.488901,0.53,-4.28,8.89,0.4655555555555556,0.3322222222222222,-0.6855555555555556,1.875,-2.1875,3.75
1589552135.496373,0.51,-4.25,8.86,0.4655555555555556,0.3322222222222222,-0.6855555555555556,1.25,-6.0625,0.5
1589552135.507822,0.51,-4.25,8.8,0.4655555555555556,0.3322222222222222,-0.6855555555555556,2.0,-3.6875,-6.0
1589552135.5228682,0.51,-4.21,8.83,0.4655555555555556,0.3322222222222222,-0.6855555555555556,0.875,-0.5625,-3.875
1589552135.5290926,0.51,-4.2,8.85,0.4655555555555556,0.3322222222222222,-0.6855555555555556,1.25,6.3125,-0.875
1589552135.5417588,0.52,-4.22,8.85,0.4533333333333333,0.32,-0.6855555555555556,4.375,1.6875,-4.5
1589552135.5490446,0.52,-4.23,8.85,0.4533333333333333,0.32,-0.6855555555555556,5.25,-1.1875,-5.875
1589552135.560542,0.51,-4.23,8.72,0.4533333333333333,0.32,-0.6855555555555556,1.25,-2.3125,-11.3125
1589552135.567265,0.48,-4.22,8.76,0.4533333333333333,0.32,-0.6855555555555556,1.0,2.8125,-3.625
1589552135.5806036,0.51,-4.23,8.84,0.4533333333333333,0.32,-0.6855555555555556,-5.875,0.9375,0.25
1589552135.5878284,0.53,-4.23,8.9,0.4533333333333333,0.32666666666666666,-0.7144444444444444,4.25,8.25,-2.0
1589552135.5971014,0.51,-4.24,8.88,0.4533333333333333,0.32666666666666666,-0.7144444444444444,1.75,0.4375,-13.5625
1589552135.6072586,0.52,-4.26,8.8,0.4533333333333333,0.32666666666666666,-0.7144444444444444,8.6875,-1.4375,-2.625
1589552135.620509,0.5,-4.24,8.81,0.4533333333333333,0.32666666666666666,-0.7144444444444444,6.375,-1.8125,-8.9375
1589552135.629386,0.48,-4.22,8.83,0.4533333333333333,0.32666666666666666,-0.7144444444444444,4.75,1.3125,-0.875
1589552135.6375012,0.46,-4.22,8.86,0.4577777777777778,0.32666666666666666,-0.6933333333333334,-8.6875,-2.4375,0.0
1589552135.6475165,0.47,-4.18,8.85,0.4577777777777778,0.32666666666666666,-0.6933333333333334,-0.625,5.6875,-8.6875
1589552135.6586313,0.51,-4.19,8.79,0.4577777777777778,0.32666666666666666,-0.6933333333333334,1.625,-1.4375,-5.875
1589552135.6673884,0.52,-4.18,8.81,0.4577777777777778,0.32666666666666666,-0.6933333333333334,1.0,-3.9375,-3.75
1589552135.6794727,0.53,-4.2,8.8,0.4577777777777778,0.32666666666666666,-0.6933333333333334,2.125,-2.9375,4.125
1589552135.6897411,0.53,-4.21,8.86,0.4455555555555555,0.3388888888888889,-0.6788888888888889,-0.625,1.0625,-2.125
1589552135.698324,0.48,-4.21,8.78,0.4455555555555555,0.3388888888888889,-0.6788888888888889,-1.625,2.1875,-2.125
1589552135.712208,0.47,-4.22,8.77,0.4455555555555555,0.3388888888888889,-0.6788888888888889,0.375,4.6875,2.5
1589552135.7207456,0.46,-4.18,8.78,0.4455555555555555,0.3388888888888889,-0.6788888888888889,5.0,-1.0625,-3.75
1589552135.7339926,0.48,-4.16,8.85,0.4455555555555555,0.3388888888888889,-0.6788888888888889,-1.0,-4.1875,-4.0
1589552135.7401354,0.51,-4.2,8.87,0.4455555555555555,0.32,-0.6933333333333334,-5.125,-7.25,-5.5
1589552135.7483678,0.54,-4.23,8.84,0.4455555555555555,0.32,-0.6933333333333334,0.5,1.3125,0.75
1589552135.7579658,0.53,-4.22,8.78,0.4455555555555555,0.32,-0.6933333333333334,-5.125,0.5625,2.5
1589552135.771412,0.58,-4.18,8.81,0.4455555555555555,0.32,-0.6933333333333334,2.0,-8.875,-1.75
1589552135.7801461,0.55,-4.18,8.88,0.4455555555555555,0.32,-0.6933333333333334,-1.25,-1.0625,-0.375
1589552135.7911355,0.57,-4.15,8.83,0.4533333333333333,0.31222222222222223,-0.6855555555555556,-3.625,1.8125,-6.25
1589552135.7985294,0.6,-4.16,8.88,0.4533333333333333,0.31222222222222223,-0.6855555555555556,3.25,-0.9375,-0.5
1589552135.8081179,0.62,-4.24,8.79,0.4533333333333333,0.31222222222222223,-0.6855555555555556,2.0,-3.3125,-0.375
1589552135.818526,0.61,-4.23,8.81,0.4533333333333333,0.31222222222222223,-0.6855555555555556,-2.125,1.6875,3.125
1589552135.8304439,0.57,-4.23,8.83,0.4533333333333333,0.31222222222222223,-0.6855555555555556,1.0,-2.8125,1.875
1589552135.8371232,0.58,-4.26,8.86,0.4533333333333333,0.3466666666666667,-0.6933333333333334,3.5,1.1875,-8.5625
1589552135.8474116,0.58,-4.26,8.86,0.4533333333333333,0.3466666666666667,-0.6933333333333334,3.5,1.1875,-8.5625
1589552135.8525553,0.54,-4.23,8.8,0.4533333333333333,0.3466666666666667,-0.6933333333333334,-1.25,-0.0625,-2.25
1589552135.8641546,0.53,-4.2,8.76,0.4533333333333333,0.3466666666666667,-0.6933333333333334,6.0,2.5625,-7.5625
1589552135.8708644,0.54,-4.16,8.8,0.4533333333333333,0.3466666666666667,-0.6933333333333334,3.875,0.8125,-3.875
1589552135.8854866,0.59,-4.24,8.82,0.4533333333333333,0.3466666666666667,-0.6933333333333334,-0.625,-0.1875,0.25
1589552135.891621,0.61,-4.29,8.83,0.4577777777777778,0.32666666666666666,-0.6855555555555556,-3.375,2.9375,-4.0
1589552135.9047582,0.63,-4.34,8.83,0.4577777777777778,0.32666666666666666,-0.6855555555555556,0.125,-0.8125,-0.875
1589552135.911584,0.62,-4.37,8.75,0.4577777777777778,0.32666666666666666,-0.6855555555555556,0.875,4.6875,-10.5625
1589552135.9228404,0.57,-4.26,8.79,0.4577777777777778,0.32666666666666666,-0.6855555555555556,0.875,-4.4375,-8.0625
1589552135.9308147,0.53,-4.23,8.88,0.4577777777777778,0.32666666666666666,-0.6855555555555556,-6.375,-4.9375,-2.75
1589552135.9429088,0.45,-4.25,8.9,0.4577777777777778,0.3322222222222222,-0.6855555555555556,4.0,0.9375,-11.6875
1589552135.9500198,0.49,-4.22,8.83,0.4577777777777778,0.3322222222222222,-0.6855555555555556,1.75,-3.5625,-12.4375
1589552135.961643,0.47,-4.31,8.8,0.4577777777777778,0.3322222222222222,-0.6855555555555556,-4.625,3.9375,-7.5625
1589552135.9695473,0.41,-4.38,8.79,0.4577777777777778,0.3322222222222222,-0.6855555555555556,4.0,5.1875,-9.4375
1589552135.9818509,0.39,-4.41,8.83,0.4577777777777778,0.3322222222222222,-0.6855555555555556,-2.375,1.3125,-8.6875
1589552135.9902887,0.4,-4.44,8.85,0.4655555555555556,0.3322222222222222,-0.6933333333333334,-3.125,-5.6875,-0.75
1589552135.9998856,0.37,-4.44,8.84,0.4655555555555556,0.3322222222222222,-0.6933333333333334,2.875,-1.8125,-11.0625
1589552136.0131087,0.39,-4.44,8.76,0.4655555555555556,0.3322222222222222,-0.6933333333333334,1.625,3.6875,-6.25
1589552136.0199249,0.48,-4.45,8.86,0.4655555555555556,0.3322222222222222,-0.6933333333333334,3.25,-2.9375,-11.4375
1589552136.0359182,0.47,-4.46,8.84,0.4655555555555556,0.3322222222222222,-0.6933333333333334,-0.75,3.8125,-9.5625
1589552136.0416586,0.53,-4.49,8.87,0.4533333333333333,0.3388888888888889,-0.6855555555555556,-3.125,-4.4375,-7.0625
1589552136.0498474,0.49,-4.22,8.86,0.4533333333333333,0.3388888888888889,-0.6855555555555556,3.5,1.0625,-1.25
1589552136.0633068,0.7,-4.24,8.9,0.4533333333333333,0.3388888888888889,-0.6855555555555556,4.625,5.9375,8.4375
1589552136.0746381,0.56,-4.31,8.74,0.4533333333333333,0.3388888888888889,-0.6855555555555556,3.625,0.5625,6.875
1589552136.0828009,0.44,-4.3,8.77,0.4533333333333333,0.3388888888888889,-0.6855555555555556,-5.75,2.6875,4.125
1589552136.0937905,0.57,-4.2,8.86,0.4388888888888889,0.3466666666666667,-0.6711111111111111,4.0,-1.4375,6.625
1589552136.100207,0.59,-4.22,8.85,0.4388888888888889,0.3466666666666667,-0.6711111111111111,0.375,-2.6875,0.75
1589552136.1144984,0.66,-4.16,8.74,0.4388888888888889,0.3466666666666667,-0.6711111111111111,2.25,2.6875,6.625
1589552136.1215196,0.66,-4.21,8.8,0.4388888888888889,0.3466666666666667,-0.6711111111111111,4.875,-2.8125,4.875
1589552136.1326652,0.66,-4.22,8.85,0.4388888888888889,0.3466666666666667,-0.6711111111111111,-2.125,-2.0625,5.75
1589552136.1396918,0.65,-4.18,8.95,0.4266666666666667,0.3322222222222222,-0.6855555555555556,0.5,-0.4375,9.5625
1589552136.152864,0.68,-4.12,8.92,0.4266666666666667,0.3322222222222222,-0.6855555555555556,3.75,-3.9375,5.875
1589552136.161348,0.76,-4.13,8.81,0.4266666666666667,0.3322222222222222,-0.6855555555555556,4.125,4.5625,-10.8125
1589552136.170334,0.78,-4.11,8.78,0.4266666666666667,0.3322222222222222,-0.6855555555555556,5.625,9.5,3.75
1589552136.1857936,0.85,-4.12,8.79,0.4266666666666667,0.3322222222222222,-0.6855555555555556,-0.25,-5.9375,7.4375
1589552136.1915324,0.86,-4.11,8.85,0.4533333333333333,0.3388888888888889,-0.6933333333333334,0.625,1.1875,4.75
1589552136.201732,0.89,-4.07,8.78,0.4533333333333333,0.3388888888888889,-0.6933333333333334,-3.625,-2.9375,11.6875
1589552136.213542,0.87,-4.07,8.72,0.4533333333333333,0.3388888888888889,-0.6933333333333334,-2.875,-4.0625,11.8125
1589552136.225743,0.81,-4.09,8.74,0.4533333333333333,0.3388888888888889,-0.6933333333333334,-0.5,-2.3125,0.625
1589552136.2328622,0.77,-4.09,8.82,0.4533333333333333,0.3388888888888889,-0.6933333333333334,-0.25,-3.0625,-8.9375
1589552136.2455823,0.73,-4.15,8.87,0.4388888888888889,0.3388888888888889,-0.6711111111111111,9.6875,0.4375,-2.875
1589552136.2514234,0.71,-4.16,8.9,0.4388888888888889,0.3388888888888889,-0.6711111111111111,0.875,-0.0625,15.25
1589552136.2656837,0.68,-4.16,8.83,0.4388888888888889,0.3388888888888889,-0.6711111111111111,-0.75,3.1875,6.375
1589552136.271497,0.74,-4.15,8.83,0.4388888888888889,0.3388888888888889,-0.6711111111111111,-0.875,8.25,7.1875
1589552136.285208,0.74,-4.17,8.83,0.4388888888888889,0.3388888888888889,-0.6711111111111111,0.125,-2.1875,9.9375
1589552136.291249,0.78,-4.2,8.85,0.4266666666666667,0.3466666666666667,-0.6855555555555556,-4.25,-3.5625,8.1875
1589552136.3042293,0.8,-4.2,8.87,0.4266666666666667,0.3466666666666667,-0.6855555555555556,-0.25,-4.5625,-0.375
1589552136.3107693,0.81,-4.19,8.72,0.4266666666666667,0.3466666666666667,-0.6855555555555556,-1.25,6.5625,0.375
1589552136.3217854,0.81,-4.21,8.76,0.4266666666666667,0.3466666666666667,-0.6855555555555556,-1.375,-1.0625,3.875
1589552136.3335798,0.76,-4.21,8.81,0.4266666666666667,0.3466666666666667,-0.6855555555555556,-6.75,1.9375,9.4375
1589552136.343335,0.68,-4.22,8.88,0.4577777777777778,0.3322222222222222,-0.6855555555555556,0.5,-4.8125,5.75
1589552136.351247,0.64,-4.23,8.87,0.4577777777777778,0.3322222222222222,-0.6855555555555556,-0.625,-0.8125,-0.375
1589552136.3611445,0.6,-4.21,8.79,0.4577777777777778,0.3322222222222222,-0.6855555555555556,-2.625,-1.8125,6.375
1589552136.3740525,0.6,-4.23,8.82,0.4577777777777778,0.3322222222222222,-0.6855555555555556,3.125,-1.0625,2.0
1589552136.3836064,0.61,-4.22,8.85,0.4577777777777778,0.3322222222222222,-0.6855555555555556,-1.25,-6.8125,0.75
1589552136.3957918,0.58,-4.22,8.84,0.4533333333333333,0.32666666666666666,-0.6933333333333334,-6.0,-4.3125,3.875
1589552136.40194,0.57,-4.22,8.84,0.4533333333333333,0.32666666666666666,-0.6933333333333334,-6.75,-0.0625,-1.5
1589552136.417225,0.59,-4.24,8.72,0.4533333333333333,0.32666666666666666,-0.6933333333333334,-1.25,4.8125,-2.0
1589552136.4236212,0.58,-4.24,8.78,0.4533333333333333,0.32666666666666666,-0.6933333333333334,-0.625,8.875,-1.625
1589552136.4340925,0.58,-4.22,8.82,0.4533333333333333,0.32666666666666666,-0.6933333333333334,1.625,-3.0625,8.6875
1589552136.4424965,0.57,-4.22,8.83,0.4455555555555555,0.3533333333333333,-0.6855555555555556,-0.125,0.8125,1.125
1589552136.4554946,0.58,-4.21,8.81,0.4455555555555555,0.3533333333333333,-0.6855555555555556,-5.25,1.8125,8.4375
1589552136.462236,0.58,-4.22,8.79,0.4455555555555555,0.3533333333333333,-0.6855555555555556,1.125,6.1875,3.25
1589552136.4726698,0.57,-4.22,8.82,0.4455555555555555,0.3533333333333333,-0.6855555555555556,-1.75,-1.9375,2.25
1589552136.483874,0.59,-4.23,8.87,0.4455555555555555,0.3533333333333333,-0.6855555555555556,-2.625,2.8125,-0.875
1589552136.4954002,0.57,-4.2,8.86,0.4533333333333333,0.3322222222222222,-0.6788888888888889,3.5,0.0625,3.625
1589552136.5026505,0.59,-4.22,8.81,0.4533333333333333,0.3322222222222222,-0.6788888888888889,4.625,3.6875,1.75
1589552136.5140867,0.59,-4.21,8.73,0.4533333333333333,0.3322222222222222,-0.6788888888888889,-1.375,-5.1875,6.375
1589552136.5222967,0.59,-4.22,8.84,0.4533333333333333,0.3322222222222222,-0.6788888888888889,-0.5,7.0,-0.5
1589552136.5344567,0.6,-4.22,8.87,0.4533333333333333,0.3322222222222222,-0.6788888888888889,-3.125,2.6875,3.25
1589552136.547575,0.59,-4.23,8.88,0.4533333333333333,0.32666666666666666,-0.6855555555555556,7.0625,3.3125,0.125
1589552136.5545962,0.57,-4.2,8.87,0.4533333333333333,0.32666666666666666,-0.6855555555555556,0.125,-3.4375,3.75
1589552136.5676856,0.59,-4.23,8.77,0.4533333333333333,0.32666666666666666,-0.6855555555555556,4.25,2.6875,-5.375
1589552136.5741596,0.57,-4.21,8.84,0.4533333333333333,0.32666666666666666,-0.6855555555555556,0.25,4.3125,-2.0
1589552136.589218,0.55,-4.21,8.83,0.4533333333333333,0.32666666666666666,-0.6855555555555556,-3.375,-1.4375,4.25
1589552136.5954998,0.55,-4.19,8.85,0.4655555555555556,0.3466666666666667,-0.7,0.125,2.3125,-7.1875
1589552136.6063972,0.55,-4.24,8.84,0.4655555555555556,0.3466666666666667,-0.7,2.875,0.0625,2.125
1589552136.6130922,0.58,-4.22,8.75,0.4655555555555556,0.3466666666666667,-0.7,-1.375,3.5625,7.5625
1589552136.6263545,0.58,-4.22,8.8,0.4655555555555556,0.3466666666666667,-0.7,4.5,-2.8125,-0.125
1589552136.6348815,0.58,-4.25,8.87,0.4655555555555556,0.3466666666666667,-0.7,-3.125,1.0625,-0.375
1589552136.644883,0.55,-4.21,8.87,0.4455555555555555,0.3466666666666667,-0.7,7.5625,1.3125,-7.8125
1589552136.6533148,0.57,-4.23,8.85,0.4455555555555555,0.3466666666666667,-0.7,1.625,-1.4375,-10.1875
1589552136.662879,0.57,-4.22,8.76,0.4455555555555555,0.3466666666666667,-0.7,0.625,0.4375,2.125
1589552136.6728902,0.58,-4.2,8.86,0.4455555555555555,0.3466666666666667,-0.7,-0.125,0.8125,-8.3125
1589552136.6857414,0.57,-4.21,8.89,0.4455555555555555,0.3466666666666667,-0.7,2.75,3.0625,1.125
1589552136.6971636,0.58,-4.22,8.89,0.4455555555555555,0.3388888888888889,-0.68,3.875,1.6875,-5.875
1589552136.7036636,0.58,-4.22,8.82,0.4455555555555555,0.3388888888888889,-0.68,2.5,2.9375,1.5
1589552136.7129984,0.58,-4.21,8.77,0.4455555555555555,0.3388888888888889,-0.68,-0.125,2.6875,0.25
1589552136.7254858,0.56,-4.2,8.78,0.4455555555555555,0.3388888888888889,-0.68,1.5,8.5,-6.25
1589552136.7401366,0.57,-4.21,8.83,0.4455555555555555,0.3388888888888889,-0.68,0.625,-3.4375,6.5
1589552136.7461412,0.56,-4.22,8.85,0.4455555555555555,0.3322222222222222,-0.6933333333333334,0.875,2.5625,8.5625
1589552136.7572846,0.55,-4.2,8.82,0.4455555555555555,0.3322222222222222,-0.6933333333333334,4.0,2.5625,-0.25
1589552136.7633743,0.58,-4.21,8.72,0.4455555555555555,0.3322222222222222,-0.6933333333333334,7.6875,3.8125,-1.0
1589552136.7762606,0.57,-4.21,8.83,0.4455555555555555,0.3322222222222222,-0.6933333333333334,-0.625,1.8125,7.5625
1589552136.78553,0.58,-4.22,8.9,0.4455555555555555,0.3322222222222222,-0.6933333333333334,-3.25,3.5625,0.875
1589552136.7975838,0.58,-4.21,8.93,0.4533333333333333,0.32,-0.6933333333333334,-1.375,-4.6875,-5.75
1589552136.8037288,0.58,-4.22,8.91,0.4533333333333333,0.32,-0.6933333333333334,-2.875,3.5625,-6.25
1589552136.8139102,0.58,-4.2,8.77,0.4533333333333333,0.32,-0.6933333333333334,4.875,-2.5625,-1.25
1589552136.8243005,0.57,-4.22,8.8,0.4533333333333333,0.32,-0.6933333333333334,0.125,-0.3125,-2.5
1589552136.8360126,0.57,-4.21,8.85,0.4533333333333333,0.32,-0.6933333333333334,2.875,-2.3125,-1.375
1589552136.8430054,0.58,-4.21,8.87,0.4388888888888889,0.32666666666666666,-0.6933333333333334,2.0,6.1875,0.25
1589552136.8537915,0.58,-4.21,8.83,0.4388888888888889,0.32666666666666666,-0.6933333333333334,0.5,2.5625,-1.0
1589552136.8640995,0.54,-4.19,8.73,0.4388888888888889,0.32666666666666666,-0.6933333333333334,0.125,2.5625,-8.0625
1589552136.876632,0.59,-4.22,8.81,0.4388888888888889,0.32666666666666666,-0.6933333333333334,5.125,-0.3125,-11.8125
1589552136.891549,0.56,-4.21,8.84,0.4388888888888889,0.32666666666666666,-0.6933333333333334,4.0,-2.1875,1.875
1589552136.8971856,0.56,-4.22,8.88,0.4455555555555555,0.3322222222222222,-0.7,2.5,-6.6875,-0.25
1589552136.9093616,0.57,-4.21,8.9,0.4455555555555555,0.3322222222222222,-0.7,1.75,-3.9375,1.375
1589552136.9158778,0.56,-4.21,8.8,0.4455555555555555,0.3322222222222222,-0.7,8.6875,-3.9375,1.5
1589552136.9286652,0.54,-4.21,8.85,0.4455555555555555,0.3322222222222222,-0.7,2.875,-0.5625,-11.8125
1589552136.936305,0.57,-4.22,8.85,0.4455555555555555,0.3322222222222222,-0.7,-3.5,1.4375,4.25
1589552136.949109,0.56,-4.2,8.86,0.4311111111111111,0.3322222222222222,-0.68,1.25,4.1875,-6.625
1589552136.9547086,0.56,-4.21,8.82,0.4311111111111111,0.3322222222222222,-0.68,4.375,2.5625,-2.375
1589552136.9648516,0.55,-4.22,8.74,0.4311111111111111,0.3322222222222222,-0.68,-2.5,4.6875,10.6875
1589552136.9748516,0.56,-4.2,8.79,0.4311111111111111,0.3322222222222222,-0.68,-1.375,-4.8125,2.375
1589552136.988997,0.55,-4.21,8.84,0.4311111111111111,0.3322222222222222,-0.68,2.5,5.4375,1.5
1589552136.995084,0.57,-4.21,8.89,0.4455555555555555,0.32,-0.7022222222222222,-5.875,2.0625,-0.875
1589552137.0064044,0.57,-4.21,8.89,0.4455555555555555,0.32,-0.7022222222222222,-0.875,-0.8125,2.0
1589552137.0143793,0.57,-4.22,8.76,0.4455555555555555,0.32,-0.7022222222222222,0.375,-2.3125,6.125
1589552137.0245323,0.59,-4.21,8.81,0.4455555555555555,0.32,-0.7022222222222222,-2.125,4.8125,0.0
1589552137.042862,0.56,-4.2,8.86,0.4455555555555555,0.32,-0.7022222222222222,4.625,-2.3125,3.25
1589552137.0483394,0.56,-4.21,8.85,0.4455555555555555,0.3388888888888889,-0.6933333333333334,-0.625,2.5625,7.4375
1589552137.057975,0.56,-4.22,8.88,0.4455555555555555,0.3388888888888889,-0.6933333333333334,-4.75,-5.9375,0.375
1589552137.0655642,0.57,-4.18,8.77,0.4455555555555555,0.3388888888888889,-0.6933333333333334,-2.75,4.0625,3.625
1589552137.0795953,0.54,-4.22,8.8,0.4455555555555555,0.3388888888888889,-0.6933333333333334,-0.375,-0.9375,-7.8125
1589552137.0868554,0.56,-4.21,8.83,0.4455555555555555,0.3388888888888889,-0.6933333333333334,-3.75,-1.3125,1.25
1589552137.0995984,0.59,-4.22,8.88,0.4533333333333333,0.3388888888888889,-0.6855555555555556,-1.0,-0.6875,-2.625
1589552137.1061387,0.56,-4.21,8.84,0.4533333333333333,0.3388888888888889,-0.6855555555555556,4.25,2.5625,4.375
1589552137.1187315,0.58,-4.22,8.77,0.4533333333333333,0.3388888888888889,-0.6855555555555556,-2.25,-1.0625,0.5
1589552137.125191,0.56,-4.22,8.82,0.4533333333333333,0.3388888888888889,-0.6855555555555556,2.875,-2.3125,5.875
1589552137.1368241,0.58,-4.22,8.85,0.4533333333333333,0.3388888888888889,-0.6855555555555556,4.125,-0.3125,3.375
1589552137.1446776,0.58,-4.22,8.88,0.4388888888888889,0.32,-0.6855555555555556,-2.875,-2.9375,0.75
1589552137.1601336,0.58,-4.21,8.83,0.4388888888888889,0.32,-0.6855555555555556,0.375,-2.1875,3.125
1589552137.1668615,0.57,-4.22,8.76,0.4388888888888889,0.32,-0.6855555555555556,2.875,2.6875,4.125
1589552137.177639,0.58,-4.22,8.84,0.4388888888888889,0.32,-0.6855555555555556,3.25,-1.0625,1.5
1589552137.188673,0.59,-4.2,8.86,0.4388888888888889,0.32,-0.6855555555555556,-0.625,-5.6875,0.0
1589552137.2002392,0.58,-4.22,8.89,0.4311111111111111,0.3388888888888889,-0.7022222222222222,4.75,-2.1875,6.125
1589552137.2072554,0.59,-4.22,8.83,0.4311111111111111,0.3388888888888889,-0.7022222222222222,-4.375,-0.5625,-0.375
1589552137.2181234,0.57,-4.2,8.73,0.4311111111111111,0.3388888888888889,-0.7022222222222222,-1.375,0.8125,-3.625
1589552137.2254643,0.55,-4.21,8.83,0.4311111111111111,0.3388888888888889,-0.7022222222222222,-5.25,1.1875,0.75
1589552137.2376418,0.55,-4.09,8.94,0.4311111111111111,0.3388888888888889,-0.7022222222222222,-0.875,-2.9375,-2.5
1589552137.2444599,0.33,-3.83,8.88,0.4533333333333333,0.3533333333333333,-0.6855555555555556,-9.0625,-4.3125,0.875
1589552137.255784,0.31,-3.8,8.94,0.4533333333333333,0.3533333333333333,-0.6855555555555556,-3.0,0.9375,2.375
1589552137.26584,0.24,-3.8,8.81,0.4533333333333333,0.3533333333333333,-0.6855555555555556,-1.375,-1.9375,4.875
1589552137.2782893,0.16,-3.72,8.75,0.4533333333333333,0.3533333333333333,-0.6855555555555556,-5.0,-3.3125,7.5625
1589552137.2914565,-0.2,-3.37,9.14,0.4533333333333333,0.3533333333333333,-0.6855555555555556,-0.375,-1.0625,5.25
1589552137.2977808,0.06,-3.36,8.83,0.4455555555555555,0.3322222222222222,-0.6855555555555556,-4.25,-2.5625,7.4375
1589552137.3102589,0.6,-3.04,8.98,0.4455555555555555,0.3322222222222222,-0.6855555555555556,4.75,1.3125,13.5625
1589552137.316974,0.91,-2.98,8.68,0.4455555555555555,0.3322222222222222,-0.6855555555555556,-1.25,-3.4375,2.25
1589552137.3255012,0.94,-3.08,8.71,0.4455555555555555,0.3322222222222222,-0.6855555555555556,-4.75,3.6875,4.125
1589552137.337392,0.36,-2.97,8.82,0.4455555555555555,0.3322222222222222,-0.6855555555555556,1.125,-6.4375,13.4375
1589552137.3491366,0.21,-2.83,8.94,0.4533333333333333,0.32666666666666666,-0.7022222222222222,3.125,4.3125,32.0
1589552137.3560545,0.27,-2.99,8.99,0.4533333333333333,0.32666666666666666,-0.7022222222222222,-4.5,-1.3125,30.875
1589552137.3663027,0.26,-2.93,8.75,0.4533333333333333,0.32666666666666666,-0.7022222222222222,-0.625,0.8125,38.5625
1589552137.375429,0.32,-2.95,8.85,0.4533333333333333,0.32666666666666666,-0.7022222222222222,-2.375,-0.3125,43.125
1589552137.390766,0.29,-3.11,8.88,0.4533333333333333,0.32666666666666666,-0.7022222222222222,0.625,1.6875,31.625
1589552137.3980982,0.3,-3.13,8.87,0.4655555555555556,0.3388888888888889,-0.6855555555555556,-3.125,1.4375,45.25
1589552137.4098053,0.27,-3.1,8.94,0.4655555555555556,0.3388888888888889,-0.6855555555555556,-6.75,-2.5625,46.25
1589552137.4173856,0.26,-3.1,8.73,0.4655555555555556,0.3388888888888889,-0.6855555555555556,2.5,-10.75,40.6875
1589552137.4286985,0.28,-3.02,8.86,0.4655555555555556,0.3388888888888889,-0.6855555555555556,3.25,-1.6875,44.875
1589552137.439909,0.29,-3.09,8.87,0.4655555555555556,0.3388888888888889,-0.6855555555555556,-2.125,-2.3125,49.1875
1589552137.4465108,0.25,-3.13,8.91,0.4533333333333333,0.32,-0.7022222222222222,-1.625,0.8125,50.5625
1589552137.45966,0.25,-3.15,9.05,0.4533333333333333,0.32,-0.7022222222222222,-3.625,-8.125,51.1875
1589552137.4668612,0.23,-3.23,8.78,0.4533333333333333,0.32,-0.7022222222222222,0.125,-0.8125,45.125
1589552137.4827015,0.23,-3.33,8.95,0.4533333333333333,0.32,-0.7022222222222222,2.875,-3.5625,39.6875
1589552137.4897597,0.24,-3.35,8.9,0.4533333333333333,0.32,-0.7022222222222222,1.75,1.8125,55.8125
1589552137.5005689,0.2,-3.39,8.9,0.4722222222222222,0.2877777777777778,-0.7066666666666667,4.125,3.4375,41.5625
1589552137.5066028,0.16,-3.41,8.9,0.4722222222222222,0.2877777777777778,-0.7066666666666667,1.75,1.0625,54.9375
1589552137.517771,0.14,-3.4,8.82,0.4722222222222222,0.2877777777777778,-0.7066666666666667,3.75,6.1875,43.375
1589552137.5273342,0.08,-3.4,8.74,0.4722222222222222,0.2877777777777778,-0.7066666666666667,-7.6875,-1.8125,55.0625
1589552137.5395622,0.0,-3.32,8.91,0.4722222222222222,0.2877777777777778,-0.7066666666666667,-1.25,-5.1875,61.25
1589552137.5467277,0.01,-3.32,8.87,0.49,0.2877777777777778,-0.7022222222222222,8.5625,-5.3125,45.5
1589552137.5586743,0.06,-3.36,8.99,0.49,0.2877777777777778,-0.7022222222222222,1.625,-0.5625,53.6875
1589552137.5680854,0.0,-3.32,8.77,0.49,0.2877777777777778,-0.7022222222222222,2.5,-5.0625,54.8125
1589552137.580244,0.02,-3.26,9.0,0.49,0.2877777777777778,-0.7022222222222222,-6.875,1.0625,62.25
1589552137.5917802,0.0,-3.31,8.83,0.49,0.2877777777777778,-0.7022222222222222,2.25,3.0625,46.75
1589552137.5976822,-0.03,-3.33,8.94,0.4777777777777778,0.2877777777777778,-0.7022222222222222,-7.1875,-3.1875,51.9375
1589552137.6126866,-0.1,-3.43,8.84,0.4777777777777778,0.2877777777777778,-0.7022222222222222,0.0,-1.9375,63.1875
1589552137.6185114,-0.14,-3.45,8.72,0.4777777777777778,0.2877777777777778,-0.7022222222222222,-2.375,-5.0625,61.0
1589552137.6332939,-0.12,-3.43,8.93,0.4777777777777778,0.2877777777777778,-0.7022222222222222,0.0,4.4375,59.25
1589552137.639819,-0.14,-3.48,8.79,0.4777777777777778,0.2877777777777778,-0.7022222222222222,-1.0,-0.1875,54.1875
1589552137.6519961,-0.19,-3.55,9.08,0.5155555555555555,0.2533333333333333,-0.7422222222222222,2.875,3.3125,62.25
1589552137.658083,-0.2,-3.42,8.85,0.5155555555555555,0.2533333333333333,-0.7422222222222222,5.25,4.0625,55.4375
1589552137.6718266,-0.21,-3.38,8.83,0.5155555555555555,0.2533333333333333,-0.7422222222222222,-6.125,-7.25,53.3125
1589552137.6786144,-0.27,-3.54,8.92,0.5155555555555555,0.2533333333333333,-0.7422222222222222,-2.875,3.3125,46.75
1589552137.6924298,-0.33,-3.63,9.11,0.5155555555555555,0.2533333333333333,-0.7422222222222222,7.1875,-0.3125,50.1875
1589552137.6979418,-0.35,-3.46,8.86,0.5222222222222223,0.2466666666666667,-0.7355555555555555,-2.875,-1.1875,52.8125
1589552137.7097552,-0.43,-3.5,8.76,0.5222222222222223,0.2466666666666667,-0.7355555555555555,4.875,-5.9375,51.3125
1589552137.7181742,-0.42,-3.46,8.71,0.5222222222222223,0.2466666666666667,-0.7355555555555555,-1.5,-0.1875,52.6875
1589552137.729426,-0.41,-3.34,8.82,0.5222222222222223,0.2466666666666667,-0.7355555555555555,-3.125,-8.375,54.3125
1589552137.7421267,-0.43,-3.26,8.72,0.5222222222222223,0.2466666666666667,-0.7355555555555555,-5.125,0.9375,56.5
1589552137.7485635,-0.47,-3.3,8.93,0.5288888888888889,0.2344444444444445,-0.75,9.8125,-5.3125,60.0
1589552137.7582126,-0.41,-3.04,8.77,0.5288888888888889,0.2344444444444445,-0.75,3.625,-3.5625,57.5
1589552137.7697098,-0.45,-3.13,8.83,0.5288888888888889,0.2344444444444445,-0.75,2.875,-8.75,51.6875
1589552137.7785618,-0.46,-3.13,8.97,0.5288888888888889,0.2344444444444445,-0.75,5.625,-7.875,68.8125
1589552137.790384,-0.49,-3.04,8.97,0.5288888888888889,0.2344444444444445,-0.75,-2.5,-2.8125,55.0625
1589552137.8005884,-0.43,-3.01,8.9,0.5011111111111111,0.20777777777777776,-0.7855555555555556,5.875,-13.125,56.375
1589552137.8082445,-0.52,-3.03,8.94,0.5011111111111111,0.20777777777777776,-0.7855555555555556,-7.5625,-6.4375,58.875
1589552137.8203435,-0.66,-3.2,8.71,0.5011111111111111,0.20777777777777776,-0.7855555555555556,0.375,-3.8125,76.375
1589552137.8284724,-0.71,-3.3,8.93,0.5011111111111111,0.20777777777777776,-0.7855555555555556,5.375,-1.3125,58.875
1589552137.8438,-0.72,-3.2,8.99,0.5011111111111111,0.20777777777777776,-0.7855555555555556,-3.125,-2.4375,59.25
1589552137.849571,-0.64,-3.03,8.91,0.5277777777777778,0.17333333333333334,-0.8133333333333334,1.375,-0.8125,66.9375
1589552137.858816,-0.75,-3.18,8.95,0.5277777777777778,0.17333333333333334,-0.8133333333333334,1.0,-3.6875,54.3125
1589552137.8694904,-0.68,-2.96,8.68,0.5277777777777778,0.17333333333333334,-0.8133333333333334,4.75,-3.1875,60.875
1589552137.8788176,-0.64,-2.96,8.75,0.5277777777777778,0.17333333333333334,-0.8133333333333334,-3.625,-0.4375,64.1875
1589552137.890981,-0.79,-3.1,9.13,0.5277777777777778,0.17333333333333334,-0.8133333333333334,-3.0,-8.875,70.5
1589552137.8986368,-0.7,-3.08,8.9,0.5377777777777778,0.14666666666666667,-0.8277777777777777,-3.625,-2.8125,67.1875
1589552137.908955,-0.68,-2.97,8.83,0.5377777777777778,0.14666666666666667,-0.8277777777777777,-0.625,-5.1875,64.9375
1589552137.9204063,-0.75,-3.04,8.98,0.5377777777777778,0.14666666666666667,-0.8277777777777777,1.0,-0.6875,61.25
1589552137.9290085,-0.93,-3.28,8.86,0.5377777777777778,0.14666666666666667,-0.8277777777777777,-2.5,-0.6875,57.375
1589552137.9412415,-0.9,-3.16,8.82,0.5377777777777778,0.14666666666666667,-0.8277777777777777,-0.125,-7.75,71.5
1589552137.9540384,-0.99,-3.24,8.91,0.5644444444444444,0.08666666666666667,-0.8277777777777777,2.375,-1.0625,61.375
1589552137.9598074,-1.07,-3.42,9.17,0.5644444444444444,0.08666666666666667,-0.8277777777777777,-3.0,-5.8125,70.0
1589552137.9732952,-0.99,-3.22,8.67,0.5644444444444444,0.08666666666666667,-0.8277777777777777,3.25,0.6875,54.6875
1589552137.9800842,-0.97,-3.19,9.02,0.5644444444444444,0.08666666666666667,-0.8277777777777777,-1.375,-3.9375,62.875
1589552137.9925582,-1.01,-3.12,8.68,0.5644444444444444,0.08666666666666667,-0.8277777777777777,-0.625,-5.9375,60.875
1589552137.9991596,-1.07,-3.22,8.84,0.5777777777777777,0.022222222222222227,-0.8277777777777777,2.5,1.6875,58.5
1589552138.0092435,-1.03,-3.11,8.84,0.5777777777777777,0.022222222222222227,-0.8277777777777777,1.0,2.5625,52.9375
1589552138.0202227,-1.16,-3.25,8.87,0.5777777777777777,0.022222222222222227,-0.8277777777777777,-6.75,-0.4375,52.5625
1589552138.032287,-1.23,-3.29,9.1,0.5777777777777777,0.022222222222222227,-0.8277777777777777,-3.125,-7.25,52.9375
1589552138.041109,-1.27,-3.22,8.87,0.5777777777777777,0.022222222222222227,-0.8277777777777777,-4.5,-3.8125,50.6875
1589552138.049041,-1.27,-3.21,9.3,0.5866666666666667,-0.027777777777777776,-0.8355555555555556,7.1875,3.5625,43.875
1589552138.0589542,-1.24,-3.03,8.61,0.5866666666666667,-0.027777777777777776,-0.8355555555555556,-0.5,5.3125,36.0625
1589552138.0721214,-1.45,-3.27,8.64,0.5866666666666667,-0.027777777777777776,-0.8355555555555556,-9.6875,-4.4375,41.6875
1589552138.0798967,-1.47,-3.23,8.81,0.5866666666666667,-0.027777777777777776,-0.8355555555555556,-3.875,-2.0625,44.625
1589552138.09211,-1.49,-3.24,9.12,0.5866666666666667,-0.027777777777777776,-0.8355555555555556,-4.5,-7.5,38.6875
1589552138.100081,-1.43,-3.09,8.68,0.5433333333333333,-0.1288888888888889,-0.7922222222222223,-2.625,-5.3125,34.75
1589552138.1113472,-1.64,-3.21,9.03,0.5433333333333333,-0.1288888888888889,-0.7922222222222223,2.5,1.1875,44.25
1589552138.1244404,-1.62,-3.14,8.65,0.5433333333333333,-0.1288888888888889,-0.7922222222222223,-0.625,-2.0625,44.375
1589552138.1304195,-1.61,-3.09,9.01,0.5433333333333333,-0.1288888888888889,-0.7922222222222223,0.625,1.1875,44.0
1589552138.1440926,-1.56,-2.97,8.95,0.5433333333333333,-0.1288888888888889,-0.7922222222222223,6.0,3.9375,45.125
1589552138.1504276,-1.82,-3.27,9.06,0.5077777777777778,-0.13666666666666666,-0.7355555555555555,6.625,-3.6875,44.625
1589552138.165879,-1.75,-3.09,8.89,0.5077777777777778,-0.13666666666666666,-0.7355555555555555,-4.25,-2.3125,46.875
1589552138.1724432,-1.8,-3.12,8.76,0.5077777777777778,-0.13666666666666666,-0.7355555555555555,5.75,-6.4375,50.9375
1589552138.1801775,-1.98,-3.28,8.79,0.5077777777777778,-0.13666666666666666,-0.7355555555555555,8.5625,-8.125,39.6875
1589552138.1924384,-1.89,-3.09,9.07,0.5077777777777778,-0.13666666666666666,-0.7355555555555555,2.625,1.5625,53.8125
1589552138.2042036,-1.74,-2.93,8.87,0.5377777777777778,-0.10666666666666667,-0.68,1.75,1.1875,56.125
1589552138.2102787,-1.74,-2.9,8.9,0.5377777777777778,-0.10666666666666667,-0.68,0.375,-5.1875,62.0
1589552138.219612,-1.8,-2.86,8.72,0.5377777777777778,-0.10666666666666667,-0.68,-4.25,-7.25,65.4375
1589552138.225561,-1.8,-2.86,8.72,0.5377777777777778,-0.10666666666666667,-0.68,-4.25,-7.25,65.4375
1589552138.2315214,-1.94,-3.0,9.22,0.5377777777777778,-0.10666666666666667,-0.68,2.125,-0.6875,67.9375
1589552138.2431033,-1.84,-2.83,8.82,0.5377777777777778,-0.10666666666666667,-0.68,-1.0,-7.75,56.875
1589552138.2506714,-1.7,-2.65,8.79,0.54,-0.07222222222222223,-0.6933333333333334,-4.375,-5.1875,74.25
1589552138.2629356,-1.87,-2.77,9.2,0.54,-0.07222222222222223,-0.6933333333333334,-0.75,-1.8125,76.0
1589552138.2734206,-1.92,-2.82,9.28,0.54,-0.07222222222222223,-0.6933333333333334,3.875,-2.6875,77.9375
1589552138.281366,-1.9,-2.75,8.64,0.54,-0.07222222222222223,-0.6933333333333334,-4.25,-11.0,75.625
1589552138.297653,-1.96,-2.78,9.2,0.54,-0.07222222222222223,-0.6933333333333334,-1.125,-6.5625,71.125
1589552138.3036716,-2.15,-2.88,9.29,0.5511111111111111,-0.09222222222222222,-0.6855555555555556,0.125,-0.4375,71.375
1589552138.3117,-2.09,-2.82,8.93,0.5511111111111111,-0.09222222222222222,-0.6855555555555556,2.5,-7.625,84.25
1589552138.3233445,-1.96,-2.64,8.64,0.5511111111111111,-0.09222222222222222,-0.6855555555555556,-5.375,-12.0,81.8125
1589552138.3323905,-1.83,-2.47,8.31,0.5511111111111111,-0.09222222222222222,-0.6855555555555556,-3.25,-12.125,86.375
1589552138.3426335,-1.99,-2.64,9.77,0.5511111111111111,-0.09222222222222222,-0.6855555555555556,2.75,-0.3125,82.8125
1589552138.3551738,-2.14,-2.64,9.38,0.5633333333333334,-0.08666666666666667,-0.6933333333333334,-0.875,5.5625,89.625
1589552138.361165,-2.03,-2.48,8.38,0.5633333333333334,-0.08666666666666667,-0.6933333333333334,-4.25,-0.6875,86.25
1589552138.3760722,-2.03,-2.45,8.42,0.5633333333333334,-0.08666666666666667,-0.6933333333333334,0.5,-14.6875,87.0
1589552138.3826573,-2.3,-2.68,9.73,0.5633333333333334,-0.08666666666666667,-0.6933333333333334,1.75,-6.6875,84.5
1589552138.3930323,-2.3,-2.56,8.86,0.5633333333333334,-0.08666666666666667,-0.6933333333333334,-2.125,-7.125,81.5625
1589552138.4002063,-2.49,-2.87,9.34,0.56,-0.11888888888888888,-0.6933333333333334,7.6875,1.3125,92.3125
1589552138.413102,-2.39,-3.32,8.68,0.56,-0.11888888888888888,-0.6933333333333334,-4.0,-6.5625,84.125
1589552138.4214118,-1.4,-3.6,8.92,0.56,-0.11888888888888888,-0.6933333333333334,4.625,-1.1875,74.0
1589552138.43548,-0.86,-3.45,8.53,0.56,-0.11888888888888888,-0.6933333333333334,1.25,4.3125,48.0
1589552138.4485805,-0.69,-2.78,9.05,0.56,-0.11888888888888888,-0.6933333333333334,9.4375,-1.4375,19.125
1589552138.4542027,-0.48,-1.53,9.34,0.5511111111111111,-0.15555555555555556,-0.7066666666666667,-2.375,-10.25,-17.125
1589552138.4609234,-1.51,-1.11,8.4,0.5511111111111111,-0.15555555555555556,-0.7066666666666667,4.375,8.75,-20.875
1589552138.4708526,-2.63,-2.64,8.63,0.5511111111111111,-0.15555555555555556,-0.7066666666666667,-2.125,7.125,-25.8125
1589552138.483696,-2.45,-1.54,7.22,0.5511111111111111,-0.15555555555555556,-0.7066666666666667,-4.5,-9.75,-32.5
1589552138.4928696,-1.62,-2.06,9.46,0.5511111111111111,-0.15555555555555556,-0.7066666666666667,10.1875,9.25,-51.8125
1589552138.5003011,-1.76,-1.92,8.1,0.5733333333333334,-0.20222222222222225,-0.7066666666666667,-3.625,-2.6875,-58.25
1589552138.5114405,-1.92,-1.86,8.65,0.5733333333333334,-0.20222222222222225,-0.7066666666666667,1.0,2.0625,-75.125
1589552138.5255756,-2.05,-2.03,9.67,0.5733333333333334,-0.20222222222222225,-0.7066666666666667,7.9375,5.1875,-83.8125
1589552138.5322738,-2.48,-2.43,9.13,0.5733333333333334,-0.20222222222222225,-0.7066666666666667,3.25,4.0625,-90.25
1589552138.545334,-2.02,-2.06,7.7,0.5733333333333334,-0.20222222222222225,-0.7066666666666667,-8.3125,-5.8125,-94.5625
1589552138.551306,-1.83,-2.28,10.29,0.6522222222222223,-0.33,-0.7288888888888889,1.75,10.5,-94.3125
1589552138.5618188,-1.73,-2.14,9.19,0.6522222222222223,-0.33,-0.7288888888888889,-4.625,1.4375,-103.875
1589552138.5728445,-2.09,-2.24,8.48,0.6522222222222223,-0.33,-0.7288888888888889,-4.875,9.25,-103.75
1589552138.5822046,-2.02,-2.3,9.04,0.6522222222222223,-0.33,-0.7288888888888889,-2.625,6.4375,-112.875
1589552138.5935516,-2.09,-2.43,8.95,0.6522222222222223,-0.33,-0.7288888888888889,2.25,4.3125,-109.9375
1589552138.6054327,-2.22,-2.6,9.11,1.0822222222222222,-0.72,-0.68,3.375,8.0,-116.25
1589552138.612192,-2.1,-2.85,9.01,1.0822222222222222,-0.72,-0.68,3.0,10.25,-113.375
1589552138.6220071,-2.23,-3.2,8.91,1.0822222222222222,-0.72,-0.68,-4.875,12.375,-116.625
1589552138.6378064,-2.16,-3.3,8.74,1.0822222222222222,-0.72,-0.68,-1.75,0.8125,-103.875
1589552138.6442325,-2.36,-3.55,9.06,1.0822222222222222,-0.72,-0.68,-1.75,6.8125,-89.875
1589552138.6516595,-2.82,-3.68,8.83,1.0577777777777777,-0.5488888888888889,-0.8133333333333334,0.75,4.5625,-76.375
1589552138.6634035,-2.96,-3.84,9.16,1.0577777777777777,-0.5488888888888889,-0.8133333333333334,-2.75,2.6875,-49.5625
1589552138.678024,-2.26,-3.25,8.38,1.0577777777777777,-0.5488888888888889,-0.8133333333333334,-4.625,-5.9375,-51.0625
1589552138.6839669,-2.37,-3.41,9.45,1.0577777777777777,-0.5488888888888889,-0.8133333333333334,1.75,8.5,-51.0625
1589552138.694009,-2.29,-3.55,8.75,1.0577777777777777,-0.5488888888888889,-0.8133333333333334,0.25,6.1875,-43.875
1589552138.7014625,-2.18,-3.55,8.96,0.6977777777777778,-0.10777777777777778,-0.7777777777777778,1.0,-5.1875,-44.75
1589552138.7164993,-1.88,-3.07,8.88,0.6977777777777778,-0.10777777777777778,-0.7777777777777778,-3.625,4.0625,-38.8125
1589552138.7229106,-1.86,-3.21,8.86,0.6977777777777778,-0.10777777777777778,-0.7777777777777778,2.0,3.6875,-42.5
1589552138.7355428,-1.65,-3.04,8.75,0.6977777777777778,-0.10777777777777778,-0.7777777777777778,2.0,-1.4375,-50.3125
1589552138.7442367,-1.53,-2.91,8.93,0.6977777777777778,-0.10777777777777778,-0.7777777777777778,1.125,0.1875,-48.875
1589552138.754981,-1.64,-3.29,9.24,0.6466666666666666,0.015555555555555557,-0.7855555555555556,1.5,6.1875,-47.25
1589552138.762947,-1.38,-3.1,8.72,0.6466666666666666,0.015555555555555557,-0.7855555555555556,-6.0,-1.8125,-61.125
1589552138.7725472,-1.15,-2.63,8.45,0.6466666666666666,0.015555555555555557,-0.7855555555555556,6.5,-0.0625,-60.75
1589552138.7832005,-1.57,-3.37,9.38,0.6466666666666666,0.015555555555555557,-0.7855555555555556,2.125,3.6875,-57.625
1589552138.7957394,-1.6,-3.03,8.71,0.6466666666666666,0.015555555555555557,-0.7855555555555556,-6.5,1.0625,-67.5625
1589552138.8018315,-1.16,-3.17,9.17,0.6177777777777778,0.057777777777777775,-0.8,-1.75,-1.4375,-64.5625
1589552138.812449,-1.39,-3.29,9.0,0.6177777777777778,0.057777777777777775,-0.8,-3.0,13.25,-64.1875
1589552138.8179688,-1.39,-3.29,9.0,0.6177777777777778,0.057777777777777775,-0.8,-3.0,13.25,-64.1875
1589552138.8296072,-1.37,-3.37,8.9,0.6177777777777778,0.057777777777777775,-0.8,1.375,5.6875,-75.0
1589552138.8360744,-1.33,-3.04,8.98,0.6177777777777778,0.057777777777777775,-0.8,2.5,7.25,-74.75
1589552138.8502743,-1.42,-3.43,9.1,0.6177777777777778,0.057777777777777775,-0.8,9.4375,8.0,-76.625
1589552138.8565145,-1.57,-3.56,9.08,0.6533333333333333,0.06555555555555556,-0.8066666666666666,1.125,2.5625,-58.375
1589552138.8673208,-1.49,-3.77,8.88,0.6533333333333333,0.06555555555555556,-0.8066666666666666,0.125,5.6875,-60.25
1589552138.872948,-1.37,-3.8,8.28,0.6533333333333333,0.06555555555555556,-0.8066666666666666,0.375,1.6875,-43.875
1589552138.887288,-1.35,-3.87,9.86,0.6533333333333333,0.06555555555555556,-0.8066666666666666,0.875,5.9375,-57.125
1589552138.894967,-1.18,-3.58,8.58,0.6533333333333333,0.06555555555555556,-0.8066666666666666,152.0625,121.875,-76.125
1589552138.9057016,-6.27,0.87,-7.99,0.59,0.11333333333333333,-0.7777777777777778,-91.1875,-53.5,-360.1875
1589552138.9131987,0.53,1.5,3.23,0.59,0.11333333333333333,-0.7777777777777778,-44.75,30.4375,-213.75
1589552138.9238708,3.3,-0.88,19.24,0.59,0.11333333333333333,-0.7777777777777778,103.25,60.4375,-232.4375
1589552138.9331956,-0.71,-0.53,6.55,0.59,0.11333333333333333,-0.7777777777777778,20.5,16.5625,-203.8125
1589552138.947934,-1.58,0.66,7.39,0.59,0.11333333333333333,-0.7777777777777778,-38.1875,-22.125,-133.5625
1589552138.9547205,1.08,-0.83,11.43,0.5611111111111111,0.1955555555555556,-0.7922222222222223,18.0,29.6875,-109.1875
1589552138.9670045,1.32,-0.94,11.05,0.5611111111111111,0.1955555555555556,-0.7922222222222223,-0.5,12.375,-99.0
1589552138.9744675,0.14,-1.0,7.27,0.5611111111111111,0.1955555555555556,-0.7922222222222223,-15.0,-11.125,-66.0625
1589552138.9867675,-0.1,-2.01,9.53,0.5611111111111111,0.1955555555555556,-0.7922222222222223,0.125,5.0625,-58.5
1589552139.000794,0.28,-2.44,9.91,0.5611111111111111,0.1955555555555556,-0.7922222222222223,6.5,11.625,-35.4375
1589552139.0070329,-0.27,-2.7,8.55,0.5644444444444444,0.26666666666666666,-0.7855555555555556,-2.5,5.8125,-30.0
1589552139.0185199,-0.22,-2.66,8.89,0.5644444444444444,0.26666666666666666,-0.7855555555555556,-6.375,-1.5625,-15.375
1589552139.0253522,-0.23,-2.61,9.0,0.5644444444444444,0.26666666666666666,-0.7855555555555556,1.5,4.6875,-11.0625
1589552139.0385475,-0.15,-2.59,9.0,0.5644444444444444,0.26666666666666666,-0.7855555555555556,7.1875,0.4375,-13.4375
1589552139.0457234,-0.28,-2.69,8.78,0.5644444444444444,0.26666666666666666,-0.7855555555555556,-1.375,-0.0625,-8.8125
1589552139.0594227,-0.47,-2.95,9.25,0.5333333333333333,0.2977777777777777,-0.76,6.375,-3.4375,9.4375
1589552139.0658288,-0.32,-2.76,9.13,0.5333333333333333,0.2977777777777777,-0.76,-7.1875,-7.5,12.4375
1589552139.073987,-0.27,-2.85,8.67,0.5333333333333333,0.2977777777777777,-0.76,-2.0,6.1875,9.3125
1589552139.084588,-0.25,-2.74,8.95,0.5333333333333333,0.2977777777777777,-0.76,4.75,-4.0625,13.8125
1589552139.0981793,2.17,-11.75,9.39,0.5333333333333333,0.2977777777777777,-0.76,-38.0625,-23.125,-141.0
1589552139.1043265,-1.93,-21.63,5.93,0.5433333333333333,0.3022222222222222,-0.76,4.0,53.625,-127.5
1589552139.1163187,-1.33,-1.54,11.22,0.5433333333333333,0.3022222222222222,-0.76,9.5625,26.375,-89.625
1589552139.1248455,-1.14,-1.6,5.93,0.5433333333333333,0.3022222222222222,-0.76,-19.625,-22.25,-62.5
1589552139.1371589,-1.12,-2.38,8.44,0.5433333333333333,0.3022222222222222,-0.76,2.875,-1.5625,-44.5
1589552139.1460874,-0.47,-2.6,10.88,0.5433333333333333,0.3022222222222222,-0.76,-3.625,12.125,-75.375
1589552139.1576016,-0.55,-5.44,7.02,0.5166666666666667,0.3322222222222222,-0.7733333333333333,10.6875,-4.6875,-67.5625
1589552139.1680925,-1.27,-1.29,9.51,0.5166666666666667,0.3322222222222222,-0.7733333333333333,1.25,9.875,-55.8125
1589552139.1745615,0.09,-6.54,8.99,0.5166666666666667,0.3322222222222222,-0.7733333333333333,-5.75,9.375,-40.1875
1589552139.1899698,-0.53,-5.1,8.88,0.5166666666666667,0.3322222222222222,-0.7733333333333333,0.125,5.3125,-27.6875
1589552139.196879,-0.26,-4.52,9.01,0.5166666666666667,0.3322222222222222,-0.7733333333333333,1.25,0.3125,-29.375
1589552139.20453,-0.2,-4.65,8.75,0.4988888888888889,0.3511111111111111,-0.7655555555555555,1.75,-2.6875,-20.875
1589552139.2163274,-0.21,-4.64,8.81,0.4988888888888889,0.3511111111111111,-0.7655555555555555,2.5,1.4375,-15.625
1589552139.225659,-0.18,-4.6,8.84,0.4988888888888889,0.3511111111111111,-0.7655555555555555,-2.125,1.3125,-7.5625
1589552139.2346663,-0.09,-4.49,8.71,0.4988888888888889,0.3511111111111111,-0.7655555555555555,1.375,-1.5625,2.875
1589552139.2476487,-0.02,-4.35,8.87,0.4988888888888889,0.3511111111111111,-0.7655555555555555,-2.375,1.9375,1.875
1589552139.2542107,-0.05,-4.22,8.77,0.5111111111111111,0.3555555555555556,-0.7566666666666667,-4.375,-4.3125,0.25
1589552139.269071,-0.04,-4.2,8.85,0.5111111111111111,0.3555555555555556,-0.7566666666666667,0.0,-1.0625,2.0
1589552139.2752182,-0.03,-4.19,8.76,0.5111111111111111,0.3555555555555556,-0.7566666666666667,3.625,-1.0625,10.6875
1589552139.2848642,-0.04,-4.27,8.85,0.5111111111111111,0.3555555555555556,-0.7566666666666667,-5.0,-1.1875,3.875
1589552139.2977865,-0.02,-4.31,8.85,0.5111111111111111,0.3555555555555556,-0.7566666666666667,-3.25,-3.6875,0.375
1589552139.3108327,-0.03,-4.25,8.87,0.4988888888888889,0.3688888888888889,-0.7422222222222222,1.625,-8.5,1.875
1589552139.32188,-0.04,-4.18,8.89,0.4988888888888889,0.3688888888888889,-0.7422222222222222,2.25,4.6875,4.875
1589552139.3285134,-0.03,-4.19,8.86,0.4988888888888889,0.3688888888888889,-0.7422222222222222,-7.6875,-5.5625,1.375
1589552139.341311,-0.05,-4.22,8.83,0.4988888888888889,0.3688888888888889,-0.7422222222222222,-1.125,-0.8125,5.5
1589552139.3484929,-0.03,-4.27,8.82,0.4988888888888889,0.3688888888888889,-0.7422222222222222,2.375,-0.4375,2.5
1589552139.3560724,-0.03,-4.23,8.8,0.5188888888888888,0.38333333333333336,-0.7355555555555555,0.875,3.4375,0.25
1589552139.3677115,-0.06,-4.22,8.8,0.5188888888888888,0.38333333333333336,-0.7355555555555555,2.75,3.1875,-0.75
1589552139.380509,-0.03,-4.17,8.8,0.5188888888888888,0.38333333333333336,-0.7355555555555555,2.625,-1.3125,-2.25
1589552139.3866048,-0.04,-4.22,8.84,0.5188888888888888,0.38333333333333336,-0.7355555555555555,2.375,-0.0625,5.0
1589552139.398484,-0.04,-4.24,8.81,0.5188888888888888,0.38333333333333336,-0.7355555555555555,4.625,-2.1875,1.75
1589552139.4059858,-0.05,-4.25,8.79,0.5011111111111111,0.38333333333333336,-0.7644444444444445,0.125,-2.9375,-10.8125
1589552139.4210644,-0.01,-4.24,8.88,0.5011111111111111,0.38333333333333336,-0.7644444444444445,-0.125,-0.1875,3.75
1589552139.4300435,-0.05,-4.2,8.78,0.5011111111111111,0.38333333333333336,-0.7644444444444445,-4.25,0.1875,-3.0
1589552139.4501748,-0.03,-4.23,8.86,0.5011111111111111,0.38333333333333336,-0.7644444444444445,5.125,2.9375,-0.625
1589552139.461059,-0.05,-4.27,8.84,0.5133333333333333,0.38333333333333336,-0.7355555555555555,2.875,-1.0625,-6.5
1589552139.4676368,-0.05,-4.26,8.83,0.5133333333333333,0.38333333333333336,-0.7355555555555555,5.5,1.9375,4.25
1589552139.4769585,-0.03,-4.2,8.78,0.5133333333333333,0.38333333333333336,-0.7355555555555555,0.25,7.875,-10.4375
1589552139.4926324,-0.04,-4.22,8.83,0.5133333333333333,0.38333333333333336,-0.7355555555555555,-2.25,-1.0625,13.6875
1589552139.4990895,-0.01,-4.22,8.86,0.5133333333333333,0.38333333333333336,-0.7355555555555555,-2.75,-0.1875,3.375
1589552139.5066547,-0.02,-4.27,8.85,0.5011111111111111,0.3711111111111111,-0.7566666666666667,2.625,7.125,3.25
1589552139.5188148,-0.03,-4.24,8.83,0.5011111111111111,0.3711111111111111,-0.7566666666666667,-1.125,-6.8125,-2.5
1589552139.527499,-0.04,-4.22,8.76,0.5011111111111111,0.3711111111111111,-0.7566666666666667,-3.125,1.9375,-7.5625
1589552139.539514,-0.03,-4.18,8.87,0.5011111111111111,0.3711111111111111,-0.7566666666666667,-3.75,-4.3125,-1.625
1589552139.549512,-0.03,-4.24,8.86,0.5011111111111111,0.3711111111111111,-0.7566666666666667,-5.0,1.1875,3.125
1589552139.5566664,-0.02,-4.25,8.87,0.5133333333333333,0.3644444444444445,-0.7566666666666667,-5.25,4.3125,-4.625
1589552139.5670798,-0.03,-4.25,8.82,0.5133333333333333,0.3644444444444445,-0.7566666666666667,4.625,-1.0625,3.125
1589552139.5781047,-0.02,-4.26,8.77,0.5133333333333333,0.3644444444444445,-0.7566666666666667,7.5625,5.0625,0.875
1589552139.5896678,-0.04,-4.22,8.85,0.5133333333333333,0.3644444444444445,-0.7566666666666667,3.25,-1.9375,-9.5625
1589552139.6000931,-0.04,-4.22,8.85,0.5133333333333333,0.3644444444444445,-0.7566666666666667,-3.625,-0.6875,-1.375
1589552139.610196,-0.04,-4.23,8.87,0.5077777777777778,0.3644444444444445,-0.75,-4.125,0.5625,-3.125
1589552139.6168716,-0.03,-4.25,8.78,0.5077777777777778,0.3644444444444445,-0.75,0.125,1.0625,-1.625
1589552139.6283765,-0.03,-4.24,8.75,0.5077777777777778,0.3644444444444445,-0.75,-5.0,-2.8125,1.5
1589552139.6374016,-0.04,-4.22,8.82,0.5077777777777778,0.3644444444444445,-0.75,-0.875,8.75,-0.625
1589552139.649471,-0.02,-4.2,8.85,0.5077777777777778,0.3644444444444445,-0.75,1.75,-4.1875,-0.875
1589552139.6570814,-0.03,-4.25,8.87,0.52,0.37333333333333335,-0.7566666666666667,2.625,5.8125,-0.375
1589552139.6682553,-0.03,-4.26,8.83,0.52,0.37333333333333335,-0.7566666666666667,-1.5,-8.0,4.125
1589552139.6784842,-0.06,-4.26,8.73,0.52,0.37333333333333335,-0.7566666666666667,4.75,-1.4375,-14.875
1589552139.6908224,-0.03,-4.23,8.78,0.52,0.37333333333333335,-0.7566666666666667,-5.125,-0.5625,0.625
1589552139.7012167,-0.04,-4.22,8.86,0.52,0.37333333333333335,-0.7566666666666667,-5.125,1.8125,4.25
1589552139.7079327,-0.03,-4.22,8.88,0.5077777777777778,0.38,-0.7422222222222222,3.375,-0.6875,-3.5
1589552139.721761,-0.02,-4.23,8.87,0.5077777777777778,0.38,-0.7422222222222222,3.0,-0.3125,-6.375
1589552139.7281039,-0.04,-4.25,8.76,0.5077777777777778,0.38,-0.7422222222222222,-6.125,-8.75,3.75
1589552139.742875,-0.04,-4.23,8.83,0.5077777777777778,0.38,-0.7422222222222222,2.625,1.5625,-0.625
1589552139.7505114,-0.03,-4.22,8.9,0.5077777777777778,0.38,-0.7422222222222222,-0.625,3.4375,9.5625
1589552139.7585506,-0.06,-4.21,8.88,0.5077777777777778,0.3588888888888889,-0.75,-2.125,-5.8125,-1.5
1589552139.7681468,-0.05,-4.26,8.81,0.5077777777777778,0.3588888888888889,-0.75,-2.875,-2.5625,5.5
1589552139.782127,-0.03,-4.27,8.73,0.5077777777777778,0.3588888888888889,-0.75,5.875,4.9375,-1.25
1589552139.788393,-0.04,-4.24,8.78,0.5077777777777778,0.3588888888888889,-0.75,0.5,-3.3125,-1.375
1589552139.8006413,-0.02,-4.23,8.88,0.5077777777777778,0.3588888888888889,-0.75,-0.625,2.4375,1.375
1589552139.8084464,-0.05,-4.23,8.9,0.5011111111111111,0.38,-0.7422222222222222,-2.0,0.0625,4.75
1589552139.8196313,-0.05,-4.22,8.86,0.5011111111111111,0.38,-0.7422222222222222,3.875,-2.8125,-8.4375
