time,acc_x,acc_y,acc_z,mag_x,mag_y,mag_z,gyr_x,gyr_y,gyr_z
1589552190.3390102,0.62,-4.18,8.78,0.4044444444444445,0.4177777777777778,-0.6877777777777778,1.5,2.0625,6.75
1589552190.3454432,0.62,-4.17,8.83,0.4044444444444445,0.4177777777777778,-0.6877777777777778,-1.0,-1.3125,5.125
1589552190.3552256,0.63,-4.2,8.88,0.4044444444444445,0.4177777777777778,-0.6877777777777778,3.875,-1.0625,-2.0
1589552190.3619196,0.63,-4.16,8.91,0.4177777777777778,0.4044444444444445,-0.7022222222222222,2.625,1.3125,-0.75
1589552190.3755627,0.65,-4.17,8.87,0.4177777777777778,0.4044444444444445,-0.7022222222222222,6.25,-0.8125,-4.125
1589552190.382045,0.65,-4.19,8.77,0.4177777777777778,0.4044444444444445,-0.7022222222222222,-3.375,0.1875,0.0
1589552190.3922513,0.65,-4.2,8.76,0.4177777777777778,0.4044444444444445,-0.7022222222222222,-4.375,-2.5625,6.375
1589552190.4044573,0.62,-4.2,8.86,0.4177777777777778,0.4044444444444445,-0.7022222222222222,4.875,2.3125,6.25
1589552190.4164314,0.61,-4.19,8.85,0.4311111111111111,0.4044444444444445,-0.68,1.75,3.3125,-4.5
1589552190.4224634,0.6,-4.21,8.88,0.4311111111111111,0.4044444444444445,-0.68,-2.75,-4.8125,-8.0625
1589552190.4329336,0.61,-4.2,8.79,0.4311111111111111,0.4044444444444445,-0.68,-1.5,-2.0625,-1.25
1589552190.447222,0.63,-4.2,8.83,0.4311111111111111,0.4044444444444445,-0.68,2.875,-8.5,5.375
1589552190.4547431,0.63,-4.19,8.89,0.4311111111111111,0.4044444444444445,-0.68,2.875,-4.4375,10.9375
1589552190.4622073,0.63,-4.19,8.88,0.4311111111111111,0.41,-0.7111111111111111,-1.375,-5.4375,-3.25
1589552190.4740045,0.64,-4.19,8.82,0.4311111111111111,0.41,-0.7111111111111111,0.125,-0.0625,10.9375
1589552190.4826105,0.63,-4.19,8.75,0.4311111111111111,0.41,-0.7111111111111111,4.375,6.5625,4.75
1589552190.4951816,0.51,-4.12,8.57,0.4311111111111111,0.41,-0.7111111111111111,2.75,0.1875,-4.0
1589552190.5068195,0.74,-4.25,9.15,0.4311111111111111,0.41,-0.7111111111111111,8.6875,-3.6875,-0.25
1589552190.5129569,0.55,-4.16,8.69,0.4177777777777778,0.4044444444444445,-0.7022222222222222,-1.875,-4.4375,-9.5625
1589552190.525999,0.65,-4.21,8.95,0.4177777777777778,0.4044444444444445,-0.7022222222222222,2.875,5.5625,-7.5625
1589552190.5321903,0.64,-4.2,8.84,0.4177777777777778,0.4044444444444445,-0.7022222222222222,0.125,-6.6875,0.25
1589552190.5470884,0.73,-4.26,9.14,0.4177777777777778,0.4044444444444445,-0.7022222222222222,0.5,-1.0625,1.125
1589552190.5543413,0.61,-4.18,8.83,0.4177777777777778,0.4044444444444445,-0.7022222222222222,2.75,0.8125,1.125
1589552190.5654447,0.59,-4.18,8.8,0.43666666666666665,0.41,-0.6944444444444444,-3.25,1.4375,4.5
1589552190.5725608,0.67,-4.19,8.93,0.43666666666666665,0.41,-0.6944444444444444,-3.625,-0.4375,2.25
1589552190.5832279,0.64,-4.19,8.74,0.43666666666666665,0.41,-0.6944444444444444,-2.875,-7.75,1.5
1589552190.5932832,0.64,-4.19,8.82,0.43666666666666665,0.41,-0.6944444444444444,-1.25,4.6875,0.875
1589552190.6056786,0.65,-4.2,8.82,0.43666666666666665,0.41,-0.6944444444444444,1.75,-6.1875,10.9375
1589552190.6127036,0.59,-4.14,8.78,0.41,0.41,-0.68,-0.875,4.5625,-8.1875
1589552190.6242747,0.74,-4.23,9.03,0.41,0.41,-0.68,4.375,5.0625,-0.375
1589552190.6336489,0.65,-4.19,8.73,0.41,0.41,-0.68,3.25,4.8125,-2.0
1589552190.646108,0.62,-4.18,8.72,0.41,0.41,-0.68,1.875,-5.4375,-7.8125
1589552190.656897,0.64,-4.21,8.9,0.41,0.41,-0.68,2.875,-4.8125,6.875
1589552190.6641846,0.61,-4.22,8.9,0.4177777777777778,0.41,-0.6944444444444444,-5.125,-2.4375,3.25
1589552190.6778677,0.64,-4.22,8.96,0.4177777777777778,0.41,-0.6944444444444444,7.3125,-4.1875,-4.75
1589552190.6835554,0.65,-4.19,8.74,0.4177777777777778,0.41,-0.6944444444444444,5.375,-7.0,4.875
1589552190.6984837,0.66,-4.18,8.83,0.4177777777777778,0.41,-0.6944444444444444,-3.75,-2.1875,-0.875
1589552190.7057498,0.65,-4.2,8.84,0.4177777777777778,0.41,-0.6944444444444444,1.75,3.1875,-2.0
1589552190.713394,0.62,-4.2,8.82,0.41,0.41,-0.6888888888888889,1.125,-6.4375,-2.5
1589552190.722991,0.76,-4.24,9.08,0.41,0.41,-0.6888888888888889,-0.375,8.125,5.75
1589552190.7342277,0.6,-4.21,8.69,0.41,0.41,-0.6888888888888889,-2.0,8.25,-1.625
1589552190.7435725,0.6,-4.17,8.69,0.41,0.41,-0.6888888888888889,-1.0,-1.6875,5.5
1589552190.7566204,0.69,-4.17,8.92,0.41,0.41,-0.6888888888888889,5.75,2.8125,-6.0
1589552190.7633386,0.64,-4.18,8.9,0.43666666666666665,0.4177777777777778,-0.7022222222222222,-0.625,0.9375,0.25
1589552190.774013,0.66,-4.21,8.94,0.43666666666666665,0.4177777777777778,-0.7022222222222222,-2.625,1.1875,-3.0
1589552190.783766,0.64,-4.2,8.82,0.43666666666666665,0.4177777777777778,-0.7022222222222222,-1.875,1.0625,7.8125
1589552190.7936072,0.65,-4.22,8.86,0.43666666666666665,0.4177777777777778,-0.7022222222222222,0.75,-0.1875,-1.625
1589552190.8066134,0.66,-4.19,8.86,0.43666666666666665,0.4177777777777778,-0.7022222222222222,-2.75,2.6875,1.375
1589552190.8181787,0.65,-4.22,8.84,0.4244444444444445,0.4044444444444445,-0.7022222222222222,-0.625,-1.1875,-8.4375
1589552190.8296669,0.65,-4.22,8.87,0.4244444444444445,0.4044444444444445,-0.7022222222222222,3.75,5.1875,5.375
1589552190.8358884,0.65,-4.21,8.73,0.4244444444444445,0.4044444444444445,-0.7022222222222222,-1.375,-1.1875,-5.25
1589552190.845144,0.65,-4.22,8.79,0.4244444444444445,0.4044444444444445,-0.7022222222222222,5.5,0.6875,-5.375
1589552190.856334,0.64,-4.21,8.85,0.4244444444444445,0.4044444444444445,-0.7022222222222222,-3.125,-0.9375,-3.5
1589552190.8666306,0.65,-4.19,8.85,0.41,0.4044444444444445,-0.6877777777777778,-4.5,-5.6875,1.75
1589552190.8747134,0.64,-4.18,8.87,0.41,0.4044444444444445,-0.6877777777777778,-2.125,4.8125,-4.875
1589552190.8886187,0.64,-4.21,8.76,0.41,0.4044444444444445,-0.6877777777777778,-1.125,-3.9375,-3.875
1589552190.89623,0.64,-4.18,8.8,0.41,0.4044444444444445,-0.6877777777777778,-2.0,-3.1875,-4.375
1589552190.909469,0.64,-4.21,8.88,0.41,0.4044444444444445,-0.6877777777777778,1.875,0.6875,1.75
1589552190.9153776,0.65,-4.2,8.88,0.4244444444444445,0.41,-0.6944444444444444,-3.0,-0.5625,-1.625
1589552190.9249165,0.66,-4.21,8.9,0.4244444444444445,0.41,-0.6944444444444444,0.75,1.0625,-0.625
1589552190.9353256,0.65,-4.21,8.78,0.4244444444444445,0.41,-0.6944444444444444,-5.75,-2.4375,-0.75
1589552190.9457436,0.65,-4.2,8.8,0.4244444444444445,0.41,-0.6944444444444444,-6.625,2.5625,6.25
1589552190.9566514,0.53,-4.17,8.72,0.4244444444444445,0.41,-0.6944444444444444,9.0625,1.3125,-7.1875
1589552190.967599,0.67,-4.22,8.94,0.4177777777777778,0.41,-0.68,2.875,0.5625,7.6875
1589552190.974609,0.59,-4.15,8.67,0.4177777777777778,0.41,-0.68,0.75,-6.8125,-3.0
1589552190.9856062,0.66,-4.18,8.77,0.4177777777777778,0.41,-0.68,-3.75,-0.9375,2.625
1589552190.9944985,0.68,-4.17,8.87,0.4177777777777778,0.41,-0.68,1.625,-2.1875,-3.5
1589552191.0070925,0.66,-4.19,8.82,0.4177777777777778,0.41,-0.68,-0.625,-1.8125,0.5
1589552191.0149748,0.66,-4.15,8.91,0.43666666666666665,0.4244444444444445,-0.6877777777777778,1.75,-4.8125,0.375
1589552191.0270414,0.65,-4.16,8.87,0.43666666666666665,0.4244444444444445,-0.6877777777777778,1.0,4.3125,-11.8125
1589552191.03914,0.67,-4.15,8.76,0.43666666666666665,0.4244444444444445,-0.6877777777777778,4.875,-0.1875,1.375
1589552191.045548,0.66,-4.14,8.83,0.43666666666666665,0.4244444444444445,-0.6877777777777778,0.375,-0.5625,-6.0
1589552191.0572214,0.65,-4.11,8.82,0.43666666666666665,0.4244444444444445,-0.6877777777777778,-4.375,1.3125,0.875
1589552191.0645347,0.67,-4.08,8.84,0.41,0.4244444444444445,-0.7022222222222222,-0.75,3.4375,-10.9375
1589552191.0757494,0.69,-4.09,8.92,0.41,0.4244444444444445,-0.7022222222222222,-3.75,2.4375,-7.5625
1589552191.0861151,0.69,-4.08,8.78,0.41,0.4244444444444445,-0.7022222222222222,-0.75,-1.3125,-13.6875
1589552191.0961368,0.68,-4.07,8.81,0.41,0.4244444444444445,-0.7022222222222222,1.75,-6.3125,-3.75
1589552191.1072402,0.63,-4.03,8.82,0.41,0.4244444444444445,-0.7022222222222222,-6.75,-6.5625,-9.8125
1589552191.1167712,0.66,-3.9,8.97,0.41,0.4311111111111111,-0.6944444444444444,-1.375,-3.9375,-6.75
1589552191.1256824,0.42,-3.63,8.66,0.41,0.4311111111111111,-0.6944444444444444,-8.5625,-5.1875,-9.9375
1589552191.1363053,0.26,-3.4,8.75,0.41,0.4311111111111111,-0.6944444444444444,-3.375,-0.3125,-8.9375
1589552191.1454015,0.28,-3.22,9.12,0.41,0.4311111111111111,-0.6944444444444444,-3.125,-8.25,-21.6875
1589552191.157245,0.28,-3.01,8.91,0.41,0.4311111111111111,-0.6944444444444444,-1.875,-2.3125,-21.6875
1589552191.164264,0.32,-2.95,8.99,0.41,0.4044444444444445,-0.7022222222222222,-0.625,-0.9375,-8.8125
1589552191.1748762,0.32,-2.95,8.99,0.41,0.4044444444444445,-0.7022222222222222,-0.625,-0.9375,-8.8125
1589552191.1803446,0.26,-2.59,8.84,0.41,0.4044444444444445,-0.7022222222222222,3.375,-3.9375,-16.5
1589552191.1914694,0.24,-2.6,8.78,0.41,0.4044444444444445,-0.7022222222222222,-0.125,7.0,-23.8125
1589552191.1973276,0.4,-2.71,8.89,0.41,0.4044444444444445,-0.7022222222222222,-6.875,0.0625,-37.0625
1589552191.2121544,0.43,-2.72,8.84,0.41,0.4044444444444445,-0.7022222222222222,-2.5,-2.9375,-33.5
1589552191.2176394,0.46,-2.82,8.93,0.4244444444444445,0.4244444444444445,-0.6944444444444444,0.0,2.9375,-14.625
1589552191.2312438,0.32,-2.87,8.53,0.4244444444444445,0.4244444444444445,-0.6944444444444444,-2.75,2.5625,3.125
1589552191.2371109,0.42,-3.08,8.81,0.4244444444444445,0.4244444444444445,-0.6944444444444444,-5.875,-1.9375,6.375
1589552191.2492473,0.44,-3.18,9.0,0.4244444444444445,0.4244444444444445,-0.6944444444444444,-2.75,-5.6875,11.5625
1589552191.2579525,0.49,-3.2,8.86,0.4244444444444445,0.4244444444444445,-0.6944444444444444,2.75,0.5625,17.875
1589552191.2696571,0.53,-3.26,8.89,0.4177777777777778,0.43666666666666665,-0.7022222222222222,0.125,-4.3125,23.6875
1589552191.2764606,0.45,-3.3,8.91,0.4177777777777778,0.43666666666666665,-0.7022222222222222,-1.375,-2.4375,30.0
1589552191.286456,0.56,-3.33,8.81,0.4177777777777778,0.43666666666666665,-0.7022222222222222,0.875,-9.75,33.875
1589552191.296891,0.59,-3.42,8.85,0.4177777777777778,0.43666666666666665,-0.7022222222222222,-2.0,1.6875,34.25
1589552191.3087885,0.61,-3.48,8.9,0.4177777777777778,0.43666666666666665,-0.7022222222222222,1.0,-7.875,45.5
1589552191.3161592,0.59,-3.51,8.85,0.3911111111111111,0.43666666666666665,-0.7233333333333334,3.625,-2.1875,47.625
1589552191.3265727,0.61,-3.51,8.88,0.3911111111111111,0.43666666666666665,-0.7233333333333334,-1.875,0.8125,49.8125
1589552191.3431404,0.58,-3.58,8.84,0.3911111111111111,0.43666666666666665,-0.7233333333333334,1.25,2.5625,50.9375
1589552191.3491318,0.53,-3.5,8.84,0.3911111111111111,0.43666666666666665,-0.7233333333333334,-0.125,2.1875,47.0
1589552191.363143,0.53,-3.55,8.94,0.3911111111111111,0.43666666666666665,-0.7233333333333334,1.0,-3.0625,46.875
1589552191.368525,0.5,-3.63,8.99,0.4177777777777778,0.4311111111111111,-0.7111111111111111,1.375,-0.3125,54.0625
1589552191.381885,0.53,-3.57,8.88,0.4177777777777778,0.4311111111111111,-0.7111111111111111,-4.5,-3.8125,56.5
1589552191.3880572,0.53,-3.56,8.6,0.4177777777777778,0.4311111111111111,-0.7111111111111111,10.1875,-6.5625,50.0625
1589552191.3980734,0.48,-3.67,9.01,0.4177777777777778,0.4311111111111111,-0.7111111111111111,6.25,-7.625,48.875
1589552191.4080904,0.16,-3.61,9.13,0.4177777777777778,0.4311111111111111,-0.7111111111111111,-5.125,-0.4375,64.0625
1589552191.4203658,0.19,-3.57,8.76,0.4177777777777778,0.4244444444444445,-0.73,-0.25,-8.75,64.9375
1589552191.426128,0.22,-3.55,8.76,0.4177777777777778,0.4244444444444445,-0.73,-0.125,-9.5,62.25
1589552191.432002,0.22,-3.55,8.76,0.4177777777777778,0.4244444444444445,-0.73,-0.125,-9.5,62.25
1589552191.4465892,0.09,-3.49,8.78,0.4177777777777778,0.4244444444444445,-0.73,-6.125,-7.75,75.625
1589552191.458701,-0.01,-3.37,8.91,0.4177777777777778,0.4244444444444445,-0.73,1.0,-5.1875,81.5625
1589552191.4662554,-0.17,-3.38,8.88,0.4444444444444444,0.4044444444444445,-0.7377777777777778,1.5,-11.0,93.4375
1589552191.4811552,-0.31,-3.36,8.82,0.4444444444444444,0.4044444444444445,-0.7377777777777778,3.375,-9.5,99.75
1589552191.487817,-0.37,-3.31,8.92,0.4444444444444444,0.4044444444444445,-0.7377777777777778,2.125,-3.8125,115.5
1589552191.4995725,-0.22,-3.13,8.71,0.4444444444444444,0.4044444444444445,-0.7377777777777778,1.875,-7.25,111.4375
1589552191.5138216,0.01,-3.38,8.95,0.4444444444444444,0.4044444444444445,-0.7377777777777778,-1.0,-0.4375,115.25
1589552191.5196705,0.0,-3.4,8.85,0.4566666666666666,0.3711111111111111,-0.7233333333333334,-0.375,-13.75,108.3125
1589552191.5285015,-0.04,-3.34,8.86,0.4566666666666666,0.3711111111111111,-0.7233333333333334,-1.0,-4.8125,112.75
1589552191.5403035,-0.11,-3.44,8.89,0.4566666666666666,0.3711111111111111,-0.7233333333333334,4.125,-10.75,108.1875
1589552191.550376,-0.11,-3.54,8.86,0.4566666666666666,0.3711111111111111,-0.7233333333333334,2.5,-8.75,104.125
1589552191.560011,-0.02,-3.37,8.87,0.4566666666666666,0.3711111111111111,-0.7233333333333334,-2.5,-10.625,103.0
1589552191.5723732,0.01,-3.41,9.02,0.4955555555555556,0.3322222222222222,-0.73,1.375,-6.5625,106.5625
1589552191.5784845,0.0,-3.37,8.86,0.4955555555555556,0.3322222222222222,-0.73,5.125,-4.5625,92.8125
1589552191.5925415,-0.19,-3.44,8.8,0.4955555555555556,0.3322222222222222,-0.73,-2.875,-3.5625,94.5625
1589552191.5986414,-0.25,-3.47,8.9,0.4955555555555556,0.3322222222222222,-0.73,2.75,-3.4375,93.9375
1589552191.611569,-0.27,-3.45,8.89,0.4955555555555556,0.3322222222222222,-0.73,-6.75,-3.1875,80.8125
1589552191.6177726,-0.32,-3.53,8.95,0.5155555555555555,0.2977777777777777,-0.7511111111111111,-4.375,-3.3125,70.25
1589552191.628258,-0.33,-3.49,8.88,0.5155555555555555,0.2977777777777777,-0.7511111111111111,-0.875,-4.8125,65.4375
1589552191.6382654,-0.45,-3.53,8.77,0.5155555555555555,0.2977777777777777,-0.7511111111111111,-2.5,-4.5625,57.375
1589552191.6491585,-0.51,-3.56,8.89,0.5155555555555555,0.2977777777777777,-0.7511111111111111,-1.875,-2.6875,65.0625
1589552191.6640446,-0.5,-3.46,8.84,0.5155555555555555,0.2977777777777777,-0.7511111111111111,-6.0,-4.5625,60.125
1589552191.67097,-0.56,-3.47,8.98,0.52,0.2577777777777778,-0.7866666666666666,0.25,-7.875,56.0
1589552191.6788068,-0.6,-3.44,9.02,0.52,0.2577777777777778,-0.7866666666666666,0.375,-1.3125,42.375
1589552191.6902158,-0.59,-3.24,8.72,0.52,0.2577777777777778,-0.7866666666666666,-2.75,0.4375,36.3125
1589552191.6993165,-0.69,-3.4,8.87,0.52,0.2577777777777778,-0.7866666666666666,-3.25,3.1875,32.75
1589552191.7106893,-0.75,-3.34,8.85,0.52,0.2577777777777778,-0.7866666666666666,-3.75,-6.6875,41.0625
1589552191.7233846,-0.81,-3.33,9.02,0.5077777777777778,0.25222222222222224,-0.7866666666666666,1.875,8.125,37.9375
1589552191.7307887,-0.84,-3.38,8.86,0.5077777777777778,0.25222222222222224,-0.7866666666666666,3.375,-7.25,42.5
1589552191.743291,-0.9,-3.38,8.86,0.5077777777777778,0.25222222222222224,-0.7866666666666666,-0.5,2.9375,30.0
1589552191.7497878,-0.91,-3.35,8.93,0.5077777777777778,0.25222222222222224,-0.7866666666666666,2.0,1.3125,29.375
1589552191.761091,-0.9,-3.38,8.76,0.5077777777777778,0.25222222222222224,-0.7866666666666666,-2.625,-5.6875,25.9375
1589552191.7687492,-0.9,-3.41,8.98,0.5188888888888888,0.2288888888888889,-0.8488888888888889,-0.875,-3.6875,29.0
1589552191.7795696,-0.94,-3.4,8.93,0.5188888888888888,0.2288888888888889,-0.8488888888888889,-2.625,3.3125,30.0
1589552191.7894087,-0.93,-3.37,8.83,0.5188888888888888,0.2288888888888889,-0.8488888888888889,3.25,0.0625,36.0625
1589552191.7996547,-0.9,-3.18,8.91,0.5188888888888888,0.2288888888888889,-0.8488888888888889,2.75,-3.5625,17.0
1589552191.815393,-0.86,-3.15,8.94,0.5188888888888888,0.2288888888888889,-0.8488888888888889,-5.375,-9.875,27.5625
1589552191.822325,-0.89,-3.2,9.01,0.5333333333333333,0.19,-0.83,-4.125,5.0625,20.5
1589552191.8302822,-0.81,-3.11,8.94,0.5333333333333333,0.19,-0.83,-4.0,-6.5625,16.75
1589552191.8402145,-0.86,-3.23,8.86,0.5333333333333333,0.19,-0.83,3.625,-0.9375,14.625
1589552191.8501515,-0.77,-3.19,8.86,0.5333333333333333,0.19,-0.83,-0.375,2.1875,7.6875
1589552191.8617005,-0.82,-3.16,8.83,0.5333333333333333,0.19,-0.83,1.625,-3.8125,5.125
1589552191.8746998,-0.88,-3.23,9.06,0.5644444444444444,0.13666666666666666,-0.8155555555555556,-1.0,1.0625,10.3125
1589552191.881157,-0.94,-3.29,8.79,0.5644444444444444,0.13666666666666666,-0.8155555555555556,5.125,-7.5,2.375
1589552191.89467,-0.89,-3.19,8.92,0.5644444444444444,0.13666666666666666,-0.8155555555555556,-0.5,-1.1875,-0.875
1589552191.9007802,-0.88,-3.21,8.81,0.5644444444444444,0.13666666666666666,-0.8155555555555556,-0.625,-4.8125,-15.75
1589552191.9163187,-0.95,-3.28,9.0,0.5644444444444444,0.13666666666666666,-0.8155555555555556,0.875,7.375,-14.875
1589552191.9216573,-0.98,-3.31,8.91,0.5277777777777778,0.10666666666666667,-0.8155555555555556,-2.875,5.1875,-11.5625
1589552191.9329467,-0.99,-3.37,8.9,0.5277777777777778,0.10666666666666667,-0.8155555555555556,1.375,2.0625,-4.0
1589552191.9397302,-0.97,-3.37,8.87,0.5277777777777778,0.10666666666666667,-0.8155555555555556,4.0,0.4375,-20.875
1589552191.9505773,-0.97,-3.33,8.78,0.5277777777777778,0.10666666666666667,-0.8155555555555556,-6.375,6.1875,-16.75
1589552191.9625251,-0.93,-3.3,8.88,0.5277777777777778,0.10666666666666667,-0.8155555555555556,-1.375,-1.6875,-24.5625
1589552191.9701552,-0.95,-3.25,8.89,0.5488888888888889,0.09333333333333334,-0.8366666666666667,-1.0,2.6875,-23.6875
1589552191.9810646,-1.06,-3.48,8.95,0.5488888888888889,0.09333333333333334,-0.8366666666666667,-1.25,6.5625,-30.625
1589552191.9931328,-0.99,-3.31,8.63,0.5488888888888889,0.09333333333333334,-0.8366666666666667,-4.875,-0.8125,-17.0
1589552192.000624,-1.05,-3.38,8.83,0.5488888888888889,0.09333333333333334,-0.8366666666666667,-2.375,0.9375,-18.5
1589552192.0135312,-1.06,-3.31,8.9,0.5488888888888889,0.09333333333333334,-0.8366666666666667,7.1875,2.9375,-19.0
1589552192.0265932,-1.13,-3.43,8.77,0.5111111111111111,0.008888888888888889,-0.7733333333333333,-2.125,-1.0625,-12.6875
1589552192.0323946,-1.0,-3.29,8.85,0.5111111111111111,0.008888888888888889,-0.7733333333333333,3.5,-2.9375,-17.125
1589552192.0460427,-0.94,-3.28,8.88,0.5111111111111111,0.008888888888888889,-0.7733333333333333,-3.625,5.4375,-7.4375
1589552192.0524604,-0.96,-3.19,8.69,0.5111111111111111,0.008888888888888889,-0.7733333333333333,-2.875,2.4375,-2.75
1589552192.0672688,-1.01,-3.26,8.91,0.5111111111111111,0.008888888888888889,-0.7733333333333333,-0.75,-2.0625,-8.8125
1589552192.0732298,-1.04,-3.37,9.2,0.4988888888888889,0.05333333333333334,-0.7022222222222222,-2.875,-0.5625,5.625
1589552192.082135,-0.97,-3.12,8.78,0.4988888888888889,0.05333333333333334,-0.7022222222222222,-4.375,-0.1875,7.1875
1589552192.0906596,-0.93,-3.07,9.02,0.4988888888888889,0.05333333333333334,-0.7022222222222222,4.0,-1.3125,1.625
1589552192.1045024,-0.97,-3.03,8.84,0.4988888888888889,0.05333333333333334,-0.7022222222222222,2.5,2.8125,4.5
1589552192.1129644,-0.89,-3.05,8.95,0.4988888888888889,0.05333333333333334,-0.7022222222222222,-4.5,-3.9375,6.625
1589552192.1246507,-0.84,-2.95,8.76,0.4988888888888889,0.12555555555555556,-0.6888888888888889,-0.875,-8.5,11.1875
1589552192.1305568,-0.94,-3.09,9.0,0.4988888888888889,0.12555555555555556,-0.6888888888888889,-5.0,-6.0625,14.875
1589552192.142497,-0.91,-3.05,8.85,0.4988888888888889,0.12555555555555556,-0.6888888888888889,4.25,-2.4375,15.375
1589552192.1516252,-0.88,-2.98,8.68,0.4988888888888889,0.12555555555555556,-0.6888888888888889,4.75,2.5625,0.125
1589552192.1631415,-0.85,-3.1,8.94,0.4988888888888889,0.12555555555555556,-0.6888888888888889,6.375,-2.6875,1.625
1589552192.1706614,-0.85,-3.14,8.92,0.5255555555555556,0.16444444444444445,-0.6944444444444444,-0.25,1.3125,-0.125
1589552192.1816435,-0.9,-3.15,9.12,0.5255555555555556,0.16444444444444445,-0.6944444444444444,-1.0,-4.4375,1.875
1589552192.1915634,-0.89,-2.97,8.78,0.5255555555555556,0.16444444444444445,-0.6944444444444444,1.0,-1.0625,10.8125
1589552192.201995,-0.87,-3.0,8.93,0.5255555555555556,0.16444444444444445,-0.6944444444444444,-1.375,-4.5625,1.875
1589552192.215916,-0.95,-3.04,9.17,0.5255555555555556,0.16444444444444445,-0.6944444444444444,7.1875,4.0625,9.4375
1589552192.2215064,-1.05,-3.19,8.96,0.5333333333333333,0.18666666666666668,-0.6888888888888889,4.0,3.1875,3.25
1589552192.2337866,-0.95,-3.05,8.71,0.5333333333333333,0.18666666666666668,-0.6888888888888889,3.75,-2.3125,4.5
1589552192.2415164,-1.04,-3.13,8.83,0.5333333333333333,0.18666666666666668,-0.6888888888888889,3.75,-1.1875,12.1875
1589552192.2559178,-1.13,-3.21,9.06,0.5333333333333333,0.18666666666666668,-0.6888888888888889,-2.125,1.4375,8.8125
1589552192.2637708,-1.13,-3.12,8.94,0.5333333333333333,0.18666666666666668,-0.6888888888888889,0.75,-6.1875,10.3125
1589552192.271028,-1.08,-3.14,9.07,0.5455555555555556,0.19111111111111112,-0.6677777777777778,1.125,4.6875,9.8125
1589552192.2811172,-0.9,-2.97,8.62,0.5455555555555556,0.19111111111111112,-0.6677777777777778,5.125,0.6875,7.1875
1589552192.2916625,-0.6,-2.85,8.8,0.5455555555555556,0.19111111111111112,-0.6677777777777778,-1.375,-0.6875,6.5
1589552192.3011837,-0.64,-2.83,8.49,0.5455555555555556,0.19111111111111112,-0.6677777777777778,1.375,-3.1875,6.0
1589552192.3126204,-0.74,-3.49,8.99,0.5455555555555556,0.19111111111111112,-0.6677777777777778,-3.25,-2.8125,-3.25
1589552192.3199446,-0.43,-3.02,9.0,0.5455555555555556,0.19111111111111112,-0.7022222222222222,5.125,3.3125,-8.1875
1589552192.326268,-0.43,-3.02,9.0,0.5455555555555556,0.19111111111111112,-0.7022222222222222,5.125,3.3125,-8.1875
1589552192.340971,-0.7,-3.22,9.11,0.5455555555555556,0.19111111111111112,-0.7022222222222222,1.75,3.9375,-26.0625
1589552192.3515205,-0.7,-3.22,9.11,0.5455555555555556,0.19111111111111112,-0.7022222222222222,1.75,3.9375,-26.0625
1589552192.3631587,-0.72,-2.79,8.63,0.5455555555555556,0.19111111111111112,-0.7022222222222222,1.125,4.1875,-40.6875
1589552192.3754318,-0.77,-2.8,8.81,0.5633333333333334,0.19111111111111112,-0.6944444444444444,9.9375,8.625,-32.375
1589552192.3817437,-0.87,-2.8,8.9,0.5633333333333334,0.19111111111111112,-0.6944444444444444,-2.375,2.9375,-26.0625
1589552192.3910658,-0.88,-3.03,8.46,0.5633333333333334,0.19111111111111112,-0.6944444444444444,-1.375,-4.8125,-30.625
1589552192.3971891,-0.88,-3.03,8.46,0.5633333333333334,0.19111111111111112,-0.6944444444444444,-1.375,-4.8125,-30.625
1589552192.407927,-0.8,-3.06,8.46,0.5633333333333334,0.19111111111111112,-0.6944444444444444,-3.625,4.5625,-27.4375
1589552192.4133036,-0.71,-2.88,9.15,0.5633333333333334,0.19111111111111112,-0.6944444444444444,4.5,2.0625,-20.875
1589552192.4273822,-0.7,-2.88,9.04,0.5844444444444444,0.12555555555555556,-0.7155555555555555,-1.625,0.1875,-9.6875
1589552192.4331734,-0.7,-2.91,8.79,0.5844444444444444,0.12555555555555556,-0.7155555555555555,6.25,-1.9375,-29.5
1589552192.4457786,-0.6,-2.82,8.98,0.5844444444444444,0.12555555555555556,-0.7155555555555555,-0.25,2.3125,-31.5
1589552192.4524732,-0.54,-3.11,8.72,0.5844444444444444,0.12555555555555556,-0.7155555555555555,-1.375,9.625,-34.625
1589552192.464482,-0.57,-3.21,9.28,0.5844444444444444,0.12555555555555556,-0.7155555555555555,5.75,3.4375,-28.125
1589552192.4713302,-0.51,-3.21,8.62,0.7211111111111111,-0.13111111111111112,-0.5755555555555556,-1.875,-0.6875,-32.875
1589552192.4858892,-0.59,-3.4,8.69,0.7211111111111111,-0.13111111111111112,-0.5755555555555556,1.25,9.375,-31.125
1589552192.4917195,-0.58,-3.55,8.71,0.7211111111111111,-0.13111111111111112,-0.5755555555555556,-1.75,-3.8125,-31.125
1589552192.5032005,-0.64,-3.53,9.01,0.7211111111111111,-0.13111111111111112,-0.5755555555555556,4.75,5.3125,-25.1875
1589552192.5136626,-0.61,-3.46,8.87,0.7211111111111111,-0.13111111111111112,-0.5755555555555556,0.125,-1.5625,-15.75
1589552192.5243328,-0.47,-3.34,8.97,1.3666666666666667,0.13777777777777778,0.3388888888888889,4.5,-2.9375,-27.0625
1589552192.531368,-0.66,-3.88,9.0,1.3666666666666667,0.13777777777777778,0.3388888888888889,4.25,8.125,-8.0625
1589552192.5420492,-0.78,-4.16,8.74,1.3666666666666667,0.13777777777777778,0.3388888888888889,-0.5,-2.9375,0.0
1589552192.5523505,-0.78,-4.29,8.83,1.3666666666666667,0.13777777777777778,0.3388888888888889,2.25,-3.3125,-3.5
1589552192.5640874,-0.5,-4.07,8.87,1.3666666666666667,0.13777777777777778,0.3388888888888889,-2.5,-3.5625,4.75
1589552192.5716147,-0.45,-4.11,8.85,0.8477777777777777,0.4355555555555555,-0.6888888888888889,0.75,-0.9375,7.9375
1589552192.5835714,-0.39,-3.98,8.9,0.8477777777777777,0.4355555555555555,-0.6888888888888889,4.0,2.6875,-1.75
1589552192.593185,-0.25,-3.59,8.6,0.8477777777777777,0.4355555555555555,-0.6888888888888889,3.25,1.5625,1.625
1589552192.60427,-0.21,-3.37,8.89,0.8477777777777777,0.4355555555555555,-0.6888888888888889,-1.625,8.75,2.875
1589552192.6148415,-0.32,-3.75,9.24,0.8477777777777777,0.4355555555555555,-0.6888888888888889,0.5,-4.1875,7.1875
1589552192.6222005,-0.31,-3.71,8.11,0.6233333333333333,0.31555555555555553,-0.7533333333333333,0.75,-1.5625,-5.625
1589552192.6367495,-0.26,-3.4,9.06,0.6233333333333333,0.31555555555555553,-0.7533333333333333,0.125,-2.9375,4.5
1589552192.6428494,-0.36,-3.53,8.54,0.6233333333333333,0.31555555555555553,-0.7533333333333333,2.625,-2.5625,-0.125
1589552192.656412,-0.34,-3.4,8.94,0.6233333333333333,0.31555555555555553,-0.7533333333333333,-3.125,-9.0,-0.5
1589552192.664619,-0.36,-3.38,8.8,0.6233333333333333,0.31555555555555553,-0.7533333333333333,-5.25,-4.8125,2.5
1589552192.6757653,-0.38,-3.41,8.85,0.5722222222222222,0.28,-0.78,-8.6875,4.6875,-3.625
1589552192.6833706,-0.44,-3.48,9.11,0.5722222222222222,0.28,-0.78,7.3125,-3.3125,4.75
1589552192.6933956,-0.6,-3.64,8.98,0.5722222222222222,0.28,-0.78,-5.125,0.4375,9.1875
1589552192.708083,-0.46,-3.7,8.79,0.5722222222222222,0.28,-0.78,1.0,-1.0625,10.0625
1589552192.7155547,-0.42,-3.7,9.09,0.5722222222222222,0.28,-0.78,1.125,5.5625,9.8125
1589552192.72341,-0.31,-3.63,8.76,0.56,0.28,-0.7777777777777778,-5.75,-7.25,0.25
1589552192.735542,-0.31,-3.57,8.84,0.56,0.28,-0.7777777777777778,1.0,1.4375,5.75
1589552192.7437134,-0.3,-3.24,8.63,0.56,0.28,-0.7777777777777778,0.125,7.625,-0.75
1589552192.7560484,-0.31,-3.37,8.92,0.56,0.28,-0.7777777777777778,-0.625,-0.0625,-12.4375
1589552192.7666357,-0.2,-3.17,9.23,0.56,0.28,-0.7777777777777778,2.75,6.1875,-19.875
1589552192.7733755,-0.79,-5.92,10.17,0.56,0.2677777777777778,-0.75,-76.9375,190.375,-26.8125
1589552192.7873788,-27.0,-22.89,6.13,0.56,0.2677777777777778,-0.75,-188.125,-312.8125,-865.6875
1589552192.7942019,4.34,1.43,-3.39,0.56,0.2677777777777778,-0.75,-55.5625,63.125,-574.25
1589552192.80787,-2.21,-7.39,15.86,0.56,0.2677777777777778,-0.75,-33.0,136.25,-530.8125
1589552192.8158007,-2.71,-5.67,9.56,0.56,0.2677777777777778,-0.75,95.3125,130.8125,-453.25
1589552192.8269026,-6.06,-4.65,14.73,0.54,0.2933333333333333,-0.7288888888888889,140.5,29.5625,-392.375
1589552192.8341045,-1.59,-2.9,1.11,0.54,0.2933333333333333,-0.7288888888888889,-18.125,1.3125,-274.0625
1589552192.844303,-2.54,-21.56,9.75,0.54,0.2933333333333333,-0.7288888888888889,-40.8125,26.0,-103.0
1589552192.8541908,0.04,-3.12,5.58,0.54,0.2933333333333333,-0.7288888888888889,9.0625,-20.1875,-75.125
1589552192.865869,0.12,0.5,8.32,0.54,0.2933333333333333,-0.7288888888888889,1.0,18.6875,-46.5
1589552192.8736072,1.99,0.27,13.73,0.3855555555555555,0.5044444444444445,-0.7333333333333333,-2.125,-2.3125,-28.625
1589552192.8877866,3.17,-7.13,9.71,0.3855555555555555,0.5044444444444445,-0.7333333333333333,2.25,7.25,12.5625
1589552192.8939874,2.78,-3.44,8.54,0.3855555555555555,0.5044444444444445,-0.7333333333333333,-2.25,-5.5625,19.5
1589552192.905999,2.29,-1.3,8.1,0.3855555555555555,0.5044444444444445,-0.7333333333333333,-7.5625,-1.8125,26.8125
1589552192.9157667,1.95,-4.42,8.03,0.3855555555555555,0.5044444444444445,-0.7333333333333333,-0.25,-1.0625,37.0625
1589552192.924989,1.66,-4.09,8.97,0.3533333333333333,0.5311111111111111,-0.7244444444444444,4.75,-5.4375,33.75
1589552192.9392884,1.32,-3.99,8.98,0.3533333333333333,0.5311111111111111,-0.7244444444444444,0.0,2.5625,32.5
1589552192.9454956,1.2,-4.01,8.69,0.3533333333333333,0.5311111111111111,-0.7244444444444444,-1.75,6.5625,23.4375
1589552192.9593587,0.88,-3.85,8.62,0.3533333333333333,0.5311111111111111,-0.7244444444444444,3.75,-2.8125,23.6875
1589552192.9662,0.85,-4.2,8.98,0.3533333333333333,0.5311111111111111,-0.7244444444444444,-3.375,-1.8125,29.625
1589552192.9746587,0.72,-4.01,8.61,0.36,0.5277777777777778,-0.7388888888888889,-1.25,-7.5,43.875
1589552192.984158,0.47,-4.04,8.75,0.36,0.5277777777777778,-0.7388888888888889,3.25,-5.1875,48.25
1589552192.9941392,0.73,-4.0,9.01,0.36,0.5277777777777778,-0.7388888888888889,-3.125,-9.875,56.375
1589552193.0042913,0.69,-3.96,8.91,0.36,0.5277777777777778,-0.7388888888888889,4.0,-10.0,60.75
1589552193.0163085,0.96,-3.88,8.68,0.36,0.5277777777777778,-0.7388888888888889,0.875,3.9375,64.9375
1589552193.0251555,0.99,-4.14,8.62,0.36777777777777776,0.5344444444444445,-0.7411111111111112,-0.875,1.3125,49.1875
1589552193.0360048,0.55,-4.08,8.77,0.36777777777777776,0.5344444444444445,-0.7411111111111112,-1.25,-7.0,69.0625
1589552193.0457554,0.45,-3.96,8.71,0.36777777777777776,0.5344444444444445,-0.7411111111111112,-2.25,-5.1875,62.5
1589552193.057631,0.87,-4.12,8.94,0.36777777777777776,0.5344444444444445,-0.7411111111111112,3.25,1.1875,77.6875
1589552193.0670285,0.5,-3.78,8.61,0.36777777777777776,0.5344444444444445,-0.7411111111111112,0.125,-0.8125,79.4375
1589552193.0793836,0.45,-4.33,8.94,0.3944444444444444,0.5111111111111111,-0.7177777777777777,-1.5,3.6875,84.375
1589552193.0905006,0.55,-4.07,8.73,0.3944444444444444,0.5111111111111111,-0.7177777777777777,0.25,-3.5625,90.375
1589552193.0972767,0.36,-3.83,8.54,0.3944444444444444,0.5111111111111111,-0.7177777777777777,0.125,-10.5,95.6875
1589552193.1059608,0.45,-4.02,9.34,0.3944444444444444,0.5111111111111111,-0.7177777777777777,-6.75,-6.8125,89.125
1589552193.117585,0.32,-4.2,8.74,0.3944444444444444,0.5111111111111111,-0.7177777777777777,-0.75,-6.3125,92.6875
1589552193.12649,0.26,-4.39,8.56,0.4133333333333333,0.4844444444444445,-0.7322222222222222,0.0,-2.3125,96.4375
1589552193.1349914,0.32,-4.27,8.94,0.4133333333333333,0.4844444444444445,-0.7322222222222222,-2.25,-3.6875,97.8125
1589552193.1488855,0.2,-4.08,8.9,0.4133333333333333,0.4844444444444445,-0.7322222222222222,4.5,1.3125,99.625
1589552193.1560178,-0.03,-4.34,8.78,0.4133333333333333,0.4844444444444445,-0.7322222222222222,4.5,-2.4375,102.875
1589552193.1678686,-0.17,-4.26,8.93,0.4133333333333333,0.4844444444444445,-0.7322222222222222,2.5,-8.25,109.8125
1589552193.1757288,6.13,-13.04,8.91,0.42777777777777776,0.4577777777777778,-0.7244444444444444,-16.5,-15.5625,38.0625
1589552193.18567,1.92,-2.78,7.27,0.42777777777777776,0.4577777777777778,-0.7244444444444444,9.5625,8.375,42.5
1589552193.1964133,0.14,-3.24,10.6,0.42777777777777776,0.4577777777777778,-0.7244444444444444,11.9375,3.3125,5.875
1589552193.2065506,-0.88,-3.66,8.06,0.42777777777777776,0.4577777777777778,-0.7244444444444444,-7.9375,-9.625,7.9375
1589552193.2176445,0.3,-4.49,9.25,0.42777777777777776,0.4577777777777778,-0.7244444444444444,-6.375,4.0625,-2.875
1589552193.224898,0.11,-4.25,8.99,0.46,0.4266666666666667,-0.7322222222222222,-4.375,1.6875,-6.625
1589552193.232051,0.11,-4.25,8.99,0.46,0.4266666666666667,-0.7322222222222222,-4.375,1.6875,-6.625
1589552193.2412732,0.0,-4.37,8.68,0.46,0.4266666666666667,-0.7322222222222222,1.0,-0.0625,1.25
1589552193.247905,0.06,-4.43,8.71,0.46,0.4266666666666667,-0.7322222222222222,7.0625,3.3125,0.625
1589552193.2556524,0.1,-4.17,8.82,0.46,0.4266666666666667,-0.7322222222222222,4.25,6.3125,-7.5625
1589552193.2687645,0.09,-4.27,8.91,0.46,0.4266666666666667,-0.7322222222222222,-4.875,0.4375,-0.5
1589552193.2760904,0.08,-4.34,8.86,0.4666666666666667,0.4266666666666667,-0.7322222222222222,-3.375,1.9375,8.1875
1589552193.2878187,0.08,-4.31,8.79,0.4666666666666667,0.4266666666666667,-0.7322222222222222,-1.5,-1.5625,3.375
1589552193.300658,0.09,-4.34,8.73,0.4666666666666667,0.4266666666666667,-0.7322222222222222,2.125,5.4375,-9.6875
1589552193.306892,0.09,-4.25,8.8,0.4666666666666667,0.4266666666666667,-0.7322222222222222,-4.25,2.5625,-3.625
1589552193.3192732,0.08,-4.2,8.92,0.4666666666666667,0.4266666666666667,-0.7322222222222222,-3.875,1.5625,-6.5
1589552193.3262372,0.08,-4.29,8.89,0.48,0.43333333333333335,-0.7244444444444444,-3.0,-4.1875,0.0
1589552193.3364654,0.1,-4.29,8.83,0.48,0.43333333333333335,-0.7244444444444444,1.75,0.6875,0.375
1589552193.3466516,0.09,-4.31,8.72,0.48,0.43333333333333335,-0.7244444444444444,7.8125,5.6875,-6.125
1589552193.3595624,0.09,-4.27,8.82,0.48,0.43333333333333335,-0.7244444444444444,0.5,2.5625,-0.875
1589552193.3692546,0.08,-4.25,8.87,0.48,0.43333333333333335,-0.7244444444444444,-4.0,-5.5625,-6.25
1589552193.3805282,0.08,-4.26,8.89,0.46,0.4177777777777778,-0.7322222222222222,4.375,0.0625,2.0
1589552193.386383,0.09,-4.32,8.78,0.46,0.4177777777777778,-0.7322222222222222,1.5,1.3125,-8.0625
1589552193.4005196,0.09,-4.32,8.72,0.46,0.4177777777777778,-0.7322222222222222,-4.125,-3.6875,3.5
1589552193.4077735,0.09,-4.3,8.77,0.46,0.4177777777777778,-0.7322222222222222,1.875,-0.3125,1.125
1589552193.4194643,0.11,-4.28,8.84,0.46,0.4177777777777778,-0.7322222222222222,3.25,-5.5625,-7.8125
1589552193.4266071,0.08,-4.27,8.91,0.48,0.4177777777777778,-0.7177777777777777,7.5625,0.0625,3.375
1589552193.437801,0.08,-4.28,8.88,0.48,0.4177777777777778,-0.7177777777777777,4.0,4.9375,-1.375
1589552193.4471679,0.09,-4.29,8.72,0.48,0.4177777777777778,-0.7177777777777777,-3.625,-11.875,2.875
1589552193.457266,0.1,-4.3,8.8,0.48,0.4177777777777778,-0.7177777777777777,-8.8125,-0.4375,4.625
1589552193.4714663,0.08,-4.28,8.87,0.48,0.4177777777777778,-0.7177777777777777,2.375,3.8125,-4.5
1589552193.4775574,0.08,-4.25,8.88,0.4477777777777778,0.4244444444444445,-0.7466666666666667,0.375,1.4375,0.25
1589552193.4898038,0.08,-4.27,8.88,0.4477777777777778,0.4244444444444445,-0.7466666666666667,2.125,1.1875,7.4375
1589552193.497726,0.08,-4.32,8.73,0.4477777777777778,0.4244444444444445,-0.7466666666666667,4.0,2.3125,-5.0
1589552193.508092,0.09,-4.3,8.8,0.4477777777777778,0.4244444444444445,-0.7466666666666667,-0.875,6.4375,5.625
1589552193.519792,0.08,-4.28,8.83,0.4477777777777778,0.4244444444444445,-0.7466666666666667,4.125,1.1875,-9.3125
1589552193.5308163,0.08,-4.26,8.89,0.46,0.4311111111111111,-0.7322222222222222,-2.0,2.1875,11.4375
1589552193.5376403,0.08,-4.28,8.87,0.46,0.4311111111111111,-0.7322222222222222,-9.0625,0.1875,0.875
1589552193.5484645,0.09,-4.32,8.76,0.46,0.4311111111111111,-0.7322222222222222,-2.625,6.1875,5.25
1589552193.557637,0.09,-4.29,8.75,0.46,0.4311111111111111,-0.7322222222222222,-6.625,-4.1875,3.125
1589552193.570205,0.09,-4.27,8.86,0.46,0.4311111111111111,-0.7322222222222222,-2.125,-2.0625,-0.75
1589552193.5775454,0.1,-4.25,8.91,0.4722222222222222,0.4177777777777778,-0.7244444444444444,-1.375,0.1875,3.75
1589552193.5889714,0.09,-4.26,8.9,0.4722222222222222,0.4177777777777778,-0.7244444444444444,-3.625,-2.0625,6.625
1589552193.6014526,0.08,-4.28,8.79,0.4722222222222222,0.4177777777777778,-0.7244444444444444,-6.125,-2.1875,-8.4375
1589552193.6083596,0.08,-4.3,8.78,0.4722222222222222,0.4177777777777778,-0.7244444444444444,4.75,-7.25,-4.25
1589552193.6204116,0.08,-4.29,8.83,0.4722222222222222,0.4177777777777778,-0.7244444444444444,-6.0,-7.375,6.75
1589552193.6281848,0.09,-4.28,8.87,0.4666666666666667,0.4311111111111111,-0.7322222222222222,4.0,2.9375,-1.0
1589552193.6376069,0.08,-4.25,8.85,0.4666666666666667,0.4311111111111111,-0.7322222222222222,-5.875,-3.3125,-1.625
1589552193.6490142,0.09,-4.26,8.75,0.4666666666666667,0.4311111111111111,-0.7322222222222222,-1.0,2.8125,-3.0
1589552193.6619475,0.09,-4.3,8.79,0.4666666666666667,0.4311111111111111,-0.7322222222222222,4.375,-0.6875,-1.375
1589552193.6705453,0.1,-4.3,8.83,0.4666666666666667,0.4311111111111111,-0.7322222222222222,-2.0,2.3125,6.375
1589552193.6820214,0.08,-4.28,8.89,0.4666666666666667,0.4244444444444445,-0.7388888888888889,-2.625,6.4375,-4.375
1589552193.6877189,0.1,-4.26,8.89,0.4666666666666667,0.4244444444444445,-0.7388888888888889,2.875,-6.3125,2.625
1589552193.702522,0.09,-4.3,8.78,0.4666666666666667,0.4244444444444445,-0.7388888888888889,0.125,5.6875,-0.125
