time,acc_x,acc_y,acc_z,mag_x,mag_y,mag_z,gyr_x,gyr_y,gyr_z
1588960045.358762,0.85,-2.24,-9.66,-0.5877777777777777,0.10777777777777778,0.6977777777777778,0.0,0.4375,0.0
1588960045.368762,0.8425322150875814,-2.25,-9.583733892456209,-0.5778207312278862,0.11524556269019641,0.6927992545028321,0.0625,-1.0692051063643908,-0.15584731140523306
1588960045.378762,0.83,-2.254946995147443,-9.580106009705114,-0.5611111111111111,0.12777777777777774,0.6844444444444444,0.0625,-1.4072438409854424,-0.2197438409854423
1588960045.388762,0.8115113251757355,-2.2476742167838237,-9.619303132864706,-0.5611111111111111,0.12777777777777774,0.6844444444444444,0.10101807255055106,-0.7347289117417339,-0.04796385489889786
1588960045.398762,0.7905286790832065,-2.221057358166413,-9.583700753582445,-0.5611111111111111,0.12777777777777774,0.6844444444444444,0.24339151145991955,1.282481160438874,0.23678302291983913
1588960045.408762,0.812910065851364,-2.242910065851364,-9.57236331138288,-0.5611111111111111,0.12777777777777774,0.6844444444444444,0.25,2.663691204139228,0.44091721542803386
1588960045.418762,0.8400732722731057,-2.2499816819317235,-9.550091590341383,-0.5877777777777777,0.13444444444444445,0.7555555555555555,0.25011448792672775,3.562156536219817,0.6247710241465445
1588960045.428762,0.8749966694421316,-2.241250832639467,-9.593745836802665,-0.5877777777777777,0.13444444444444445,0.7555555555555555,0.3046822960033306,3.3984531119900083,0.5156354079933388
1588960045.438762,0.8883799351694224,-2.2567598703388447,-9.641899675847112,-0.5877777777777777,0.13444444444444445,0.7555555555555555,0.20775081038222057,2.641755672675544,0.39525081038222054
1588960045.448762,0.89,-2.2522363955010314,-9.65,-0.5877777777777777,0.13444444444444445,0.7555555555555555,0.041932415644341914,1.5780719657474986,0.2779549437628946
1588960045.458762,0.89,-2.254523218012237,-9.63190712795105,-0.5877777777777777,0.13444444444444445,0.7555555555555555,0.028270112576482445,0.8884483113527633,0.16518966227055265
1588960045.468762,0.8873059982381677,-2.255958997357251,-9.604611996476335,-0.5888254451296014,0.13444444444444445,0.7497185517382522,0.0625,0.21504364539120685,0.028824977977096176
1588960045.478762,0.8564820662832829,-2.2367589668583587,-9.576758966858359,-0.5955555555555555,0.13444444444444445,0.7122222222222222,-0.06423062859422266,-1.4461531429711134,-0.3142306285942227
1588960045.488762,0.8373841993886668,-2.2526158006113333,-9.643079003056666,-0.5955555555555555,0.13444444444444445,0.7122222222222222,-0.125,-1.9076975076416647,-0.33557562308958383
1588960045.498762,0.83,-2.255673995280722,-9.671347990561443,-0.5955555555555555,0.13444444444444445,0.7122222222222222,-0.09796247050451327,-1.9729624705045132,-0.3125
1588960045.508762,0.8540927711341912,-2.245181445773162,-9.60699590350478,-0.5955555555555555,0.13444444444444445,0.7122222222222222,-0.12273192783547814,-1.9977319278354781,-0.3125
1588960045.5187619,0.8614735052422783,-2.249263247378861,-9.559263247378862,-0.5770290607978339,0.10974245143414879,0.7060467239696484,-0.07170940776423916,-2.7572435534145647,-0.4282905922357608
1588960045.5287619,0.8678954923343767,-2.2578954923343764,-9.552104507665623,-0.5755555555555556,0.10777777777777778,0.7055555555555556,-0.16119365417970852,-3.2566214438086885,-0.5361936541797085
1588960045.5387619,0.8377362321075219,-2.2438681160537612,-9.638725361704315,-0.5755555555555556,0.10777777777777778,0.7055555555555556,-0.1875,-3.526236411995991,-0.612912137331997
1588960045.5487618,0.83,-2.24,-9.620398352280572,-0.5755555555555556,0.10777777777777778,0.7055555555555556,-0.2370020596492843,-2.8694711649100197,-0.42699176140286277
1588960045.5587618,0.813280604295102,-2.24,-9.598853736196734,-0.5755555555555556,0.10777777777777778,0.7055555555555556,-0.14550377684438723,-2.165018884221936,-0.375
1588960045.5687618,0.7937152059805949,-2.246284794019405,-9.57743041196119,-0.5755555555555556,0.120347365816588,0.714633591361363,0.016059925242564027,-1.2000805233020517,-0.17860018689358995
1588960045.5787618,0.79,-2.2331003438682586,-9.598166093552901,-0.5755555555555556,0.12777777777777774,0.72,0.0625,-0.24126289505970178,-0.0625
1588960045.5887618,0.795822855546242,-2.2316457110924843,-9.672405699916178,-0.5755555555555556,0.12777777777777774,0.72,0.0988928471640123,0.9778569432802459,0.11946423582006147
1588960045.5987618,0.8059710439319712,-2.2459710439319713,-9.668202692476202,-0.5755555555555556,0.12777777777777774,0.72,0.19963804914963956,2.0597853686222964,0.32463804914963956
1588960045.6087618,0.8394176625206623,-2.25,-9.598815272471073,-0.5755555555555556,0.12777777777777774,0.72,0.28677207815082784,3.0258532504132454,0.48531623445248356
1588960045.6187618,0.8653742617220459,-2.2446257382779544,-9.548502953111816,-0.5791383967035861,0.13136061892580836,0.7158200186606309,0.3125,3.303143456948853,0.49532172847442646
1588960045.6287618,0.8633379116041556,-2.2533241767916885,-9.556648353583377,-0.5822222222222222,0.13444444444444445,0.7122222222222222,0.22922389505194576,2.521291160415566,0.47913805247402713
1588960045.6387618,0.8664601822740479,-2.2470796354519043,-9.608761093644288,-0.5822222222222222,0.13444444444444445,0.7122222222222222,0.1875,1.4203533549568195,0.37887158236160307
1588960045.6487617,0.865172965087232,-2.249654069825536,-9.601037790523392,-0.5822222222222222,0.13444444444444445,0.7122222222222222,0.09699309538559923,0.2759447630847939,0.10131722256639822
1588960045.6587617,0.8501023175542406,-2.2501023175542407,-9.57494884122288,-0.5822222222222222,0.13444444444444445,0.7122222222222222,0.06186051528599606,-0.9948841222879685,-0.18686051528599606
1588960045.6687617,0.832748247580668,-2.254503504838664,-9.58,-0.5862509735662955,0.12960994283155644,0.7226969757168128,0.07967654737917529,-1.5906469052416494,-0.2046765473791753
1588960045.6787617,0.8427264478459838,-2.266363223922992,-9.599089671768976,-0.5877777777777777,0.12777777777777774,0.7266666666666667,0.0227298504813003,-1.0682179067382043,-0.1477298504813003
1588960045.6887617,0.8429064188067719,-2.248719256420316,-9.638374324772913,-0.5877777777777777,0.12777777777777774,0.7266666666666667,-0.1330046473730271,-0.7943348824576757,-0.1693348824576757
1588960045.6987617,0.8339573242571017,-2.24,-9.65,-0.5877777777777777,0.12777777777777774,0.7266666666666667,-0.11196655321377143,-1.1146337871449143,-0.30080017017934285
1588960045.7087617,0.8346897143115042,-2.2446897143115043,-9.631241142753982,-0.5877777777777777,0.12777777777777774,0.7266666666666667,-0.09181071444690166,-1.5176750011283116,-0.287067856659295
1588960045.7187617,0.85292,-2.2435400000000003,-9.57124,-0.5798822222222222,0.13208444444444442,0.7309733333333333,-0.084625,-2.2748749999999998,-0.26825
1588960045.7287617,0.8494619138201969,-2.24,-9.555269043089902,-0.5755555555555556,0.13444444444444445,0.7333333333333333,-0.09543151931188487,-3.1552673476139277,-0.4112945579356546
1588960045.7387617,0.8293131483038968,-2.250686851696103,-9.608090832632465,-0.5755555555555556,0.13444444444444445,0.7333333333333333,-0.0916035884496776,-4.155049761704514,-0.5667928231006448
1588960045.7487617,0.8273580738331594,-2.2379257785005215,-9.635283852333682,-0.5755555555555556,0.13444444444444445,0.7333333333333333,-0.0625,-4.746451845828985,-0.7169759229144924
1588960045.7587616,0.8360759840363096,-2.242151968072619,-9.593544095782143,-0.5755555555555556,0.13444444444444445,0.7333333333333333,-0.10047490022693481,-4.73655019954613,-0.8259498004538697
1588960045.7687616,0.8303505291005291,-2.25,-9.574824735449736,-0.5755555555555556,0.13444444444444445,0.718859126984127,-0.125,-5.079509755291006,-0.8146908068783069
1588960045.7787616,0.8135485223223643,-2.2370970446447287,-9.56709704464473,-0.5755555555555556,0.13444444444444445,0.7033333333333334,-0.125,-6.306434709704464,-0.8709652064556697
1588960045.7887616,0.7747952063442838,-2.2370409587311433,-9.651532463504862,-0.5755555555555556,0.13444444444444445,0.7033333333333334,-0.25701797620893607,-7.190059920696454,-1.0255119841392908
1588960045.7987616,0.753026007611984,-2.24,-9.648156045671904,-0.5755555555555556,0.13444444444444445,0.7033333333333334,-0.3125,-6.895538023323899,-1.1060874524251
1588960045.8087616,0.7383570147606566,-2.2458214926196716,-9.606714029521314,-0.5755555555555556,0.13444444444444445,0.7033333333333334,-0.348884328872948,-5.95981342254104,-1.0158470133811561
1588960045.8187616,0.7229594677167492,-2.2570405322832507,-9.561837870866997,-0.5708618673667217,0.12427478670197117,0.7048978960629446,-0.11098003937809764,-4.205406850431123,-0.7174833661484147
1588960045.8287616,0.7146067689310932,-2.2546067689310934,-9.58235938641344,-0.5688888888888889,0.12,0.7055555555555556,0.0,-2.6762691745799856,-0.38904614073532995
1588960045.8387616,0.7142746383434713,-2.25,-9.631373191717357,-0.5688888888888889,0.12,0.7055555555555556,0.0,-0.9308558416590502,-0.027201062119827285
1588960045.8487616,0.7151239669421487,-2.254876033057851,-9.66,-0.5688888888888889,0.12,0.7055555555555556,0.060950413223140494,1.1337809917355373,0.21797520661157024
1588960045.8587615,0.7223584286859558,-2.255880523771348,-9.627044190170784,-0.5688888888888889,0.12,0.7055555555555556,0.09925327357092535,2.809155066443165,0.4044803585744479
1588960045.8687615,0.7579687974875899,-2.25,-9.56203120251241,-0.5728819549972423,0.11600693389164668,0.7221933310070277,0.13736998953162463,4.286784942423935,0.6998699895316246
1588960045.8787615,0.7792866739764953,-2.2546433369882477,-9.554643336988248,-0.5755555555555556,0.11333333333333333,0.7333333333333333,0.1294582876469044,4.359354006764165,0.7209791438234522
1588960045.8887615,0.79,-2.257161353412869,-9.58838646587131,-0.5755555555555556,0.11333333333333333,0.7333333333333333,0.1157246235087033,3.8588768824564834,0.6165338353217289
1588960045.8987615,0.7693016779346341,-2.25,-9.643441342347707,-0.5755555555555556,0.11333333333333333,0.7333333333333333,0.25,3.1875,0.4892458051634147
1588960045.9087615,0.7536746075239354,-2.2417952354856387,-9.609060313980851,-0.5755555555555556,0.11333333333333333,0.7333333333333333,0.19872022178524226,3.478085409883627,0.5966865188098385
1588960045.9187615,0.8029939871171642,-2.2303951896937315,-9.592993987117165,-0.578731863517529,0.11333333333333333,0.7333333333333333,0.09498496779291042,4.5423647101361935,0.7687124194822761
1588960045.9287615,0.8310784353112906,-2.2528627482490324,-9.621078435311292,-0.585596950853871,0.11333333333333333,0.7333333333333333,0.1651960882782264,5.174264794504038,0.944240220695566
1588960045.9387615,0.8556604771632861,-2.2495596818911427,-9.640440318108858,-0.5877777777777777,0.11333333333333333,0.7333333333333333,0.15487400590982053,4.787732106376769,0.8042440354589231
1588960045.9487615,0.8643374230921455,-2.2456625769078546,-9.633012269276437,-0.5877777777777777,0.11333333333333333,0.7333333333333333,0.0896088943259094,2.8697468787104663,0.41265336595545643
1588960045.9587615,0.8542732324200039,-2.244273232420004,-9.59136616210002,-0.5877777777777777,0.11333333333333333,0.7333333333333333,0.09829229737497605,0.1660543207511016,-0.03633837899980835
1588960045.9687614,0.85,-2.24,-9.551984590454643,-0.5717640804041269,0.11733675767674605,0.7239920098653703,0.012403690341517115,-2.6763804384382546,-0.4376605160974715
1588960045.9787614,0.8264768654284783,-2.24,-9.54588078364288,-0.5611111111111111,0.12,0.7177777777777777,-0.025745102231997392,-4.889401830808081,-0.6727646933040078
1588960045.9887614,0.7692428345443334,-2.24,-9.619869426495429,-0.5611111111111111,0.12,0.7177777777777777,-0.03639032629970239,-6.342525873394643,-0.8227806525994048
1588960045.9987614,0.727434400247861,-2.2462827998760697,-9.66371720012393,-0.5611111111111111,0.12,0.7177777777777777,-0.10176749922543435,-6.223487511618485,-0.875
1588960046.0087614,0.7319549861600593,-2.25,-9.632105032293195,-0.5611111111111111,0.12,0.7177777777777777,-0.1499062211667902,-5.152719586163085,-0.750468894166049
1588960046.0187614,0.75,-2.25,-9.59,-0.5629699618284574,0.12,0.7177777777777777,-0.1819968235341723,-3.9249205883543077,-0.5349841176708615
1588960046.0287614,0.7533764832793959,-2.25,-9.576494066882416,-0.5822222222222222,0.12,0.7177777777777777,-0.14610302049622437,-2.1412486515641858,-0.25
1588960046.0387614,0.7568302658486707,-2.25,-9.572188139059305,-0.5822222222222222,0.12,0.7177777777777777,-0.16768916155419222,-1.3186349693251533,-0.22028374233128833
1588960046.0487614,0.74,-2.25,-9.653025658772927,-0.5822222222222222,0.12,0.7177777777777777,-0.0625,0.07179450734167203,0.10256402333514608
1588960046.0587614,0.7494671443659784,-2.2547335721829893,-9.586864994719075,-0.5822222222222222,0.12,0.7177777777777777,-0.003330347712634872,1.6079599581667945,0.3387544784310477
1588960046.0687613,0.756721073846826,-2.2567210738468257,-9.546721073846825,-0.5840438478628744,0.11380647282178229,0.7199637285465604,0.021513423085323967,2.8903926153174084,0.47848657691467605
1588960046.0787613,0.75,-2.25,-9.563107821547996,-0.5877777777777777,0.10111111111111112,0.7244444444444444,-0.021236032950004077,4.016403637549955,0.7069238846749857
1588960046.0887613,0.7457197973630355,-2.25,-9.657082229006608,-0.5877777777777777,0.10111111111111112,0.7244444444444444,0.08925126648102795,5.873794326835978,1.053502532962056
1588960046.0987613,0.7520613445055156,-2.2469846638736213,-9.695877310988969,-0.5877777777777777,0.10111111111111112,0.7244444444444444,0.10615414921013183,7.728067225275781,1.2003834031594727
1588960046.1087613,0.8320104397837027,-2.24,-9.602849685868783,-0.5877777777777777,0.10111111111111112,0.7244444444444444,0.08571894633201013,9.38040840965211,1.4214378926640203
1588960046.1187613,0.9206803953222822,-2.24,-9.537958814033153,-0.5873997803765099,0.10194270539390043,0.7249736408062195,0.13775741229279048,9.689178347836359,1.4787376461786825
1588960046.1287613,0.9338302242716412,-2.24,-9.51,-0.5822222222222222,0.11333333333333333,0.7322222222222222,0.26462219660448544,6.348215782854748,0.9241720813246699
1588960046.1387613,0.9068561922148283,-2.217904128143219,-9.554191743713563,-0.5822222222222222,0.11333333333333333,0.7322222222222222,0.11845040044755904,2.030309610741417,0.2928512013426771
1588960046.1487613,0.8393372192875173,-2.1213547060813447,-9.603343048218793,-0.5822222222222222,0.11333333333333333,0.7322222222222222,0.033321189726508625,-2.0787052096073277,-0.2957483280855604
1588960046.1587613,0.8254443305621987,-2.083667008313404,-9.575444330562199,-0.5822222222222222,0.11333333333333333,0.7322222222222222,0.005554132027483581,-3.785431613711422,-0.5854188019587746
1588960046.1687613,0.8142335877530607,-2.1201824428642877,-9.57,-0.5783779473909293,0.11173155215362796,0.7299797285706346,-0.09854007654337096,-5.004561071607194,-0.7956202296301129
1588960046.1787612,0.8057600950118765,-2.149839667458432,-9.564239904988124,-0.5688888888888889,0.10777777777777778,0.7244444444444444,-0.20550029691211402,-6.79000890736342,-1.080500296912114
1588960046.1887612,0.7874171059343649,-2.108145723516409,-9.598874341098453,-0.5688888888888889,0.10777777777777778,0.7244444444444444,-0.22454461401122258,-9.474135457405204,-1.125
1588960046.1987612,0.7102457997089562,-2.1162807249636195,-9.67371927503638,-0.5688888888888889,0.10777777777777778,0.7244444444444444,-0.28048187590951185,-12.01863672443445,-0.9390362481809763
1588960046.2087612,0.6407440079541368,-2.1177023968183453,-9.63378561908993,-0.5688888888888889,0.10777777777777778,0.7244444444444444,-0.48563998011465803,-11.53173060650293,-0.2880201391973937
1588960046.2187612,0.6442662180912737,-2.125104825986961,-9.547762064967403,-0.5735121087900925,0.11076927300796834,0.7211809951024184,-0.5777974187907472,-8.361439385299652,0.49475870065195493
1588960046.2287612,0.7517535921251092,-2.1091232039374455,-9.511753592125109,-0.5877777777777777,0.12,0.7111111111111111,-0.5976001230451695,-5.752220270699373,1.2828798523457967
1588960046.2387612,0.7831581961097326,-2.1065790980548664,-9.559605941246899,-0.5877777777777777,0.12,0.7111111111111111,-0.3536193628429144,-5.1044403185785425,1.4605225486283424
1588960046.2487612,0.8123450946643718,-2.1141372633390705,-9.621172547332185,-0.5877777777777777,0.12,0.7111111111111111,-0.4081863166953528,-4.974558950086059,1.0004168459552496
1588960046.2587612,0.8603923670668954,-2.0598692109777015,-9.599607632933106,-0.5877777777777777,0.12,0.7111111111111111,-0.10307675814751285,-3.7848547384219553,-0.31740458833619206
1588960046.2687612,0.9226115756681423,-2.0164958189867193,-9.524330545991145,-0.5828448015157311,0.12377227596509446,0.7166244375216339,0.04617765207411051,-3.125414002295458,-1.5358480898507954
1588960046.2787611,0.9548343269452192,-1.8456958268300796,-9.410463884553387,-0.5688888888888889,0.13444444444444445,0.7322222222222222,0.09312872604457181,-4.870443990993526,-3.775244351764194
1588960046.2887611,0.8112167858665278,-1.666157343816606,-9.44548950883342,-0.5688888888888889,0.13444444444444445,0.7322222222222222,0.517154715104438,-2.2000219059347317,-5.346809430208876
1588960046.2987611,0.6638080806331503,-1.6533131288641048,-9.54380808063315,-0.5688888888888889,0.13444444444444445,0.7322222222222222,0.7648989920856207,4.406376097535633,-6.246906551443465
1588960046.3087611,0.67,-1.7544983894582724,-9.548187701317717,-0.5688888888888889,0.13444444444444445,0.7322222222222222,0.6761731332357247,10.521844802342606,-6.897249267935578
1588960046.318761,0.67,-1.8164914305789064,-9.529474291736719,-0.571227935169618,0.12703746455546913,0.729493334894705,0.6688571177636696,11.179857469072294,-7.759857029936514
1588960046.328761,0.6198392885005461,-1.8673265274279474,-9.513582907964246,-0.5755555555555556,0.11333333333333333,0.7244444444444444,0.75,9.206879834161782,-8.147393174776543
1588960046.338761,0.5217166246851386,-2.0031335012594456,-9.561416876574308,-0.5755555555555556,0.11333333333333333,0.7244444444444444,0.6982289042821159,6.751419500419815,-7.80784529806885
1588960046.348761,0.4973697576805051,-2.0952604846389895,-9.656848788402526,-0.5755555555555556,0.11333333333333333,0.7244444444444444,0.4967439420126274,4.411292811541039,-6.105622376635745
1588960046.358761,0.562706921507994,-2.0338308441344823,-9.592302125139812,-0.5755555555555556,0.11333333333333333,0.7244444444444444,0.3125,4.375113083097572,-3.1296076222119877
1588960046.368761,0.7028017351365143,-1.8825287063026281,-9.53439652972697,-0.5761781633636699,0.11333333333333333,0.7251708202205778,0.3008261035978566,5.595097601428936,-1.0457068129624905
1588960046.378761,0.7384801513064573,-1.7803194704273997,-9.48,-0.5822222222222222,0.11333333333333333,0.7322222222222222,0.1875,7.6285089838208995,1.5205104023189357
1588960046.388761,0.7801269261280319,-1.753389744945792,-9.516821798600928,-0.5822222222222222,0.11333333333333333,0.7322222222222222,0.1875,8.7936939589894,2.4380288588667995
1588960046.398761,0.8987524018665934,-1.7525822124622563,-9.554748558880044,-0.5822222222222222,0.11333333333333333,0.7322222222222222,0.26094050233324184,10.117202511666209,2.638539665111172
1588960046.408761,1.004149809733627,-1.7015101141598237,-9.480190266372922,-0.5822222222222222,0.11333333333333333,0.7322222222222222,0.4103745243340677,10.386816543160425,2.067256659323052
1588960046.418761,1.0341510972504364,-1.6835093416497382,-9.43818846384939,-0.5822222222222222,0.11333333333333333,0.7322222222222222,0.48537774312609083,9.749289183428228,1.0172115962347286
1588960046.428761,1.0631774421291345,-1.6731774421291343,-9.444298489581104,-0.5877777777777777,0.12777777777777774,0.7244444444444444,0.7202114800393651,5.539159107440845,-2.1670392794488897
1588960046.438761,1.08,-1.69,-9.525883319025045,-0.5877777777777777,0.12777777777777774,0.7244444444444444,0.5563715426822441,2.247517823149565,-4.6140098353924826
1588960046.448761,1.08,-1.6568006307446521,-9.58,-0.5877777777777777,0.12777777777777774,0.7244444444444444,0.546110235076872,-0.0533228209224641,-7.642484231383696
1588960046.458761,1.0908852211281908,-1.499311704564237,-9.547344336615428,-0.5877777777777777,0.12777777777777774,0.7244444444444444,0.5229510519232131,-1.9524568487166771,-9.827867110575902
1588960046.468761,1.11539363553493,-1.1148408883732492,-9.427755448744511,-0.584962777271346,0.12163595849101771,0.7262358084030828,0.23560511104665616,-6.155412229634541,-12.969011560454131
1588960046.478761,1.1174936944112572,-0.7284096641444312,-9.335903358555688,-0.5755555555555556,0.10111111111111112,0.7322222222222222,0.23719799548652595,-13.387171445639188,-17.728295499800875
1588960046.488761,1.2200431495110393,-0.7601725980441576,-9.41330456699264,-0.5755555555555556,0.10111111111111112,0.7322222222222222,0.3744606311120072,-26.120257838491785,-26.17790351849985
1588960046.498761,1.2263987235982374,-0.84,-9.4,-0.5755555555555556,0.10111111111111112,0.7322222222222222,0.125,-33.76651914602644,-33.211172314237956
1588960046.508761,1.1675925761161627,-0.7983862127871594,-9.348783031122657,-0.5755555555555556,0.10111111111111112,0.7322222222222222,0.1850198854031354,-30.97139304589213,-39.60549050661067
1588960046.518761,1.09943120132169,-0.7246919990559357,-9.24440759971678,-0.5755555555555556,0.10388626648834344,0.7322222222222222,0.4135074935095586,-21.000877684682557,-43.209124970497996
1588960046.528761,0.98,-0.81,-9.27,-0.5755555555555556,0.12,0.7322222222222222,1.0,-4.3125,-45.875
1588960046.538761,0.9364882513329049,-0.8651148816449871,-9.351221930845243,-0.5755555555555556,0.12,0.7322222222222222,1.5620267536166443,6.275358842326462,-46.65458549695212
1588960046.548761,0.83,-0.9978084916660951,-9.547808491666096,-0.5755555555555556,0.12,0.7322222222222222,2.9580453906303585,32.37240851567323,-48.60587360244187
1588960046.558761,0.8278253360130636,-0.9269520160783821,-9.474777352091445,-0.5755555555555556,0.12,0.7322222222222222,3.5679582495917597,36.66555905351087,-50.1169745477955
1588960046.5687609,0.8212396369802788,-0.8874378218816732,-9.428677458861952,-0.5755555555555556,0.12,0.7322222222222222,3.7737613443662856,34.89565243844994,-51.22831125957794
1588960046.5787609,0.8622309715600854,-0.8484818346210751,-9.33357093539372,-0.5755555555555556,0.08888888888888889,0.7322222222222222,3.489397706723656,21.332677132993588,-54.73659173105376
1588960046.5887609,0.9932382048331416,-0.8829574223245109,-9.388731875719218,-0.5755555555555556,0.08888888888888889,0.7322222222222222,3.4463032220943615,11.507134637514383,-56.460371116225545
1588960046.5987608,1.1233666675651635,-1.028559260357422,-9.452211110811612,-0.5755555555555556,0.08888888888888889,0.7322222222222222,3.10636573762096,-1.524074099032319,-59.54689816437101
1588960046.6087608,1.1870254998253436,-1.0594334970308423,-9.412152998952061,-0.5755555555555556,0.08888888888888889,0.7322222222222222,2.8935906260916022,-1.8877499126718311,-60.861543756549615
1588960046.6187608,1.18,-0.9510167289264252,-9.377869092090304,-0.5808016169490914,0.0866155956183567,0.7355447277714615,2.986681825564398,3.002091115803151,-61.15450909533864
1588960046.6287608,1.1792819053227337,-1.0098563810645467,-9.419712762129093,-0.6088888888888889,0.07444444444444444,0.7533333333333333,3.2553857100794974,10.487202293322865,-61.311602381653415
1588960046.6387608,1.1272221569134553,-0.9749994122210989,-9.416667058519268,-0.6088888888888889,0.07444444444444444,0.7533333333333333,3.6423615192909033,19.177106599581503,-61.37153063503632
1588960046.6487608,1.1389314540416817,-0.912704493434526,-9.43295506565474,-0.6088888888888889,0.07444444444444444,0.7533333333333333,3.755112335863149,21.25981056499217,-62.093174015178896
1588960046.6587608,1.1991349128646955,-0.9245674564323477,-9.355432543567652,-0.6088888888888889,0.07444444444444444,0.7533333333333333,3.923226698648913,18.924095604072843,-63.644245643234775
1588960046.6687608,1.2361012871406232,-0.9438133044628894,-9.34,-0.6088888888888889,0.07241068206423673,0.7533333333333333,3.875,15.166335859497174,-65.29236587272946
1588960046.6787608,1.3310583573655952,-1.0005291786827977,-9.361058357365595,-0.6088888888888889,0.04777777777777778,0.7533333333333333,3.8914518416918713,10.631444749243864,-66.92444051722117
1588960046.6887608,1.3881693670489548,-1.03366126590209,-9.440136962461496,-0.6088888888888889,0.04777777777777778,0.7533333333333333,3.9489414559440315,9.398738927272412,-68.23497785454482
1588960046.6987607,1.3808699813786742,-1.0482600372426516,-9.520430204834582,-0.6088888888888889,0.04777777777777778,0.7533333333333333,3.994562616383286,9.991814012982719,-69.42112802596544
1588960046.7087607,1.38716880050849,-1.025753200762735,-9.47867520203396,-0.6088888888888889,0.04777777777777778,0.7533333333333333,4.035389993643875,12.76428993008263,-70.49943248887678
1588960046.7187607,1.3744738036865523,-1.0067107055298283,-9.42789521474621,-0.6088888888888889,0.04777777777777778,0.7533333333333333,4.194077453918097,14.509851993099065,-70.77713554435667
1588960046.7287607,1.3599322159712457,-0.910406704172527,-9.34,-0.6177777777777778,0.027777777777777776,0.7388888888888889,4.189194600718863,16.94343110251602,-70.93411079856227
1588960046.7387607,1.3517389435849352,-0.9595663384903891,-9.34,-0.6177777777777778,0.027777777777777776,0.7388888888888889,4.394026410376622,17.660342436318174,-70.52444717924676
1588960046.7487607,1.3840992062831756,-0.9,-9.408825066143068,-0.6177777777777778,0.027777777777777776,0.7388888888888889,4.49265666339418,17.426729911642845,-69.5479766044894
1588960046.7587607,1.4678498094746826,-0.9,-9.401845849210444,-0.6177777777777778,0.027777777777777776,0.7388888888888889,4.449036557565269,16.248987054262276,-68.71919459374013
1588960046.7687607,1.4799705625182162,-0.8599411250364325,-9.310088312445352,-0.6178202985847987,0.02769927782635448,0.7389935554907867,4.250183984261148,15.687683984261149,-67.62297617312737
1588960046.7787607,1.4679994826694258,-0.8460015519917227,-9.34,-0.6322222222222222,0.0011111111111111113,0.7744444444444445,4.287493533367822,15.512438566994309,-66.77495796689084
1588960046.7887607,1.498850080946351,-0.8911909532434642,-9.362956866013754,-0.6322222222222222,0.0011111111111111113,0.7744444444444445,4.198536954814304,14.109984852613525,-65.8601130844567
1588960046.7987607,1.6467568563963646,-0.9718673762161989,-9.450356324234216,-0.6322222222222222,0.0011111111111111113,0.7744444444444445,4.240555925112604,12.387207070383253,-64.85165779729752
1588960046.8087606,1.7476593680995522,-1.0723406319004478,-9.425318736199104,-0.6322222222222222,0.0011111111111111113,0.7744444444444445,4.1323144746889,10.414902645644592,-63.563153930288706
1588960046.8187606,1.7303479373465134,-1.0896520626534867,-9.390695874693026,-0.6322222222222222,0.0011111111111111113,0.7744444444444445,4.1864126957921455,11.172277741090038,-62.64348417153352
1588960046.8287606,1.7202700844627774,-1.0302700844627775,-9.338216067570222,-0.65,-0.03,0.7533333333333333,4.398987183264585,13.125,-61.48041028285209
1588960046.8387606,1.7608349209906982,-1.07,-9.373339683962792,-0.65,-0.03,0.7533333333333333,4.247390871904068,13.072817438081362,-60.3800991818895
1588960046.8487606,1.7933569148477266,-1.0766784574238635,-9.438312699508238,-0.65,-0.03,0.7533333333333333,4.1875,11.69760347467863,-58.77031748770598
1588960046.8587606,1.8712157110040089,-1.1182248547362732,-9.379252285933067,-0.65,-0.03,0.7533333333333333,4.178153574163326,10.793807148326652,-57.17697682536823
1588960046.8687606,2.0121045170121232,-1.2231567755181854,-9.370631355103637,-0.6503039857906401,-0.030935340894277148,0.7536607026463303,4.057238707469691,10.582229846988659,-55.47237821421588
1588960046.8787606,2.1151786746145187,-1.3723016331620086,-9.399424591709499,-0.6644444444444444,-0.07444444444444444,0.7688888888888888,3.8125,11.532366716340745,-54.11917026550287
1588960046.8887606,2.197743908718308,-1.4009756348732312,-9.408048730253538,-0.6644444444444444,-0.07444444444444444,0.7688888888888888,3.8548017115317283,12.288109128169218,-52.760290301320204
1588960046.8987606,2.1969794344473006,-1.3813415809768639,-9.4630205655527,-0.6644444444444444,-0.07444444444444444,0.7688888888888888,3.9945473168380463,13.040689267352185,-51.888425851542415
1588960046.9087605,2.2643685732647816,-1.49084893155527,-9.39563142673522,-0.6644444444444444,-0.07444444444444444,0.7688888888888888,3.9418995521368894,12.830098208547557,-51.414595969232
1588960046.9187605,2.3307502524338433,-1.558874621349235,-9.386998990264628,-0.665361419641364,-0.07444444444444444,0.7697225027042702,4.115621844576959,11.344520994875117,-50.443731067461755
1588960046.9287605,2.346731886681019,-1.5349021699784717,-9.323072453275925,-0.6848945281656897,-0.07444444444444444,0.787479874090021,3.915851416487264,10.695267103583609,-49.245108498923585
1588960046.9387605,2.408216604939297,-1.5708916975303517,-9.454458487651758,-0.6888888888888889,-0.07444444444444444,0.7911111111111111,3.9319268904353026,9.9375,-46.96337982262377
1588960046.9487605,2.394284599159622,-1.577857700420189,-9.489288502100944,-0.6888888888888889,-0.07444444444444444,0.7911111111111111,3.8883893723738185,9.9375,-45.70079179884074
1588960046.9587605,2.351636429545494,-1.4924546443182407,-9.45263606704528,-0.6888888888888889,-0.07444444444444444,0.7911111111111111,3.6772723153406637,9.496020049714316,-42.6971494105056
1588960046.9687605,2.3661167595933095,-1.5141751393899638,-9.387474581830109,-0.6888888888888889,-0.07444444444444444,0.7911111111111111,3.586770252541817,8.90775664152181,-40.5703509347327
1588960046.9787605,2.5336710746039626,-1.595506611905944,-9.366328925396036,-0.72,-0.06,0.9111111111111112,3.1875,9.0,-33.125
1588960046.9887605,2.560569221246647,-1.6292480685908164,-9.368496137181632,-0.72,-0.06,0.9111111111111112,3.1544711836042274,9.008257204098943,-32.74516861144861
1588960046.9987605,2.6179855659374223,-1.679833940408588,-9.478909753173005,-0.72,-0.06,0.9111111111111112,2.908619148888034,8.84300553154906,-29.741697020429402
1588960047.0087605,2.503933456990494,-1.5824205889172271,-9.37181544168792,-0.72,-0.06,0.9111111111111112,2.6136534894504986,6.6307674472524925,-24.647881405054488
1588960047.0187604,2.594235036931536,-1.6379907919578682,-9.4134930939684,-0.72,-0.06,0.9111111111111112,2.3531681626974925,5.328340813487463,-22.303513464277433
1588960047.0287604,2.6533738312007875,-1.714538939468504,-9.391043614665355,-0.6905662866360455,-0.03749186625109362,1.0461599136045494,2.201304518331693,4.32554518331693,-18.69674850824311
1588960047.0387604,2.693556523733089,-1.7550315294657188,-9.352886952533822,-0.6822222222222222,-0.031111111111111114,1.0844444444444443,1.9798641366659022,3.7432677424902545,-14.013403605824353
1588960047.0487604,2.629438202247191,-1.506573033707865,-9.481123595505618,-0.6822222222222222,-0.031111111111111114,1.0844444444444443,1.779494382022472,1.1885533707865168,-11.659058988764045
1588960047.0587604,2.643087005699838,-1.582395706269822,-9.37470003770321,-0.6822222222222222,-0.031111111111111114,1.0844444444444443,1.561059792854133,-0.12644020714586707,-8.616929849852514
1588960047.0687604,2.364018940318038,-1.2754208343498414,-9.16074785424383,-0.6822222222222222,-0.031111111111111114,1.0844444444444443,1.5029206125662578,-0.18457938743374216,-5.768110015746634
1588960047.0787604,2.196762162954279,-1.0556828839390386,-9.222970398593201,-0.5224981275237723,-0.10894620294385828,1.1687657939299205,1.1351480070339977,-3.4255614375732706,-3.2078555466002343
1588960047.0887604,2.7396554093144343,-1.4420295776684986,-9.485929997107318,-0.4633333333333333,-0.13777777777777778,1.2,0.8771197931732716,-7.881325480908302,0.4523046536013884
1588960047.0987604,2.8675821756749995,-1.6574979570735286,-9.614498774244117,-0.4633333333333333,-0.13777777777777778,1.2,1.0911437052849258,-1.6261038056801693,3.050495722362123
1588960047.1087604,2.855418928487137,-1.7869034694359216,-9.485482652820393,-0.4633333333333333,-0.13777777777777778,1.2,1.7641167099362756,10.816999055935804,8.050831956573047
1588960047.1187603,2.48263196186173,-1.3078294499435201,-9.24039497616358,-0.4633333333333333,-0.13777777777777778,1.2,1.6689968601022382,12.725190739216174,10.384043958568666
1588960047.1287603,2.4860346680037244,-1.3928858964257576,-9.095349545161522,-0.34444444444444444,-0.3655555555555556,0.9522222222222222,0.8818337690709834,1.8808376907098345,11.376730266456558
1588960047.1387603,2.7714429482128784,-1.7534016187952153,-9.373247081154645,-0.34444444444444444,-0.3655555555555556,0.9522222222222222,0.27158580151851586,-4.221641984814842,12.080862536709404
1588960047.1487603,2.79,-1.77,-9.56,-0.34444444444444444,-0.3655555555555556,0.9522222222222222,-0.125,-5.875,15.25
1588960047.1587603,2.7845535838714173,-1.7972320806429136,-9.54366075161425,-0.34444444444444444,-0.3655555555555556,0.9522222222222222,-0.2271203024109258,-6.147320806429136,16.50948372973475
1588960047.1687603,2.56878900283657,-1.560048003491163,-9.416271001527384,-0.34444444444444444,-0.3655555555555556,0.9522222222222222,-0.5663593715906612,-4.496440650229108,20.253409338861008
1588960047.1787603,2.5976832101372755,-1.6035776135163675,-9.303685322069693,-0.44898110993781537,-0.40583573858969846,0.7901424381086473,-0.6789466737064414,-4.008553326293558,23.46444033790919
1588960047.1887603,2.7039167750325097,-1.6951334200260078,-9.430875162548764,-0.4655555555555556,-0.4122222222222222,0.7644444444444445,-1.274479843953186,-2.9434362808842653,26.751201235370612
1588960047.1987603,2.625182752712736,-1.6057586141252618,-9.468272415762423,-0.4655555555555556,-0.4122222222222222,0.7644444444444445,-1.3125,-2.816099133828289,28.822327717494765
1588960047.2087603,2.6292259389808352,-1.7383890847125283,-9.442322183057493,-0.4655555555555556,-0.4122222222222222,0.7644444444444445,-1.716134830411541,-4.657687796167044,30.609701440276382
1588960047.2187603,2.590595148225981,-1.7421190296451963,-9.41635708893559,-0.4655555555555556,-0.4122222222222222,0.7644444444444445,-2.0947924530226674,-6.043901617938098,32.37545013567829
1588960047.2287602,2.6450368957276424,-2.032059033164228,-9.421985241708942,-0.5522222222222222,-0.36777777777777776,0.6488888888888888,-2.393611641021341,-6.913606871829273,36.44093670076726
1588960047.2387602,2.6010733302586893,-1.961717328413903,-9.439570667896524,-0.5522222222222222,-0.36777777777777776,0.6488888888888888,-2.558475011529915,-5.594699907760681,39.79315856777494
1588960047.2487602,2.4535398969170568,-1.7647198625560752,-9.44,-0.5522222222222222,-0.36777777777777776,0.6488888888888888,-2.9286502577073588,-5.928650257707359,42.74317701870765
1588960047.2587602,2.4735575411281974,-1.8228201096751928,-9.44,-0.5522222222222222,-0.36777777777777776,0.6488888888888888,-3.2319692641024655,-8.195097691452236,44.72655021666603
1588960047.2687602,2.515772037434133,-1.9933087318605696,-9.460441164248076,-0.5522222222222222,-0.36777777777777776,0.6488888888888888,-3.4402572765504744,-8.045956340697153,46.91084459515617
1588960047.2787602,2.3729260248154547,-1.9284949740851265,-9.371788126276112,-0.5697110098947699,-0.3246023332111757,0.630307051986807,-3.6239840191613006,-7.3739840191613,50.25229454609706
1588960047.2887602,2.3605820817141057,-1.9354120365507825,-9.369659909673354,-0.5877777777777777,-0.28,0.6111111111111112,-4.0682635752547,-9.569776021426321,54.15669966390085
1588960047.2987602,2.4125665422630522,-1.8119771972275767,-9.411283271131525,-0.5877777777777777,-0.28,0.6111111111111112,-4.491979555427962,-13.151081183611533,57.833234220563504
1588960047.3087602,2.4434746525674815,-1.9606783323239103,-9.543898610269926,-0.5877777777777777,-0.28,0.6111111111111112,-4.583686631418703,-13.584746525674813,58.69067968276833
1588960047.3187602,2.413773244076081,-1.9475464881521622,-9.482876421209223,-0.5877777777777777,-0.28,0.6111111111111112,-4.552770693868877,-12.449872489639784,59.857022367442354
1588960047.3287601,2.366589967312691,-1.9671652124675056,-9.410115049030964,-0.5937377923054705,-0.22635986925076573,0.6170711256388038,-4.458093647852161,-9.907558618382106,61.48515880369598
1588960047.3387601,2.204508770759688,-1.8642269725872074,-9.41028179817248,-0.5966666666666667,-0.2,0.62,-4.498238761421997,-9.246477522843994,63.51846903554992
1588960047.3487601,2.15,-1.96,-9.54,-0.5966666666666667,-0.2,0.62,-4.9375,-10.4375,64.75
1588960047.35876,2.058323970372491,-1.7712552331198341,-9.507643754249115,-0.5966666666666667,-0.2,0.62,-4.9712044226571726,-11.482337102372348,65.52520172111497
1588960047.36876,1.9234086793995677,-1.400612113778401,-9.423408679399568,-0.5966666666666667,-0.2,0.62,-5.10610872612581,-14.497174522516207,66.32897830150108
1588960047.37876,1.9265293072824157,-1.3020390763765541,-9.364490230905862,-0.6026982435366094,-0.15519400039471087,0.6148300769686205,-5.0905639431616345,-17.482104795737122,66.34056394316164
1588960047.38876,1.9259050618147888,-1.3340949381852112,-9.36,-0.6044444444444445,-0.14222222222222222,0.6133333333333333,-4.886313272684861,-15.628619226731981,66.40059336365756
1588960047.39876,1.8925984090676315,-1.3217322727117544,-9.506141818305965,-0.6044444444444445,-0.14222222222222222,0.6133333333333333,-4.584153408896931,-10.748521303472057,66.2662400566727
1588960047.40876,1.8669838210384908,-1.42740883515371,-9.450951463115471,-0.6044444444444445,-0.14222222222222222,0.6133333333333333,-4.514549627163523,-8.025431731012597,66.25
1588960047.41876,1.8210242412426074,-1.464871969844674,-9.395896211087281,-0.6044444444444445,-0.14222222222222222,0.6133333333333333,-4.530449811529213,-6.916652450120232,66.03685131929551
1588960047.42876,1.7641529595847805,-1.4343441590657557,-9.348114719688585,-0.6114875735178754,-0.11581048819685617,0.6168548978700488,-4.6615440025951225,-7.0199810136243945,65.54012899286342
1588960047.43876,1.7299276996934467,-1.38,-9.335036150153277,-0.6222222222222222,-0.07555555555555556,0.6222222222222222,-4.8754518769159585,-9.386296922898953,64.62138498467233
1588960047.44876,1.7317301564310545,-1.5148967989571263,-9.457301564310544,-0.6222222222222222,-0.07555555555555556,0.6222222222222222,-4.7908730446118195,-11.817261732329085,63.75843261152955
1588960047.45876,1.7108907114247567,-1.6041781422849515,-9.505068853709709,-0.6222222222222222,-0.07555555555555556,0.6222222222222222,-4.6875,-11.782541007057029,63.24529372496662
1588960047.46876,1.696077896077896,-1.6486231686231687,-9.461766311766311,-0.6222222222222222,-0.07555555555555556,0.6222222222222222,-4.611526299026299,-10.210881335881336,62.872565747565744
1588960047.47876,1.6260034249070903,-1.621859833855571,-9.39185983385557,-0.6087149108957387,-0.05206457933558423,0.625745868655218,-4.595534185309335,-9.13662396159732,62.71696581469067
1588960047.48876,1.5494672655148674,-1.585799101727699,-9.392663672425662,-0.5966666666666667,-0.031111111111111114,0.6288888888888889,-4.690829590532079,-9.37205151952267,62.490011228403766
1588960047.49876,1.5628533444121313,-1.6076177814707104,-9.508560033236392,-0.5966666666666667,-0.031111111111111114,0.6288888888888889,-4.89283340257582,-10.636778147071043,61.93161092646448
1588960047.50876,1.5274121854642995,-1.5844473112785797,-9.51296487418572,-0.5966666666666667,-0.031111111111111114,0.6288888888888889,-4.831030463660748,-10.821765231830375,61.120448013794864
1588960047.51876,1.442394877601218,-1.5306149221098662,-9.446504899855542,-0.5966666666666667,-0.031111111111111114,0.6288888888888889,-4.8125,-10.503843263186663,60.60315562409714
1588960047.52876,1.3687918495105411,-1.51,-9.387033479608434,-0.6140656635399938,-0.025616691045849915,0.658192462570282,-4.8125,-10.271979623776353,60.231459247552706
1588960047.53876,1.36,-1.51,-9.411637435841433,-0.6177777777777778,-0.024444444444444446,0.6644444444444444,-4.960800480506716,-10.447733974008955,60.385233974008955
1588960047.54876,1.3899939772990502,-1.644972897845726,-9.502483437572387,-0.6177777777777778,-0.024444444444444446,0.6644444444444444,-4.906268820940468,-10.359403231410703,60.20317205235117
1588960047.55876,1.3811636627555341,-1.708836337244466,-9.52372122091851,-0.6177777777777778,-0.024444444444444446,0.6644444444444444,-4.875,-9.684622091851136,59.771818676666264
1588960047.56876,1.3398019801980199,-1.6898019801980197,-9.477722772277227,-0.6177777777777778,-0.024444444444444446,0.6644444444444444,-4.7995049504950495,-8.557549504950495,59.147277227722775
1588960047.57876,1.2742223946880524,-1.6471111973440262,-9.45,-0.6037901761546827,0.008617159391962132,0.6765246458462084,-4.714236245850041,-8.134027508299917,58.624653720950285
1588960047.58876,1.2102939877489103,-1.6597060122510896,-9.45848743207174,-0.5933333333333334,0.03333333333333333,0.6855555555555556,-4.714023225224187,-8.824057405380493,58.198790972982316
1588960047.59876,1.1652720376150776,-1.6810881504603106,-9.522007586234146,-0.5933333333333334,0.03333333333333333,0.6855555555555556,-4.631800940376941,-10.36714459283259,57.84545023509423
1588960047.6087599,1.1444762077076172,-1.6703491948615885,-9.54377781798444,-0.5933333333333334,0.03333333333333333,0.6855555555555556,-4.5,-11.513094807309571,57.78015876605753
1588960047.6187599,1.1058047652240035,-1.6558047652240035,-9.485804765224003,-0.5933333333333334,0.03333333333333333,0.6855555555555556,-4.5604880869399915,-11.844755956530005,57.87097617387998
1588960047.6287599,1.0605463610684562,-1.6105463610684563,-9.43568295133557,-0.5976563642070097,0.043060152799105196,0.6812325246818792,-4.594603689169463,-11.569329513355703,58.06079262166107
1588960047.6387599,1.0128476336771268,-1.666026625704045,-9.437152366322874,-0.6022222222222222,0.05333333333333334,0.6766666666666666,-4.596440457903592,-11.244619084192816,58.02317862628922
1588960047.6487598,0.9353573002435347,-1.6958483126522093,-9.521473037226023,-0.6022222222222222,0.05333333333333334,0.6766666666666666,-4.582310390815262,-11.44363765510843,58.32170648266265
1588960047.6587598,0.856554973539259,-1.6189199697591534,-9.488919969759154,-0.6022222222222222,0.05333333333333334,0.6766666666666666,-4.371624905497354,-12.1828440571336,59.1203440571336
1588960047.6687598,0.84,-1.6,-9.47,-0.6022222222222222,0.05333333333333334,0.6766666666666666,-4.43648868120043,-12.870954724801722,59.849784285201864
1588960047.6787598,0.8001007677543186,-1.5042418426103648,-9.422120921305183,-0.5977889741949243,0.05687993175517168,0.6828732139048838,-4.549874040307102,-14.072606765834934,60.32449616122841
1588960047.6887598,0.7599721871049305,-1.4724930467762325,-9.417506953223768,-0.5966666666666667,0.057777777777777775,0.6844444444444444,-4.5625,-15.29778761061947,60.891103034134005
1588960047.6987598,0.7656709776470895,-1.501341955294179,-9.490519399411902,-0.5966666666666667,0.057777777777777775,0.6844444444444444,-4.5625,-16.800323323531707,60.768669169117075
1588960047.7087598,0.6992138379491019,-1.4785394835329342,-9.502134870883234,-0.5966666666666667,0.057777777777777775,0.6844444444444444,-4.4150288290606285,-18.10814113959581,60.09761531624252
1588960047.7187598,0.6548300128473088,-1.5643874518225922,-9.47483001284731,-0.5966666666666667,0.057777777777777775,0.6844444444444444,-4.375,-19.122233993595522,59.81951568522176
1588960047.7287598,0.6307916013278211,-1.78575117609922,-9.492229395352627,-0.6181529302350841,0.05573146696173802,0.6875139106685041,-4.317447508298882,-19.59127624585056,59.77877624585056
1588960047.7387598,0.5876300901026752,-2.0771097296919745,-9.524605015017112,-0.6433333333333333,0.05333333333333334,0.6911111111111111,-4.182562687713906,-18.57972165956555,59.947374624572184
1588960047.7487597,0.5431954887218046,-2.1880075187969927,-9.615225563909775,-0.6433333333333333,0.05333333333333334,0.6911111111111111,-3.9149436090225564,-15.551926691729324,60.34257518796993
1588960047.7587597,0.5102396309601568,-2.221856221423906,-9.666287557152188,-0.6433333333333333,0.05333333333333334,0.6911111111111111,-3.75,-12.29417047681254,60.85890553559765
1588960047.7687597,0.42755590260523885,-2.2837034144956343,-9.625629658550437,-0.6433333333333333,0.05333333333333334,0.6911111111111111,-3.7773146340597714,-9.192134148505714,61.61296097465748
1588960047.7787597,0.3320540019286403,-2.3213693346190936,-9.596711668273867,-0.6728318868531019,0.0020990035358405823,0.6579899282117219,-3.841610414657666,-8.661824975891996,62.174662487946
1588960047.7887597,0.3047190614454995,-2.2858428156635013,-9.541685631327002,-0.7066666666666667,-0.05666666666666665,0.62,-3.875,-10.06530055716864,62.46348240210312
1588960047.7987597,0.2795233339871962,-2.305556110348271,-9.60142999803841,-0.7066666666666667,-0.05666666666666665,0.62,-3.843253472903329,-12.10814928580345,62.46726041870999
1588960047.8087597,0.2555751971716073,-2.3455751971716072,-9.673274408485177,-0.7066666666666667,-0.05666666666666665,0.62,-3.7776550176774544,-13.418139787870548,62.23562007070982
1588960047.8187597,0.26,-2.298811338772638,-9.603692472649902,-0.7066666666666667,-0.05666666666666665,0.62,-3.7180070867328987,-13.206120474459281,62.0610141734658
1588960047.8287597,0.23678195924878545,-2.240712783699514,-9.554643608150243,-0.8552621274744399,-0.2052621274744398,0.3408675545242872,-3.6004323471829456,-12.136071532158654,61.767819592487854
1588960047.8387597,0.16859085520745132,-2.2714091447925484,-9.578404064352243,-1.0266666666666666,-0.37666666666666665,0.01888888888888889,-3.442487298899238,-11.21243649449619,61.52875635055038
1588960047.8487597,0.10822055724654647,-2.371044251931632,-9.643191290095997,-1.0266666666666666,-0.37666666666666665,0.01888888888888889,-3.375,-11.095864551627253,61.685202528681806
1588960047.8587596,0.0702246489079914,-2.4565917836973363,-9.683632865210656,-1.0266666666666666,-0.37666666666666665,0.01888888888888889,-3.416198648108351,-12.137877017841971,61.83380135189165
1588960047.8687596,0.09979912418143104,-2.46,-9.64157205415612,-1.0266666666666666,-0.37666666666666665,0.01888888888888889,-3.401965067695151,-12.713209593829095,61.954639729219394
1588960047.8787596,0.15742501060907244,-2.3045916065485894,-9.569720813883366,-1.0317453723350134,0.33892296200339006,0.01584166548788084,-3.3464322806155495,-12.703593683693297,61.69111964800214
1588960047.8887596,0.17172538860103628,-2.2113730569948187,-9.546549222797928,-1.0377777777777777,1.1888888888888889,0.012222222222222223,-3.160211571675302,-11.624341537132988,59.95554835924007
1588960047.8987596,0.14635237501113985,-2.2290571250334192,-9.651885749933161,-1.0377777777777777,1.1888888888888889,0.012222222222222223,-3.0625,-9.9962792977453,57.12050507976116
1588960047.9087596,0.05119264150943398,-2.1682083018867924,-9.653432264150943,-1.0377777777777777,1.1888888888888889,0.012222222222222223,-2.931900943396226,-9.206152122641509,54.84885966981132
1588960047.9187596,-0.008905576132731238,-2.079373382718555,-9.577811152265461,-1.0377777777777777,1.1888888888888889,0.012222222222222223,-2.865236059668172,-8.990236059668172,52.939431224313765
1588960047.9287596,0.008182855732749314,-2.0513600049353773,-9.52,-0.8237561649375709,0.8146793204259505,0.4382959238580942,-2.8267142724945247,-9.099428575835159,51.33528563496715
1588960047.9387596,-0.02883760683760684,-2.068464957264957,-9.566140170940171,-0.6755555555555556,0.5555555555555556,0.7333333333333333,-2.7139529914529916,-8.87267094017094,50.08196581196581
1588960047.9487596,-0.04484838773296519,-2.1012128981362785,-9.61030322453407,-0.6755555555555556,0.5555555555555556,0.7333333333333333,-2.5909072699930973,-8.462116963317227,48.82385088995168
1588960047.9587595,-0.07597327358243,-2.1714766143846265,-9.637986636791215,-0.6755555555555556,0.5555555555555556,0.7333333333333333,-2.556208239972547,-8.109479400068633,47.62541760027453
1588960047.9687595,-0.1371147433954345,-2.2168458973581737,-9.629193461888217,-0.6755555555555556,0.5555555555555556,0.7333333333333333,-2.5608197122671204,-7.9375,46.42405769813696
1588960047.9787595,-0.16482480596789995,-2.2041240298395,-9.5596496119358,-0.5973526235149323,0.4399762221719874,0.7563341956982225,-2.4698449627006256,-8.163914738904378,44.75825578328686
1588960047.9887595,-0.09562814625447774,-2.124824125360981,-9.527010052233743,-0.5244444444444445,0.3322222222222222,0.7777777777777778,-2.442525130584355,-8.058888218213953,43.40656413230444
1588960047.9987595,-0.011014565935133037,-2.057004855311711,-9.538936880947757,-0.5244444444444445,0.3322222222222222,0.7777777777777778,-2.356280345698194,-7.107190716644008,41.851153136531366
1588960048.0087595,-0.031302328259659486,-2.0637674427532198,-9.61623255724678,-0.5244444444444445,0.3322222222222222,0.7777777777777778,-2.1977713103898346,-4.602713103898347,38.40920531104244
1588960048.0187595,-0.12000079323109467,-2.061817821258593,-9.581817821258593,-0.5244444444444445,0.3322222222222222,0.7777777777777778,-1.92613365943945,-3.181816829719725,34.88065342411423
1588960048.0287595,-0.22556199732855886,-2.075722567993861,-9.565240855997954,-0.509768064594563,0.28537070193221614,0.7896317768872974,-1.6875,-3.284762483303493,30.88266618353369
1588960048.0387595,-0.2103498320268757,-2.0372497200447928,-9.552416573348264,-0.4955555555555556,0.24,0.8011111111111111,-1.6185414333706607,-3.5689585666293393,28.023849384098543
1588960048.0487595,-0.26326314670069656,-2.0341184133567287,-9.594118413356728,-0.4955555555555556,0.24,0.8011111111111111,-1.5260690833200403,-3.114967166480566,25.272039666081778
1588960048.0587595,-0.5221622371974458,-1.9474743191741752,-9.600242295752253,-0.4955555555555556,0.24,0.8011111111111111,-1.334342898967719,-2.2944429721612276,22.716914641225614
1588960048.0687594,-0.6938500685843787,-1.982253941116832,-9.58,-0.4955555555555556,0.24,0.8011111111111111,-1.3565145219967,-2.1335096813311334,22.9586306979703
1588960048.0787594,-0.7986912539515278,-1.9808767123287672,-9.58,-0.4644472544198572,0.24,0.7957009717831636,-1.7798603793466807,-5.002463119072708,26.768743414120127
1588960048.0887594,-0.6318030897703548,-2.0170132776617953,-9.57516592901879,-0.4444444444444444,0.24,0.7922222222222223,-2.181277661795407,-8.564850730688935,33.0704509394572
1588960048.0987594,-0.36536252976978034,-2.095430007938608,-9.62463747023022,-0.4444444444444444,0.24,0.7922222222222223,-2.4432968377877744,-10.323671937020375,40.87468576342948
1588960048.1087594,-0.17553263516322531,-1.9665357432740087,-9.630031081107834,-0.4444444444444444,0.24,0.7922222222222223,-2.478154138538594,-9.871962415615782,44.89115920654089
1588960048.1187594,-0.1464399607372669,-1.8214771512705856,-9.532348565819609,-0.4444444444444444,0.24,0.7922222222222223,-2.2785268295343,-9.1766073181372,41.01265268840659
1588960048.1287594,-0.34,-1.7588704524373906,-9.524784087395652,-0.4354448223344441,0.24,0.7859616155370046,-2.040490054622282,-8.466569617644028,34.977783932804286
1588960048.1387594,-0.31251832451829054,-1.7553335827621979,-9.479629768201221,-0.4188888888888889,0.24,0.7744444444444445,-1.8773139487423682,-8.774537210251527,30.958325538681315
1588960048.1487594,-0.2600076222569904,-1.8249885666145145,-9.537479038793276,-0.4188888888888889,0.24,0.7744444444444445,-1.656273819553095,-8.56269055642476,28.25076222569904
1588960048.1587594,-0.28010347057555507,-1.8468753212728208,-9.589167095030426,-0.4188888888888889,0.24,0.7744444444444445,-1.5143235859850432,-6.824883512693385,23.274767025386772
1588960048.1687593,-0.408343241765751,-1.8133340166735001,-9.54166700833675,-0.4188888888888889,0.24,0.7744444444444445,-1.4062435936859368,-4.97911114527812,19.43735906109061
1588960048.1787593,-0.6645224405377456,-1.8263693898655637,-9.531846949327818,-0.41001406411582214,0.23677279099161208,0.7772682523267839,-1.1138521199586349,-3.6476913133402276,15.387334539813857
1588960048.1887593,-0.5465922506432571,-1.8663966247918875,-9.550614499772967,-0.3944444444444444,0.2311111111111111,0.7822222222222223,-0.9540851558952625,-3.977478904949296,14.707925779476312
1588960048.1987593,-0.28063162950806547,-1.9780242564944162,-9.630672056998758,-0.3944444444444444,0.2311111111111111,0.7822222222222223,-0.9624494656366329,-4.341649821878877,14.582996437577552
1588960048.2087593,-0.23026122381568442,-2.0353918357235266,-9.609216328552947,-0.3944444444444444,0.2311111111111111,0.7822222222222223,-0.6826020534559167,-3.3825765917035975,10.985765504142696
1588960048.2187593,-0.28019057088408317,-2.0449761786394896,-9.58,-0.3944444444444444,0.2311111111111111,0.7822222222222223,-0.28020781547767004,-0.8044602908277405,4.105942911591681
1588960048.2287593,-0.16401488774162562,-2.0615151878977067,-9.58,-0.38667507103693916,0.23768519630207705,0.774452848814717,0.1392048865410013,1.7490545083443392,-4.547829871533198
1588960048.2387593,-0.013846294267981014,-2.101538274309359,-9.58538456857734,-0.38,0.2433333333333333,0.7677777777777778,0.37980710721674577,2.9711497505172204,-14.653793203115493
1588960048.2487593,0.08992735699221495,-2.1949394641601794,-9.609983857109382,-0.38,0.2433333333333333,0.7677777777777778,0.9370964277345275,4.093169864868384,-26.80690043481657
1588960048.2587593,0.28855113400348925,-2.411588435656725,-9.724392290437818,-0.38,0.2433333333333333,0.7677777777777778,1.643983135332724,3.839079504860015,-42.540282047021684
1588960048.2687593,-1.1468584489598646,0.49049096804075987,-9.454091870229776,-0.38,0.2433333333333333,0.7677777777777778,1.7294603479871922,-4.4230257063455305,-59.340111917755806
1588960048.2787592,-3.074202204435113,6.312275948038315,-7.146040545860123,-0.37871626645672046,0.24868222309699803,0.7639265771479392,17.287597592179505,-22.218405557013515,-108.7555807964834
1588960048.2887592,1.447326429006575,4.2140877675776744,-0.5793611747158792,-0.37333333333333335,0.27111111111111114,0.7477777777777778,78.03335136440981,-29.312979223998486,-261.4828109572926
1588960048.2987592,-2.6674102472533243,-2.182697729134717,-0.156433207991093,-0.37333333333333335,0.27111111111111114,0.7477777777777778,30.288748870869483,30.711953553347485,-295.7906395080142
1588960048.3087592,0.8088707713326797,4.1960604710564615,-12.27617184947578,-0.37333333333333335,0.27111111111111114,0.7477777777777778,20.53127134753037,39.6294718435356,-237.45243955864444
1588960048.3187592,0.18715816164817745,3.949394611727417,-13.59391970417327,-0.37333333333333335,0.27111111111111114,0.7477777777777778,-51.049191759112524,88.62369519281563,-191.07561674590596
1588960048.3287592,0.9834413426001256,3.5916303665651657,-10.894948513516654,-0.38581715906185354,0.259875667955443,0.7477777777777778,-71.19026318542107,144.0136183491783,-133.64287934961996
1588960048.3387592,-0.3251318287281164,1.2181947750625244,-10.029513062343689,-0.4066666666666667,0.2411111111111111,0.7477777777777778,22.592248094133247,152.23677757856993,-54.99514305300268
1588960048.3487592,-0.38070165963899216,0.6330405251022995,-9.041400618989261,-0.4066666666666667,0.2411111111111111,0.7477777777777778,22.60652379369794,71.69564240907297,-28.686208275346363
1588960048.3587592,0.3806611158750795,-0.4814978838759648,-7.370030981162347,-0.4066666666666667,0.2411111111111111,0.7477777777777778,-6.281636400099583,-32.073085806755,-15.061531838676661
1588960048.3687592,1.4314600754828684,-1.2156182934951527,-7.672471693924369,-0.4066666666666667,0.2411111111111111,0.7477777777777778,-18.78020702286687,-106.95642159402057,-2.0684826648412633
1588960048.3787591,2.1848692014734343,-1.0492670287819192,-8.045220703003059,-0.44420345050050986,0.2199966702045743,0.738002573654381,-8.190420724854842,-129.16017551663856,9.320938299931322
1588960048.3887591,1.8950672161711313,-1.321868805809047,-8.922466391914435,-0.5133333333333333,0.1811111111111111,0.72,-2.3670548768521242,-87.25929435286037,13.672195442056717
1588960048.3987591,0.44818753249208376,-1.4741478803346093,-9.413408478661562,-0.5133333333333333,0.1811111111111111,0.72,-0.823884044614585,-4.935863580509476,14.557878739543456
1588960048.408759,-0.06967744964552326,-1.1916136907836048,-9.521612751772384,-0.5133333333333333,0.1811111111111111,0.72,1.1915318794309593,50.45964892717968,15.483869547866098
1588960048.418759,0.031927755685713724,-0.8606078473623381,-9.390323022977924,-0.5133333333333333,0.1811111111111111,0.72,1.1296891222159102,53.294698475974066,16.198658396834414
1588960048.428759,0.20353718615832064,-0.8394931048809925,-9.185955918722673,-0.5020459146996946,0.184604835926285,0.725106213191408,0.5424242724017174,37.97145376214313,16.411329214728053
1588960048.438759,0.4732212069484888,-2.6400321317401345,-9.845413194095793,-0.4666666666666667,0.1955555555555556,0.7411111111111112,-0.5136497138266894,15.46523872878803,15.664505723466212
1588960048.448759,2.0146548850286172,-20.227537704588812,-15.808992669946782,-0.4666666666666667,0.1955555555555556,0.7411111111111112,-0.6715834923185059,-5.908465960437795,12.505830153629883
1588960048.458759,-1.074963721094856,-1.4991835771590374,-7.910072557810288,-0.4666666666666667,0.1955555555555556,0.7411111111111112,14.450389334591788,9.160690847687587,-48.77160143345918
1588960048.468759,-0.3770963463161703,-0.01729169178825518,-9.403798384179428,-0.4666666666666667,0.1955555555555556,0.7411111111111112,9.704019956589896,42.84907452068009,-77.0390389485108
1588960048.478759,-0.00023694685085462464,-1.0985537344884102,-9.775602200889722,-0.46634145008975264,0.19490512240172744,0.7430624105725956,3.128023296651838,34.1399628307188,-63.28939504799813
1588960048.488759,0.5223163940132266,-2.9915135166492632,-9.476351664926325,-0.4655555555555556,0.19333333333333333,0.7477777777777778,2.1568011080171714,11.75523190045249,-43.826944831186914
1588960048.498759,0.6040614253927584,-4.748549490931158,-9.853862349133571,-0.4655555555555556,0.19333333333333333,0.7477777777777778,2.6413182270244757,0.07519195435237003,-31.879870499292025
1588960048.508759,0.3180350523626156,-4.663329974448483,-10.023145715622414,-0.4655555555555556,0.19333333333333333,0.7477777777777778,1.569591895490697,-0.23120299060711846,-28.65774912728974
1588960048.518759,0.3450405317769131,-2.0809419584954605,-9.627049286640727,-0.4655555555555556,0.19333333333333333,0.7477777777777778,2.3196741245136185,7.5566127594033725,-26.35273792153048
1588960048.528759,0.4713014827018122,-2.368665568369028,-9.62825370675453,-0.47497345780706574,0.19333333333333333,0.7418131063518213,1.3180601317957166,5.228583196046129,-17.96669069192751
1588960048.538759,0.5,-2.67,-9.7,-0.4988888888888889,0.19333333333333333,0.7266666666666667,0.0625,2.0,-11.375
1588960048.548759,0.5280597121531374,-2.45487554015928,-9.625174100924966,-0.4988888888888889,0.19333333333333333,0.7266666666666667,0.17941546730473912,-0.22139387879004335,-4.184698760758543
1588960048.558759,0.5314484964475789,-2.352896992895158,-9.60282725532863,-0.4988888888888889,0.19333333333333333,0.7266666666666667,0.25,-1.0890055187059224,-0.24978207010460635
1588960048.568759,0.5511698,-2.365849,-9.56,-0.4988888888888889,0.19333333333333333,0.7266666666666667,0.2132075,-0.46674499999999997,0.04410375
1588960048.578759,0.53,-2.2657758601999,-9.558556034950026,-0.49792624552223885,0.1904454032333832,0.7276293100333168,0.0437769659389025,0.0354256553129675,-0.018049563124688334
1588960048.588759,0.53,-2.3009046802611897,-9.55723744208952,-0.4922222222222222,0.17333333333333334,0.7333333333333333,-0.42053724510268853,-0.11369149673512567,-0.11934574836756283
1588960048.598759,0.5337315724815725,-2.3137315724815726,-9.633731572481572,-0.4922222222222222,0.17333333333333334,0.7333333333333333,-0.08674370393120392,0.0,-0.0625
1588960048.608759,0.5340162026676215,-2.311024304001432,-9.622048608002865,-0.4922222222222222,0.17333333333333334,0.7333333333333333,0.26229746665473097,0.0,-0.04380063333631725
1588960048.618759,0.5266158985744818,-2.292205299524827,-9.571178801900691,-0.4922222222222222,0.17333333333333334,0.7333333333333333,0.3685843898491482,-0.013783122030170356,-0.027566244060340712
1588960048.628759,0.5486531717221437,-2.3053873131114253,-9.546734141389281,-0.4938683456729356,0.17168720988261996,0.7345305140247612,0.08291161631698764,-0.07933535347320494,-0.09974696979019258
1588960048.638759,0.54,-2.3265421707873046,-9.576542170787304,-0.5044444444444445,0.16111111111111112,0.7422222222222222,-0.27161143257934417,-0.12021085393652463,0.0625
1588960048.648759,0.5391344181594421,-2.290865581840558,-9.552983727608368,-0.5044444444444445,0.16111111111111112,0.7422222222222222,-0.46754068097907836,0.051680226993026115,0.0625
1588960048.6587589,0.5309409857201461,-2.299059014279854,-9.675885214197807,-0.5044444444444445,0.16111111111111112,0.7422222222222222,-0.16028696450547947,-0.05073767849817351,0.0625
1588960048.6687589,0.521722368060181,-2.343444736120362,-9.574832895819457,-0.5044444444444445,0.16111111111111112,0.7422222222222222,0.375,-0.010764800376131332,0.040970399247737335
1588960048.6787589,0.5299390745602006,-2.359878149120401,-9.5501827763194,-0.5044444444444445,0.16111111111111112,0.7422222222222222,0.375,-0.06211921600125377,-0.061738432002507546
1588960048.6887589,0.5345047249259791,-2.279009449851958,-9.555766537240926,-0.4988888888888889,0.17888888888888888,0.7266666666666667,-0.18130906157473892,-0.09684546921263054,-0.020268203818945806
1588960048.6987588,0.5493773380848537,-2.3087546761697073,-9.607820683296987,-0.4988888888888889,0.17888888888888888,0.7266666666666667,-0.3672167260606706,-0.0038916369696647274,0.1191625445455029
1588960048.7087588,0.53,-2.3169627261524175,-9.653037273847582,-0.4988888888888889,0.17888888888888888,0.7266666666666667,-0.05247160257898591,0.20648296154739154,0.04799432051579718
1588960048.7187588,0.53,-2.3394358021824937,-9.630564197817508,-0.4988888888888889,0.17888888888888888,0.7266666666666667,0.18162293940097518,0.0660262363594149,0.0011754121198049722
1588960048.7287588,0.5103732507257052,-2.309626749274295,-9.511119752177116,-0.4981009151346225,0.17851563816318375,0.7274546404209331,0.3493390126077726,-0.0555015488930289,0.06483281703565703
1588960048.7387588,0.5194592955244574,-2.3005407044755426,-9.538377886573372,-0.4789192650039234,0.16942959336443156,0.7466362905516322,-0.27532656730644256,0.11486179108357522,0.12162059702785841
1588960048.7487588,0.5227132769996528,-2.31,-9.59492302349809,-0.4777777777777778,0.1688888888888889,0.7477777777777778,-0.30402100937608517,0.10804201875217039,0.09956302812825558
1588960048.7587588,0.5388968630628546,-2.31,-9.683932746845699,-0.4777777777777778,0.1688888888888889,0.7477777777777778,-0.2534473029285797,0.006894605857159383,-0.052158091214260904
1588960048.7687588,0.5356217530673152,-2.304378246932685,-9.578108765336575,-0.4777777777777778,0.1688888888888889,0.7477777777777778,0.3613179783353598,0.11908989167679894,0.013682021664640212
1588960048.7787588,0.5201680114955234,-2.3198319885044763,-9.500840057477618,-0.4777777777777778,0.1688888888888889,0.7477777777777778,0.31302503592351055,-0.12237482038244718,0.06197496407648945
1588960048.7887588,0.5351903599108185,-2.329619280178363,-9.522975899777046,-0.5044444444444445,0.17888888888888888,0.7333333333333333,-0.157439749442616,0.078719874721308,0.0
1588960048.7987587,0.548541756904482,-2.3,-9.577498917146217,-0.5044444444444445,0.17888888888888888,0.7333333333333333,-0.2408859806530124,0.10677196130602479,0.009114019346987605
1588960048.8087587,0.5398323898674932,-2.299832389867493,-9.678659118939946,-0.5044444444444445,0.17888888888888888,0.7333333333333333,-0.18226218335916006,-0.0010475633281679898,0.06040487334366402
1588960048.8187587,0.5284589605225788,-2.297705197387106,-9.592294802612894,-0.5044444444444445,0.17888888888888888,0.7333333333333333,0.14426299346776483,-0.03360550979835274,-0.0625
1588960048.8287587,0.5225028401022437,-2.3274857994887816,-9.562514200511218,-0.5044444444444445,0.17888888888888888,0.7333333333333333,0.21871449872195398,0.07807174808293099,-0.0625
1588960048.8387587,0.5291856160761502,-2.3216287678476997,-9.5316287678477,-0.5105681884952112,0.18603325694811682,0.7139414771725718,-0.1518707033315706,0.01017979904812269,-0.0625
1588960048.8487587,0.5469237967630107,-2.32,-9.580771390289032,-0.5111111111111111,0.18666666666666668,0.7122222222222222,-0.3461605946532253,0.2115474595376337,-0.0625
1588960048.8587587,0.5316932021035364,-2.31,-9.658306797896463,-0.5111111111111111,0.18666666666666668,0.7122222222222222,-0.0403398948231775,-0.04133497370579438,-0.030752460558691568
1588960048.8687587,0.5371202270678711,-2.3114398864660646,-9.631281475941162,-0.5111111111111111,0.18666666666666668,0.7122222222222222,0.33900283834838807,0.04450141917419404,0.10700141917419403
1588960048.8787587,0.5210325451163148,-2.3194837274418423,-9.526711543256045,-0.5111111111111111,0.18666666666666668,0.7122222222222222,0.13790681395393437,-0.05604659302303282,0.006453406976967183
1588960048.8887587,0.5281008399892679,-2.344302519967804,-9.511899160010731,-0.48410831114688463,0.17586554668097606,0.7068216622293769,0.0743697500670753,0.03876049986584938,0.10126049986584938
1588960048.8987586,0.526906499978144,-2.3169064999781437,-9.555467500109279,-0.4777777777777778,0.17333333333333334,0.7055555555555556,-0.24033281243169996,0.08183437513660008,-0.00966718756830004
1588960048.9087586,0.5109046339639365,-2.3,-9.635476830180318,-0.4777777777777778,0.17333333333333334,0.7055555555555556,-0.17053811317619033,0.1592301886269839,-0.0625
1588960048.9187586,0.5234403808372374,-2.3017201904186186,-9.583119238325525,-0.4777777777777778,0.17333333333333334,0.7055555555555556,0.0645071406982016,-0.10349761976726612,-0.0625
1588960048.9287586,0.5392870636239988,-2.309643531811999,-9.551425872752002,-0.4777777777777778,0.17333333333333334,0.7055555555555556,0.3616324429499773,-0.004455852350007561,-0.0625
1588960048.9387586,0.5238604424655628,-2.3479534808218543,-9.52432563424702,-0.4922222222222222,0.17333333333333334,0.72,0.06104627568294606,-0.0625,-0.012790744863410789
1588960048.9487586,0.5012980883501409,-2.3335095582492955,-9.59298088350141,-0.4922222222222222,0.17333333333333334,0.72,-0.2037261043767614,-0.0543869478116193,-0.046273895623238595
1588960048.9587586,0.5084188991884826,-2.2979055040575873,-9.664188991884826,-0.4922222222222222,0.17333333333333334,0.72,-0.29273623985603203,-0.00988188007198397,0.04273623985603206
1588960048.9687586,0.5213163965367447,-2.3006581982683723,-9.598025405194882,-0.4922222222222222,0.17333333333333334,0.72,-0.10443130411336468,0.05427252164534588,0.0625
1588960048.9787586,0.5338820815482789,-2.3069410407741393,-9.579176877677583,-0.4922222222222222,0.17333333333333334,0.72,0.09190752419185716,-0.024263009676742858,0.0625
1588960048.9887586,0.54,-2.3189191877331123,-9.516484873601327,-0.503123451673804,0.17828843762950683,0.72,0.2989898466639038,0.04898984666390385,0.006755076668048074
1588960048.9987586,0.5306070458555541,-2.3387859082888918,-9.554856366844433,-0.5044444444444445,0.17888888888888888,0.72,-0.07388210979163776,0.05111789020836224,-0.00758807319442517
1588960049.0087585,0.5389223052675404,-2.3221553894649194,-9.621378442140323,-0.5044444444444445,0.17888888888888888,0.72,-0.22979322376638053,-0.10479322376638053,-0.11152881584425368
1588960049.0187585,0.5470281456953643,-2.3059437086092713,-9.63,-0.5044444444444445,0.17888888888888888,0.72,-0.16214817880794702,0.006777731788079472,-0.08107408940397351
1588960049.0287585,0.5254194744976817,-2.3,-9.572645440494592,-0.5044444444444445,0.17888888888888888,0.72,0.07983771251931993,0.0625,-0.011290571870170019
1588960049.0387585,0.5345557549242959,-2.314555754924296,-9.530888490151408,-0.48988868952014863,0.17161101142674096,0.7297038366161972,0.30694693655369854,0.017013265861575373,-0.09097346827684925
1588960049.0487585,0.5107747449169584,-2.3284505101660833,-9.520846428837418,-0.4844444444444445,0.1688888888888889,0.7333333333333333,0.10078922134505101,0.0576578442690102,-0.1153156885380204
1588960049.0587585,0.5185841960229389,-2.3128316079541222,-9.630178744321144,-0.4844444444444445,0.1688888888888889,0.7333333333333333,-0.1432561257168392,0.008848774856632158,-0.017697549713264316
1588960049.0687585,0.5577765085214188,-2.3033352372178717,-9.618888254260709,-0.4844444444444445,0.1688888888888889,0.7333333333333333,-0.22220635651773377,-0.11805158912943343,0.05555158912943344
1588960049.0787585,0.5423207738369415,-2.3265188392445877,-9.61116038691847,-0.4844444444444445,0.1688888888888889,0.7333333333333333,-0.029009672961768762,-0.06975241824044219,0.0072524182404421905
1588960049.0887585,0.5117389551035039,-2.3034779102070075,-9.539130522448247,-0.5044444444444445,0.17333333333333334,0.7333333333333333,0.30706576530155033,-0.005434234698449682,0.0625
1588960049.0987585,0.530316572068111,-2.3403165720681107,-9.532849148612998,-0.5044444444444445,0.17333333333333334,0.7333333333333333,0.23614997202014548,-0.0644785754256935,0.0625
1588960049.1087584,0.54,-2.3437641874749633,-9.622494325010013,-0.5044444444444445,0.17333333333333334,0.7333333333333333,-0.1875,-0.1016157030311123,0.0469104686874082
1588960049.1187584,0.5392916011494876,-2.300354199425256,-9.637520604023207,-0.5044444444444445,0.17333333333333334,0.7333333333333333,-0.1875,0.058072507184297566,-0.058072507184297566
1588960049.1287584,0.5279206202895408,-2.3060396898552296,-9.597722171013393,-0.5044444444444445,0.17333333333333334,0.7333333333333333,-0.1875,-0.012996123190370329,0.012996123190370329
1588960049.1387584,0.52,-2.325892857142857,-9.548809523809524,-0.4903174603174603,0.18039682539682542,0.7221494708994709,0.04427083333333334,-0.0625,0.029389880952380952
1588960049.1487584,0.52,-2.320488332855824,-9.539755833572087,-0.4777777777777778,0.18666666666666668,0.7122222222222222,0.18902604017445007,-0.18444791965109986,0.06097395982554993
1588960049.1587584,0.52,-2.3450137696419895,-9.615041308925969,-0.4777777777777778,0.18666666666666668,0.7122222222222222,0.031163939737566815,0.020948080349910886,0.010387979912522279
1588960049.1687584,0.5265331061060867,-2.33040068168174,-9.603867575575654,-0.4777777777777778,0.18666666666666668,0.7122222222222222,-0.12249573948912601,0.021668086836958,0.0
1588960049.1787584,0.53,-2.3051259048443975,-9.5825629524222,-0.4777777777777778,0.18666666666666668,0.7122222222222222,-0.0015738105549712167,-0.046481547361257196,0.046481547361257196
1588960049.1887584,0.5229849937473948,-2.3,-9.558954981242184,-0.49258723542216665,0.18666666666666668,0.7176783381964708,0.0625,-0.10634378907878282,-0.025187578157565643
1588960049.1987584,0.5398837775767277,-2.349651332730183,-9.580581112116361,-0.4988888888888889,0.18666666666666668,0.72,0.12282082956364396,0.0625,-0.0007263901454520147
1588960049.2087584,0.5325862968891364,-2.327758890667409,-9.617068515554319,-0.4988888888888889,0.18666666666666668,0.72,-0.01400693332869371,0.0625,-0.0463356444428979
1588960049.2187583,0.55,-2.308951870862159,-9.617379677155396,-0.4988888888888889,0.18666666666666668,0.72,-0.06577540355575393,-0.059224596444246075,-0.052673789332738225
1588960049.2287583,0.55,-2.2933515584318975,-9.578378896079744,-0.4988888888888889,0.18666666666666668,0.72,-0.11452637990031987,-0.010473620099680128,0.0935791397009596
1588960049.2387583,0.5305076622034607,-2.3020306488138425,-9.539492337796538,-0.4988888888888889,0.17333333333333334,0.72,0.07201866631488688,-0.17798133368511312,0.12182711122837105
1588960049.2487583,0.5397293494272586,-2.338917397709034,-9.53027065057274,-0.4988888888888889,0.17333333333333334,0.72,0.24492530176109756,-0.005074698238902442,0.06419156607963414
1588960049.2587583,0.5110219119643203,-2.3394890440178395,-9.61948904401784,-0.4988888888888889,0.17333333333333334,0.72,0.06090326255574947,-0.06090326255574947,-0.0625
1588960049.2687583,0.55,-2.3192155537532666,-9.599215553753266,-0.4988888888888889,0.17333333333333334,0.72,-0.0049027890420834455,0.0,-0.06086573698597218
1588960049.2787583,0.55,-2.3003172028476166,-9.580317202847617,-0.4988888888888889,0.17333333333333334,0.72,-0.12301748220239704,0.0,-0.021494172599200986
1588960049.2887583,0.528061283262297,-2.3046258111584685,-9.548061283262296,-0.4883258030522171,0.1773960586551302,0.7297505407723124,-0.09608868025957071,-0.045705659870214646,0.045705659870214646
1588960049.2987583,0.52,-2.319729646954004,-9.549729646954004,-0.4844444444444445,0.17888888888888888,0.7333333333333333,-0.0016897065374763334,-0.12331029346252367,-0.05912058692504733
1588960049.3087583,0.5282862112203212,-2.32,-9.632862112203211,-0.4844444444444445,0.17888888888888888,0.7333333333333333,0.10357764025401447,0.08215528050802895,-0.010711179872992763
1588960049.3187582,0.5201680326664905,-2.3101680326664904,-9.61067213066596,-0.4844444444444445,0.17888888888888888,0.7333333333333333,0.0021004083311301075,-0.05934938750330482,0.061449795834434946
1588960049.3287582,0.5511581404982019,-2.31,-9.586631394626348,-0.4844444444444445,0.17888888888888888,0.7333333333333333,-0.048684594528440435,-0.0625,0.11118459452844043
1588960049.3387582,0.5477308364138603,-2.30386541820693,-9.55546167282772,-0.4933055070344342,0.175480787892739,0.7292436121379534,-0.1391822724133729,-0.1391822724133729,0.08665886379331356
1588960049.3487582,0.531559714138363,-2.291559714138363,-9.582201429308185,-0.4988888888888889,0.17333333333333334,0.7266666666666667,0.023507146540926838,0.07625893317615856,-0.04300357327046342
1588960049.3587582,0.5177816119886594,-2.29610919400567,-9.614436776022682,-0.4988888888888889,0.17333333333333334,0.7266666666666667,0.1388649250708789,0.125,-0.02431753746456055
1588960049.3687582,0.529138464823316,-2.312758976548877,-9.610861535176683,-0.4988888888888889,0.17333333333333334,0.7266666666666667,0.14762819828475854,0.045256396569517104,0.0
1588960049.3787582,0.5253332102213707,-2.3053332102213706,-9.548666235774796,-0.4988888888888889,0.17333333333333334,0.7266666666666667,-0.058334872232866264,0.13750115417464973,0.045833718058216566
1588960049.3887582,0.5293430275454993,-2.3093430275454994,-9.539343027545499,-0.5103081447778324,0.16918087664644477,0.7412002650707766,0.05018176647811115,0.1291060778406296,-0.05428784431874077
1588960049.3987582,0.53,-2.3005491583370925,-9.568352524988722,-0.5111111111111111,0.1688888888888889,0.7422222222222222,-0.055635520786343456,0.125,0.055635520786343456
1588960049.4087582,0.53,-2.3178064342199853,-9.614516085549964,-0.5111111111111111,0.1688888888888889,0.7422222222222222,0.1600804277498203,0.06935489306254493,0.0625
1588960049.4187582,0.5229379370795938,-2.32,-9.605875874159187,-0.5111111111111111,0.1688888888888889,0.7422222222222222,0.1433621067474609,0.15077578650507822,0.018362106747460888
1588960049.4287581,0.52,-2.307132219176753,-9.574264438353506,-0.5111111111111111,0.1688888888888889,0.7422222222222222,0.004364554782060312,0.22771181507264657,-0.04021181507264657
1588960049.4387581,0.5320471431098532,-2.3,-9.56,-0.4997332537295831,0.17491246044381548,0.7415529364938971,-0.10014732221829117,0.1370580333451265,0.012794644436582348
1588960049.4487581,0.5486190150724847,-2.308619015072485,-9.585857045217454,-0.4922222222222222,0.17888888888888888,0.7411111111111112,-0.07113115579697112,0.0625,-0.09910653260908667
1588960049.458758,0.5354392601933586,-2.31,-9.619121479613284,-0.4922222222222222,0.17888888888888888,0.7411111111111112,-0.016997688104245484,0.0625,0.05700924758301806
1588960049.468758,0.5393598837994866,-2.3193598837994864,-9.60192034860154,-0.4922222222222222,0.17888888888888888,0.7411111111111112,0.0,-0.1714970949871639,0.008001452506418053
1588960049.478758,0.5326458057881592,-2.327354194211841,-9.570583223152637,-0.4922222222222222,0.17888888888888888,0.7411111111111112,0.0,-0.0036451447039812235,0.045963713824004694
1588960049.488758,0.5490263957987839,-2.317315736134144,-9.547315736134143,-0.4922222222222222,0.17888888888888888,0.7227893966382082,-0.11891497374239911,-0.05641497374239911,-0.05641497374239911
1588960049.498758,0.524729844030179,-2.283547383022634,-9.55763507798491,-0.4922222222222222,0.17888888888888888,0.7122222222222222,-0.1875,-0.06989038129715465,-0.014780762594309299
1588960049.508758,0.5140650180605724,-2.2859349819394277,-9.61341483745485,-0.4922222222222222,0.17888888888888888,0.7122222222222222,-0.11331272575715476,0.04878091136426786,0.0
1588960049.518758,0.5285821428571429,-2.308582142857143,-9.637611904761906,-0.4922222222222222,0.17888888888888888,0.7122222222222222,0.014925595238095238,0.04757440476190476,0.03871279761904762
1588960049.528758,0.5249029367844699,-2.314967645594823,-9.59980587356894,-0.4922222222222222,0.17888888888888888,0.7122222222222222,-0.03185664509706322,-0.09435664509706322,0.031047784967645597
1588960049.538758,0.5221483489802525,-2.3059505503399156,-9.557851651019748,-0.494921855328945,0.17663919463328656,0.7122222222222222,-0.15030906037552605,-0.11157281887342183,0.0
1588960049.548758,0.5281445048966268,-2.31778324265506,-9.534072252448313,-0.4988888888888889,0.17333333333333334,0.7122222222222222,-0.15045157780195867,-0.037048422198041345,0.0
1588960049.558758,0.52,-2.304670906778121,-9.631316372887516,-0.4988888888888889,0.17333333333333334,0.7122222222222222,0.03330683263674358,0.09580683263674358,-0.05276894421224786
1588960049.568758,0.5262359662195728,-2.3124719324391454,-9.625056135121708,-0.4988888888888889,0.17333333333333334,0.7122222222222222,0.10147478887232986,-0.18679831097863886,-0.023525211127670143
1588960049.578758,0.5183778470100723,-2.308377847010072,-9.575133541030217,-0.4988888888888889,0.17333333333333334,0.7122222222222222,0.08868077190647591,-0.2660423157194277,0.0
1588960049.588758,0.5187433088509897,-2.317486617701979,-9.51502676459604,-0.49306001632156243,0.17333333333333334,0.7306803186854226,0.0625,-0.023562959043943732,0.0
1588960049.598758,0.5471545239630347,-2.32,-9.546206031950714,-0.4922222222222222,0.17333333333333334,0.7333333333333333,-0.163787699691955,0.0,-0.1131438498459775
1588960049.608758,0.5244824264689412,-2.32,-9.626552720593176,-0.4922222222222222,0.17333333333333334,0.7333333333333333,-0.1875,-0.15948483456911808,-0.01867677695392128
1588960049.618758,0.52,-2.3113516893051536,-9.61405506791546,-0.4922222222222222,0.17333333333333334,0.7333333333333333,-0.025344174471632425,-0.025344174471632425,0.0
1588960049.628758,0.5268228639922089,-2.303177136007791,-9.562239952054536,-0.4922222222222222,0.17333333333333334,0.7333333333333333,0.12792869985391617,-0.04264289995130539,0.04264289995130539
1588960049.638758,0.53,-2.3143343280156086,-9.52566567198439,-0.4866477613272633,0.1773150911154469,0.7237771146562607,0.09791044990244463,0.2510634253414438,-0.02708955009755537
1588960049.648758,0.53,-2.313382443976724,-9.533235112046551,-0.4844444444444445,0.17888888888888888,0.72,0.0625,0.375,0.02021945029094961
1588960049.658758,0.5230868506493507,-2.2961737012987014,-9.602218344155844,-0.4844444444444445,0.17888888888888888,0.72,0.0625,0.33179281655844156,0.0625
1588960049.668758,0.5139369750402097,-2.314252099839161,-9.60574790016084,-0.4844444444444445,0.17888888888888888,0.72,0.1761817179960684,0.3125,0.0625
1588960049.678758,0.5174631751227496,-2.33,-9.58253682487725,-0.4844444444444445,0.17888888888888888,0.72,0.2733224222585925,0.3358224222585925,-0.030789689034369877
1588960049.688758,0.5281753103343234,-2.326350620668647,-9.56452593100297,-0.4880938237757978,0.17888888888888888,0.718580796926696,0.3125,0.397808620820958,-0.16469137917904197
1588960049.698758,0.5241162514827995,-2.3058837485172003,-9.560581257413997,-0.5044444444444445,0.17888888888888888,0.7122222222222222,0.28677342823250296,0.3713671411625148,0.014679715302491111
1588960049.7087579,0.5435759154829038,-2.3,-9.626202441287743,-0.5044444444444445,0.17888888888888888,0.7122222222222222,0.16515052823185095,0.24406631451209937,0.09671684274395032
1588960049.7187579,0.56,-2.3050443686006825,-9.629645051194538,-0.5044444444444445,0.17888888888888888,0.7122222222222222,-0.0005546075085324231,0.09180887372013652,-0.0005546075085324231
1588960049.7287579,0.5456073206264417,-2.305202440208814,-9.585202440208814,-0.5044444444444445,0.17888888888888888,0.7122222222222222,-0.00253050261017361,-0.09501525130508681,0.027454246084739592
1588960049.7387578,0.5206159667045025,-2.3140760499432464,-9.556539916761256,-0.5018377685290285,0.1741968722411401,0.7189995796023038,0.12115020809685963,-0.0625,0.0956748959515702
1588960049.7487578,0.5154624493489123,-2.3190751013021758,-9.53546244934891,-0.4988888888888889,0.1688888888888889,0.7266666666666667,0.08507907470789566,-0.1307806168614029,0.0625
1588960049.7587578,0.52,-2.302442340192862,-9.61557659807138,-0.4988888888888889,0.1688888888888889,0.7266666666666667,-0.09447074758922358,-0.1402646262053882,0.0625
1588960049.7687578,0.5440221402214023,-2.308007380073801,-9.64,-0.4988888888888889,0.1688888888888889,0.7266666666666667,-0.125,-0.125,0.11254612546125461
1588960049.7787578,0.525001564657156,-2.31,-9.590003129314313,-0.4988888888888889,0.1688888888888889,0.7266666666666667,-0.08593994477680626,-0.046879889553612525,0.08593994477680626
1588960049.7887578,0.5241817344993096,-2.3170908672496546,-9.552909132750345,-0.4988888888888889,0.1759797561385437,0.7376969046105741,-0.018182079689657432,-0.04431792031034257,0.018182079689657432
1588960049.7987578,0.5358633641614401,-2.32,-9.53827327167712,-0.4988888888888889,0.17888888888888888,0.7422222222222222,-0.03664602600900039,-0.02585397399099961,0.03664602600900039
1588960049.8087578,0.5334265412895928,-2.313426541289593,-9.60230804581448,-0.4988888888888889,0.17888888888888888,0.7422222222222222,-0.0625,0.041084116940045254,0.0625
1588960049.8187578,0.5236691466598614,-2.31,-9.621007439979584,-0.4988888888888889,0.17888888888888888,0.7422222222222222,-0.0625,0.1020678333758662,0.022932166624133804
1588960049.8287578,0.52,-2.31,-9.603077804736458,-0.4988888888888889,0.17888888888888888,0.7422222222222222,-0.019236279602863907,0.18989558059570416,0.021631860198568047
1588960049.8387578,0.52,-2.31,-9.590591238594245,-0.4988888888888889,0.17888888888888888,0.7422222222222222,0.05880475878596628,0.30695713817894943,0.06065237939298314
1588960049.8487577,0.5086273140062871,-2.31,-9.564313657003144,-0.4844444444444445,0.18666666666666668,0.6977777777777778,0.008579287460705555,0.026960356269647223,0.035539643730352774
1588960049.8587577,0.52,-2.3233236212278876,-9.62329448491155,-0.4844444444444445,0.18666666666666668,0.6977777777777778,-0.1457726326742976,0.0208636836628512,0.0416363163371488
1588960049.8687577,0.52,-2.3197681468403344,-9.634652220260502,-0.4844444444444445,0.18666666666666668,0.6977777777777778,-0.1875,0.0,0.0625
1588960049.8787577,0.52,-2.313564065633031,-9.598615606201813,-0.4844444444444445,0.18666666666666668,0.6977777777777778,-0.12067376938066593,0.0,0.04022458979355531
1588960049.8887577,0.5239657135758504,-2.312068572848299,-9.548102859272449,-0.4875288883367726,0.18666666666666668,0.709234283663568,-0.0247857098490652,-0.0247857098490652,0.0247857098490652
1588960049.8987577,0.5345917049368543,-2.3137751148105625,-9.548366819747416,-0.4922222222222222,0.18666666666666668,0.7266666666666667,-0.0051036882893226165,-0.0051036882893226165,0.03380184414466131
1588960049.9087577,0.5334652333584649,-2.3103957000753943,-9.622278133132282,-0.4922222222222222,0.18666666666666668,0.7266666666666667,-0.01918458301918914,0.02165770849040543,0.08168458301918914
1588960049.9187577,0.53,-2.3068643731720617,-9.643135626827938,-0.4922222222222222,0.18666666666666668,0.7266666666666667,0.02330466465077083,0.0,0.03919533534922917
1588960049.9287577,0.5295298634305589,-2.31,-9.639529863430559,-0.4922222222222222,0.1863010048904347,0.7259875805108073,0.05662329288198596,0.0,-0.0029383535590070185
1588960049.9387577,0.5288566783243159,-2.31,-9.638856678324316,-0.4922222222222222,0.18577741647446794,0.7250152020240119,0.04820847905394886,0.0,-0.007145760473025569
1588960049.9487576,0.528183493218073,-2.31,-9.638183493218074,-0.4922222222222222,0.18525382805850119,0.7240428235372165,0.03979366522591176,0.0,-0.01135316738704412
1588960049.9587576,0.52751030811183,-2.31,-9.63751030811183,-0.4922222222222222,0.18473023964253443,0.7230704450504211,0.03137885139787466,0.0,-0.01556057430106267
1588960049.9687576,0.526837123005587,-2.31,-9.636837123005588,-0.4922222222222222,0.18420665122656768,0.7220980665636256,0.02296403756983756,0.0,-0.01976798121508122
1588960049.9787576,0.526163937899344,-2.31,-9.636163937899346,-0.4922222222222222,0.18368306281060093,0.7211256880768303,0.014549223741800461,0.0,-0.02397538812909977
1588960049.9887576,0.5254907527931011,-2.31,-9.635490752793102,-0.4922222222222222,0.18315947439463418,0.7201533095900349,0.006134409913763357,0.0,-0.02818279504311832
1588960049.9987576,0.5248175676868582,-2.31,-9.63481756768686,-0.4922222222222222,0.1826358859786674,0.7191809311032394,-0.0022804039142737403,0.0,-0.03239020195713687
1588960050.0087576,0.5241443825806151,-2.31,-9.634144382580615,-0.4922222222222222,0.18211229756270064,0.7182085526164441,-0.010695217742310845,0.0,-0.03659760887115542
1588960050.0187576,0.5234711974743722,-2.31,-9.633471197474373,-0.4922222222222222,0.1815887091467339,0.7172361741296487,-0.01911003157034795,0.0,-0.040805015785173974
1588960050.0287576,0.5227980123681292,-2.31,-9.63279801236813,-0.4922222222222222,0.18106512073076714,0.7162637956428533,-0.02752484539838504,0.0,-0.04501242269919252
1588960050.0387576,0.5221248272618862,-2.31,-9.632124827261887,-0.4922222222222222,0.18054153231480038,0.7152914171560578,-0.035939659226422144,0.0,-0.04921982961321107
1588960050.0487576,0.5214516421556433,-2.31,-9.631451642155644,-0.4922222222222222,0.18001794389883363,0.7143190386692625,-0.04435447305445925,0.0,-0.053427236527229624
1588960050.0587575,0.5207784570494003,-2.31,-9.6307784570494,-0.4922222222222222,0.17949435548286688,0.7133466601824671,-0.05276928688249635,0.0,-0.057634643441248176
1588960050.0687575,0.5201052719431574,-2.31,-9.630105271943158,-0.4922222222222222,0.17897076706690013,0.7123742816956716,-0.06118410071053344,0.0,-0.06184205035526672
1588960050.0787575,0.531293164894827,-2.328706835105173,-9.58,-0.4930843321521069,0.17989468380708767,0.7132280171404211,-0.125,0.10075315822199306,-0.0625
1588960050.0887575,0.537654043889049,-2.3223459561109507,-9.58,-0.49732491814825486,0.18484203413592698,0.7181753674692603,-0.125,-0.018513322919668174,-0.0625
1588960050.0987575,0.5310031944538843,-2.3244984027730577,-9.575501597226943,-0.4988888888888889,0.18666666666666668,0.72,-0.0406549480051655,-0.0625,-0.0343849826683885
1588960050.1087575,0.5237495099960799,-2.32625049000392,-9.60374558996472,-0.4988888888888889,0.18666666666666668,0.72,0.03906556252450019,-0.03906556252450019,-0.023434437475499805
1588960050.1187575,0.5191039396479463,-2.32,-9.632759849119866,-0.4988888888888889,0.18666666666666668,0.72,0.0,0.03405018860016765,0.005600377200335294
1588960050.1287575,0.5233831186021886,-2.3110779209318744,-9.57877272326156,-0.4988888888888889,0.18666666666666668,0.72,-0.027881497087892695,0.0903814970878927,0.0346185029121073
1588960050.1387575,0.5440107678014151,-2.3080215356028297,-9.54,-0.4988888888888889,0.17953641279748433,0.72,-0.03743270124115587,0.125,0.0
1588960050.1487575,0.5404163814738764,-2.315208190736938,-9.535208190736938,-0.4988888888888889,0.1688888888888889,0.72,-0.029948807894136436,0.005204768423454256,0.029948807894136436
1588960050.1587574,0.53,-2.3155063129258027,-9.590569442183831,-0.4988888888888889,0.1688888888888889,0.72,-0.09691445578626735,-0.05617108842746529,-0.04074336735880206
1588960050.1687574,0.5241234702626861,-2.325876529737314,-9.604740821576117,-0.4988888888888889,0.1688888888888889,0.72,-0.051543378283576274,0.0,0.02191324343284745
1588960050.1787574,0.5244208009766353,-2.316737597070094,-9.566737597070095,-0.4988888888888889,0.1688888888888889,0.72,0.0,0.027630006103970973,0.09736999389602903
1588960050.1887574,0.5282056423593877,-2.3017943576406124,-9.55,-0.49769265046181405,0.17068324652950118,0.718604388501746,-0.022429470507653516,0.07371473525382675,0.0625
1588960050.1987574,0.52,-2.309760722524143,-9.551435664855145,-0.4922222222222222,0.17888888888888888,0.7122222222222222,-0.12649548422410758,0.125,0.0625
1588960050.2087574,0.5153650013650014,-2.3,-9.628539994539995,-0.4922222222222222,0.17888888888888888,0.7122222222222222,-0.042656292656292644,0.06706251706251706,0.03353125853125853
1588960050.2187574,0.5227040787248998,-2.3127040787248996,-9.6288265354585,-0.4922222222222222,0.17888888888888888,0.7122222222222222,0.07206633864625088,-0.02646683067687456,0.0
1588960050.2287574,0.54,-2.3246731290485596,-9.58934625809712,-0.4922222222222222,0.17888888888888888,0.7122222222222222,0.0,-0.029207056553498416,0.0
1588960050.2387574,0.5300688285903375,-2.3066896095301126,-9.550068828590337,-0.4896474740789764,0.18146363703213472,0.7100152952422972,0.020689940436796825,0.10387988087359365,-0.04137988087359365
1588960050.2487574,0.5172240324511238,-2.303612016225562,-9.540836048676686,-0.4844444444444445,0.18666666666666668,0.7055555555555556,0.017349797180476127,0.09719959436095225,-0.05727469577071419
1588960050.2587574,0.53,-2.3086205003529137,-9.571035997176693,-0.4844444444444445,0.18666666666666668,0.7055555555555556,-0.05387812720570936,-0.07112187279429064,0.08836561838287194
1588960050.2687573,0.5247250046251024,-2.3052749953748974,-9.629450009250204,-0.4844444444444445,0.18666666666666668,0.7055555555555556,-0.06593744218621983,0.00687488437243966,0.15109383672067023
1588960050.2787573,0.5283892558958359,-2.3141946279479177,-9.586442976416656,-0.4844444444444445,0.18666666666666668,0.7055555555555556,-0.15121642467448712,0.125,0.03628357532551289
1588960050.2887573,0.5387124329159213,-2.3212875670840787,-9.537424865831841,-0.4828707513416816,0.1843776585171934,0.7064139336116081,-0.16335811717352416,0.09281082289803219,0.02414188282647585
1588960050.2987573,0.5324597495527729,-2.3275402504472273,-9.524919499105545,-0.4752285827867223,0.17326177698270723,0.7105823891870403,-0.04612030411449017,-0.06350626118067978,0.14137969588550983
1588960050.3087573,0.5258933096602373,-2.325893309660237,-9.581600355096441,-0.4722222222222222,0.1688888888888889,0.7122222222222222,-0.051333629247034135,-0.125,0.13616637075296587
1588960050.3187573,0.5178158053488839,-2.3156316106977677,-9.654710637442188,-0.4722222222222222,0.1688888888888889,0.7122222222222222,-0.09769756686104966,-0.125,0.0625
1588960050.3287573,0.514006015519328,-2.3,-9.567951875845376,-0.4722222222222222,0.1688888888888889,0.7122222222222222,0.025037596995799816,-0.125,0.08753759699579981
1588960050.3387573,0.5254167076328122,-2.302708353816406,-9.530833415265624,-0.47553243244227417,0.17550930932899275,0.7161342888459199,0.011718365942385213,-0.125,0.10807278864746174
1588960050.3487573,0.54,-2.305663356307665,-9.573009931077005,-0.4844444444444445,0.19333333333333333,0.7266666666666667,-0.09789597692290754,-0.09789597692290754,0.008291953845815069
1588960050.3587573,0.535358205539025,-2.3185671778439,-9.622492561226826,-0.4844444444444445,0.19333333333333333,0.7266666666666667,-0.0625,-0.0625,0.024533646143282226
1588960050.3687572,0.5203052701912637,-2.3303052701912637,-9.635763175478159,-0.4844444444444445,0.19333333333333333,0.7266666666666667,-0.032203969347698994,-0.092796030652301,-0.026480153261505046
1588960050.3787572,0.51,-2.3128940653551733,-9.585129228743106,-0.4844444444444445,0.19333333333333333,0.7266666666666667,0.04441209153016709,-0.14720604576508356,-0.12088186270474936
1588960050.3887572,0.5212220782997171,-2.3,-9.54,-0.49005548359430307,0.18772229418347475,0.7266666666666667,0.125,-0.1524310053133839,-0.017534497343308045
1588960050.3987572,0.5473252815110788,-2.3,-9.537325281511079,-0.5044444444444445,0.17333333333333334,0.7266666666666667,0.10828300944424264,-0.0625,-0.012349028332727933
1588960050.4087572,0.5393875998478509,-2.300612400152149,-9.53673640167364,-0.5044444444444445,0.17333333333333334,0.7266666666666667,0.0625,-0.07015500190186383,0.12117249904906809
1588960050.4187572,0.5346839049272846,-2.3146839049272847,-9.616580475363577,-0.5044444444444445,0.17333333333333334,0.7266666666666667,0.09177440579552854,-0.09967678261341437,0.09177440579552854
1588960050.4287572,0.5358782089111833,-2.3282435821776333,-9.57763462673355,-0.5044444444444445,0.17333333333333334,0.7266666666666667,0.125,-0.025761194305104748,0.04771641708468574
1588960050.4387572,0.5331990468625893,-2.3272038125496426,-9.553601906274821,-0.5005344982790575,0.1751105815903274,0.7245339687582738,0.125,-0.0625,-0.0025178713264495597
1588960050.4487572,0.5319295005305145,-2.295964750265257,-9.55614099893897,-0.4922222222222222,0.17888888888888888,0.72,0.07455937831571502,-0.03727968915785751,0.07455937831571502
1588960050.4587572,0.5247525483520316,-2.2947525483520317,-9.599010193408127,-0.4922222222222222,0.17888888888888888,0.72,0.0,0.044555140800295344,0.0
1588960050.4687572,0.54,-2.3118509037312855,-9.647043673881003,-0.4922222222222222,0.17888888888888888,0.72,0.0,0.14122740671786518,-0.023136296641067408
1588960050.4787571,0.5284356585150265,-2.3122904390100176,-9.578435658515026,-0.4922222222222222,0.17888888888888888,0.72,0.0,-0.0625,-0.07681524381261048
1588960050.4887571,0.5184776158765741,-2.3,-9.551522384123427,-0.4881404071705384,0.17888888888888888,0.7178020995875548,-0.052985099228588385,-0.044838300257137205,0.0
1588960050.4987571,0.5362248162074191,-2.3,-9.548875918962905,-0.4777777777777778,0.17888888888888888,0.7122222222222222,-0.1875,0.0,0.0
1588960050.508757,0.5273417372101583,-2.3026582627898415,-9.59594957673905,-0.4777777777777778,0.17888888888888888,0.7122222222222222,-0.1542717151269783,-0.016614142436510857,0.016614142436510857
1588960050.518757,0.52,-2.3055796140816027,-9.631159228163206,-0.4777777777777778,0.17888888888888888,0.7122222222222222,-0.0901274119899838,-0.0625,0.007245176020032405
1588960050.528757,0.52,-2.3079522410296733,-9.606746264950544,-0.4777777777777778,0.17888888888888888,0.7122222222222222,-0.07529849356454082,-0.012798493564540825,-0.07906716881181972
1588960050.538757,0.52,-2.3253105988494807,-9.577815668584199,-0.4777777777777778,0.17888888888888888,0.7122222222222222,0.03319124280925381,0.09569124280925381,-0.11523041426975128
1588960050.548757,0.5179690174778621,-2.3010154912610687,-9.53898450873893,-0.4922222222222222,0.1688888888888889,0.7122222222222222,0.11865317961831899,-0.049806359236637995,-0.056153179618319
1588960050.558757,0.500240505526555,-2.3098797472367227,-9.530120252763277,-0.4922222222222222,0.1688888888888889,0.7122222222222222,0.06325157977048418,0.06099684045903164,-0.0007515797704841787
1588960050.568757,0.53,-2.32,-9.62961238883778,-0.4922222222222222,0.1688888888888889,0.7122222222222222,0.17126935755903097,-0.030038715118061943,-0.03246128488193806
1588960050.578757,0.53,-2.32,-9.60388837779822,-0.4922222222222222,0.1688888888888889,0.7122222222222222,0.13107559030972094,0.050348819380558116,-0.11284881938055812
1588960050.588757,0.5310543773673736,-2.3031631321021204,-9.557891245265253,-0.4935109056712344,0.16935750105216604,0.7122222222222222,0.11182028290783025,-0.1875,0.055910141453915124
1588960050.598757,0.5399434756464222,-2.329886951292844,-9.540169573060734,-0.5044444444444445,0.17333333333333334,0.7122222222222222,-0.00035327720986169577,-0.1864401683704149,-0.00035327720986169577
1588960050.608757,0.53,-2.307053686544842,-9.590624194186107,-0.5044444444444445,0.17333333333333334,0.7122222222222222,-0.0625,0.07365783637895171,-0.08091445909473793
1588960050.618757,0.5303367339395284,-2.300336733939528,-9.638989798181415,-0.5044444444444445,0.17333333333333334,0.7122222222222222,-0.05618623863384342,0.23737247726768684,-0.12289541287794781
1588960050.628757,0.54,-2.31,-9.59945207537093,-0.5044444444444445,0.17333333333333334,0.7122222222222222,0.1085188677670778,-0.05907547106831117,-0.046018867767077795
1588960050.638757,0.54,-2.31,-9.571451341021747,-0.5044444444444445,0.17333333333333334,0.7122222222222222,0.06476772034647929,0.11592911861408281,-0.0022677203464792975
1588960050.648757,0.5229493202511122,-2.302949320251112,-9.542949320251111,-0.4988888888888889,0.1688888888888889,0.7266666666666667,-0.018433251569450797,-0.0625,-0.0809332515694508
1588960050.658757,0.53,-2.3076557707475245,-9.568753834019807,-0.4988888888888889,0.1688888888888889,0.7266666666666667,-0.04784856717202699,-0.12110573131189203,-0.09569713434405398
1588960050.668757,0.5260820198700232,-2.296082019870023,-9.614328079480092,-0.4988888888888889,0.1688888888888889,0.7266666666666667,0.02448737581235527,-0.19006312093822364,0.02448737581235527
1588960050.678757,0.533265178622139,-2.2933162946555345,-9.576734821377862,-0.4988888888888889,0.1688888888888889,0.7266666666666667,0.041773158402907934,0.0,0.041773158402907934
1588960050.688757,0.554302387950825,-2.3028488060245875,-9.548575596987707,-0.4968314178711312,0.1695219568943528,0.7236595936407132,0.00890251882683602,0.0,-0.01780503765367204
1588960050.698757,0.5221437884824339,-2.3185708076783773,-9.542858384643244,-0.4844444444444445,0.17333333333333334,0.7055555555555556,0.06696622600507063,-0.0044662260050706264,-0.11606754798985874
1588960050.708757,0.5423607402201921,-2.307639259779808,-9.606737409229329,-0.4844444444444445,0.17333333333333334,0.7055555555555556,0.053381939564300776,-0.0625,-0.023872686811899742
1588960050.718757,0.526425026423418,-2.323574973576582,-9.639275079270254,-0.4844444444444445,0.17333333333333334,0.7055555555555556,-0.040156415146362756,-0.040156415146362756,-0.040156415146362756
1588960050.728757,0.5227244557909302,-2.3245510884181395,-9.603653265254419,-0.4844444444444445,0.17333333333333334,0.7055555555555556,-0.03405569738662717,0.017027848693313585,0.0
1588960050.738757,0.53,-2.31,-9.56,-0.48382610484053057,0.17333333333333334,0.7055555555555556,-0.10760919863992113,0.0625,-0.01159386757338591
1588960050.748757,0.53,-2.31,-9.56,-0.4782002874854413,0.17333333333333334,0.7055555555555556,0.05061691447196348,0.0625,-0.11707794298130897
1588960050.7587569,0.5135534533766756,-2.32,-9.557767266883378,-0.4777777777777778,0.17333333333333334,0.7055555555555556,0.10279091639577778,-0.09168637459366669,0.0
1588960050.7687569,0.5288728587603638,-2.32,-9.63436429380182,-0.4777777777777778,0.17333333333333334,0.7055555555555556,0.007044632747726362,0.051933050878410464,0.0
1588960050.7787569,0.53,-2.3038871593101207,-9.622507783104457,-0.4777777777777778,0.17333333333333334,0.7055555555555556,0.11285262715587219,-0.038205254311744374,-0.012147372844127815
1588960050.7887568,0.53,-2.3199090857000972,-9.550409114349563,-0.4777777777777778,0.17333333333333334,0.7055555555555556,0.0627841071871956,0.06193178562560879,-0.062215892812804395
1588960050.7987568,0.5232026682463234,-2.33,-9.543594663507353,-0.4844444444444445,0.17888888888888888,0.7122222222222222,0.08496664692095707,0.0,0.04003335307904293
1588960050.8087568,0.53,-2.33,-9.53,-0.4844444444444445,0.17888888888888888,0.7122222222222222,0.0,0.0,0.125
