time,acc_x,acc_y,acc_z,mag_x,mag_y,mag_z,gyr_x,gyr_y,gyr_z
1589552234.960559,-0.17,-4.25,8.76,0.44222222222222224,0.2888888888888889,-0.6611111111111111,4.5,-1.1875,-4.0
1589552234.9709814,-0.16,-4.25,8.81,0.44222222222222224,0.2888888888888889,-0.6611111111111111,-3.5,0.5625,-10.6875
1589552234.9787526,-0.16,-4.24,8.86,0.44222222222222224,0.2888888888888889,-0.6611111111111111,-1.875,-3.5625,2.125
1589552234.9863348,-0.13,-4.22,8.9,0.44222222222222224,0.3088888888888889,-0.6677777777777778,-6.5,-1.4375,-3.5
1589552234.9972718,-0.13,-4.24,8.91,0.44222222222222224,0.3088888888888889,-0.6677777777777778,1.75,1.5625,4.125
1589552235.009229,-0.15,-4.23,8.82,0.44222222222222224,0.3088888888888889,-0.6677777777777778,5.625,3.3125,0.5
1589552235.016688,-0.13,-4.24,8.86,0.44222222222222224,0.3088888888888889,-0.6677777777777778,4.0,7.75,4.125
1589552235.0283391,-0.16,-4.23,8.88,0.44222222222222224,0.3088888888888889,-0.6677777777777778,0.375,4.8125,4.875
1589552235.0365205,-0.13,-4.25,8.94,0.4544444444444444,0.2888888888888889,-0.6822222222222222,-2.875,-1.9375,5.375
1589552235.0466065,-0.16,-4.23,8.84,0.4544444444444444,0.2888888888888889,-0.6822222222222222,2.5,-0.5625,-3.75
1589552235.0563598,-0.16,-4.22,8.79,0.4544444444444444,0.2888888888888889,-0.6822222222222222,-0.25,-4.8125,4.125
1589552235.068862,-0.16,-4.25,8.82,0.4544444444444444,0.2888888888888889,-0.6822222222222222,-3.875,-0.4375,6.75
1589552235.082849,-0.15,-4.23,8.88,0.4544444444444444,0.2888888888888889,-0.6822222222222222,0.125,-3.0625,-2.5
1589552235.0889196,-0.15,-4.24,8.91,0.4488888888888889,0.3022222222222222,-0.6888888888888889,0.5,6.0625,3.125
1589552235.1007626,-0.13,-4.25,8.93,0.4488888888888889,0.3022222222222222,-0.6888888888888889,1.125,1.1875,-2.0
1589552235.1066413,-0.14,-4.25,8.83,0.4488888888888889,0.3022222222222222,-0.6888888888888889,-2.125,-2.3125,3.25
1589552235.1200664,-0.16,-4.23,8.82,0.4488888888888889,0.3022222222222222,-0.6888888888888889,0.0,3.9375,-0.625
1589552235.1294374,-0.16,-4.23,8.88,0.4488888888888889,0.3022222222222222,-0.6888888888888889,0.125,-4.5625,2.25
1589552235.140068,-0.17,-4.22,8.91,0.4488888888888889,0.3022222222222222,-0.6733333333333333,-4.75,-5.4375,0.25
1589552235.146137,-0.2,-4.22,8.9,0.4488888888888889,0.3022222222222222,-0.6733333333333333,-2.375,-3.8125,7.0625
1589552235.1565552,-0.14,-4.25,8.83,0.4488888888888889,0.3022222222222222,-0.6733333333333333,-2.875,-0.9375,-5.25
1589552235.1669345,-0.13,-4.23,8.84,0.4488888888888889,0.3022222222222222,-0.6733333333333333,-5.875,-0.5625,4.25
1589552235.1790605,-0.15,-4.23,8.87,0.4488888888888889,0.3022222222222222,-0.6733333333333333,-2.75,-1.5625,-2.25
1589552235.1870928,-0.15,-4.25,8.86,0.4355555555555555,0.29444444444444445,-0.6733333333333333,3.25,-0.0625,5.5
1589552235.1965888,-0.16,-4.23,8.86,0.4355555555555555,0.29444444444444445,-0.6733333333333333,1.625,0.0625,-1.625
1589552235.213291,-0.15,-4.23,8.79,0.4355555555555555,0.29444444444444445,-0.6733333333333333,-3.625,0.4375,5.75
1589552235.21963,-0.15,-4.23,8.79,0.4355555555555555,0.29444444444444445,-0.6733333333333333,4.0,-0.6875,-6.25
1589552235.2334404,-0.17,-4.23,8.87,0.4355555555555555,0.29444444444444445,-0.6733333333333333,-7.5625,-6.5625,-6.625
1589552235.2391827,-0.14,-4.23,8.9,0.4488888888888889,0.29444444444444445,-0.68,-2.125,-1.9375,-1.0
1589552235.2514415,-0.15,-4.22,8.95,0.4488888888888889,0.29444444444444445,-0.68,-2.125,-3.8125,0.75
1589552235.2580018,-0.15,-4.25,8.83,0.4488888888888889,0.29444444444444445,-0.68,-0.125,0.9375,-3.5
1589552235.267882,-0.17,-4.25,8.86,0.4488888888888889,0.29444444444444445,-0.68,-1.0,0.8125,1.5
1589552235.280215,-0.15,-4.23,8.89,0.4488888888888889,0.29444444444444445,-0.68,1.25,-1.0625,2.5
1589552235.291217,-0.15,-4.22,8.89,0.4222222222222222,0.2888888888888889,-0.6733333333333333,-2.625,-3.0625,-7.3125
1589552235.2973242,-0.15,-4.23,8.84,0.4222222222222222,0.2888888888888889,-0.6733333333333333,-0.625,0.5625,-2.375
1589552235.3106947,-0.17,-4.23,8.75,0.4222222222222222,0.2888888888888889,-0.6733333333333333,2.375,-3.3125,-4.0
1589552235.3172884,-0.18,-4.22,8.8,0.4222222222222222,0.2888888888888889,-0.6733333333333333,-0.625,-0.6875,-4.625
1589552235.3288386,-0.16,-4.22,8.83,0.4222222222222222,0.2888888888888889,-0.6733333333333333,-3.25,5.8125,4.875
1589552235.337439,-0.16,-4.24,8.9,0.42777777777777776,0.31555555555555553,-0.68,2.125,-3.8125,0.875
1589552235.3498533,-0.17,-4.25,8.9,0.42777777777777776,0.31555555555555553,-0.68,-3.375,2.5625,-1.875
1589552235.3616972,-0.13,-4.25,8.83,0.42777777777777776,0.31555555555555553,-0.68,0.0,-1.9375,1.875
1589552235.3677535,-0.16,-4.23,8.85,0.42777777777777776,0.31555555555555553,-0.68,-2.375,5.9375,6.75
1589552235.3811035,-0.19,-4.22,8.83,0.42777777777777776,0.31555555555555553,-0.68,-4.375,-4.0625,4.875
1589552235.3875597,-0.13,-4.25,8.94,0.4355555555555555,0.3022222222222222,-0.6822222222222222,-4.0,-2.3125,-3.0
1589552235.3977528,-0.12,-4.25,9.0,0.4355555555555555,0.3022222222222222,-0.6822222222222222,-4.0,0.6875,7.5625
1589552235.408664,-0.16,-4.24,8.76,0.4355555555555555,0.3022222222222222,-0.6822222222222222,-6.375,-5.5625,2.5
1589552235.422785,-0.12,-4.26,8.86,0.4355555555555555,0.3022222222222222,-0.6822222222222222,6.75,0.1875,-1.75
1589552235.4295294,-0.17,-4.24,8.83,0.4355555555555555,0.3022222222222222,-0.6822222222222222,-2.125,2.5625,-12.6875
1589552235.4422786,-0.16,-4.25,8.9,0.4755555555555556,0.3022222222222222,-0.6677777777777778,-1.375,3.0625,1.125
1589552235.4484096,-0.16,-4.24,8.85,0.4755555555555556,0.3022222222222222,-0.6677777777777778,6.25,-7.375,-4.125
1589552235.4609427,-0.16,-4.24,8.78,0.4755555555555556,0.3022222222222222,-0.6677777777777778,1.375,1.6875,-3.375
1589552235.467992,-0.13,-4.24,8.84,0.4755555555555556,0.3022222222222222,-0.6677777777777778,-4.0,-5.1875,4.75
1589552235.4815662,-0.14,-4.23,8.89,0.4755555555555556,0.3022222222222222,-0.6677777777777778,3.5,2.6875,-3.875
1589552235.4871874,-0.15,-4.23,8.92,0.4622222222222222,0.3022222222222222,-0.6733333333333333,6.375,1.4375,2.375
1589552235.4989085,-0.17,-4.24,8.92,0.4622222222222222,0.3022222222222222,-0.6733333333333333,5.0,-0.9375,3.125
1589552235.5083234,-0.18,-4.23,8.75,0.4622222222222222,0.3022222222222222,-0.6733333333333333,-2.875,-4.5625,-0.375
1589552235.5187724,-0.13,-4.26,8.87,0.4622222222222222,0.3022222222222222,-0.6733333333333333,0.875,-4.4375,-3.5
1589552235.535716,-0.13,-4.24,8.92,0.4622222222222222,0.3022222222222222,-0.6733333333333333,4.0,7.375,-0.5
1589552235.5416093,-0.17,-4.22,8.83,0.42777777777777776,0.29444444444444445,-0.6733333333333333,3.75,8.875,0.375
1589552235.548149,-0.16,-4.25,8.86,0.42777777777777776,0.29444444444444445,-0.6733333333333333,-3.375,3.5625,0.625
1589552235.5595365,-0.16,-4.23,8.79,0.42777777777777776,0.29444444444444445,-0.6733333333333333,-0.625,-5.8125,-1.5
1589552235.5714936,-0.17,-4.24,8.85,0.42777777777777776,0.29444444444444445,-0.6733333333333333,-1.625,-5.9375,-11.8125
1589552235.5806978,-0.17,-4.25,8.87,0.42777777777777776,0.29444444444444445,-0.6733333333333333,5.625,0.9375,-0.25
1589552235.592976,-0.13,-4.25,8.89,0.4544444444444444,0.3022222222222222,-0.68,3.75,2.8125,-0.625
1589552235.5993009,-0.14,-4.23,8.85,0.4544444444444444,0.3022222222222222,-0.68,-3.625,-5.4375,3.875
1589552235.6138482,-0.12,-4.25,8.77,0.4544444444444444,0.3022222222222222,-0.68,8.3125,4.3125,-4.5
1589552235.6198213,-0.15,-4.25,8.82,0.4544444444444444,0.3022222222222222,-0.68,0.75,0.0625,-8.9375
1589552235.6311426,-0.15,-4.24,8.92,0.4544444444444444,0.3022222222222222,-0.68,-0.75,0.9375,-4.75
1589552235.6382096,-0.16,-4.23,8.85,0.4355555555555555,0.29444444444444445,-0.6733333333333333,4.75,1.8125,-2.625
1589552235.6491528,-0.13,-4.25,8.88,0.4355555555555555,0.29444444444444445,-0.6733333333333333,-6.75,-2.3125,-0.125
1589552235.658891,-0.07,-4.26,8.92,0.4355555555555555,0.29444444444444445,-0.6733333333333333,3.25,-1.0625,8.0625
1589552235.670171,-0.11,-4.18,8.81,0.4355555555555555,0.29444444444444445,-0.6733333333333333,-1.125,-2.5625,-6.625
1589552235.6809995,-0.1,-4.1,8.83,0.4355555555555555,0.29444444444444445,-0.6733333333333333,-5.125,-5.8125,-6.125
1589552235.6888516,-0.08,-4.16,8.99,0.42777777777777776,0.31555555555555553,-0.6888888888888889,-2.75,1.6875,-6.375
1589552235.6989994,-0.11,-4.2,8.84,0.42777777777777776,0.31555555555555553,-0.6888888888888889,2.75,1.1875,-6.375
1589552235.7091045,-0.16,-4.22,8.74,0.42777777777777776,0.31555555555555553,-0.6888888888888889,1.0,1.6875,-8.9375
1589552235.7203472,-0.08,-4.18,8.81,0.42777777777777776,0.31555555555555553,-0.6888888888888889,6.125,-5.1875,-2.625
1589552235.730495,-0.13,-3.81,8.75,0.42777777777777776,0.31555555555555553,-0.6888888888888889,-2.375,-2.8125,0.25
1589552235.738522,-0.17,-3.48,8.86,0.4355555555555555,0.3088888888888889,-0.6888888888888889,-5.125,-5.5625,-5.875
1589552235.7498074,-0.21,-3.13,8.98,0.4355555555555555,0.3088888888888889,-0.6888888888888889,-2.5,0.0625,-14.0
1589552235.7598574,-0.36,-2.42,8.85,0.4355555555555555,0.3088888888888889,-0.6888888888888889,-4.75,-1.9375,-20.375
1589552235.7703128,-0.39,-2.17,9.1,0.4355555555555555,0.3088888888888889,-0.6888888888888889,-2.5,-4.8125,-17.375
1589552235.7845027,-0.39,-2.14,8.9,0.4355555555555555,0.3088888888888889,-0.6888888888888889,-2.375,3.8125,-22.9375
1589552235.7904608,-0.47,-2.32,9.18,0.4355555555555555,0.3022222222222222,-0.6733333333333333,3.625,11.25,4.75
1589552235.79991,-0.29,-2.88,8.0,0.4355555555555555,0.3022222222222222,-0.6733333333333333,0.375,-4.4375,16.0
1589552235.8100052,-0.17,-3.13,8.74,0.4355555555555555,0.3022222222222222,-0.6733333333333333,4.5,-6.3125,19.25
1589552235.8235495,-0.04,-3.03,9.21,0.4355555555555555,0.3022222222222222,-0.6733333333333333,-1.5,-6.6875,35.1875
1589552235.8316426,0.05,-3.01,8.82,0.4355555555555555,0.3022222222222222,-0.6733333333333333,-1.625,-4.8125,25.9375
1589552235.8411207,0.07,-3.12,9.0,0.44222222222222224,0.3088888888888889,-0.6822222222222222,-6.875,-2.3125,39.1875
1589552235.849682,0.06,-3.05,8.99,0.44222222222222224,0.3088888888888889,-0.6822222222222222,-4.5,-6.1875,35.9375
1589552235.861197,0.08,-3.12,8.87,0.44222222222222224,0.3088888888888889,-0.6822222222222222,-0.625,-0.8125,32.75
1589552235.8715994,0.08,-3.19,8.99,0.44222222222222224,0.3088888888888889,-0.6822222222222222,2.375,0.1875,34.125
1589552235.8826902,-0.03,-3.19,8.94,0.44222222222222224,0.3088888888888889,-0.6822222222222222,2.25,0.3125,29.375
1589552235.8945534,-0.05,-3.25,8.87,0.4488888888888889,0.3022222222222222,-0.6677777777777778,-5.125,-5.6875,34.5
1589552235.9012887,-0.08,-3.29,8.91,0.4488888888888889,0.3022222222222222,-0.6677777777777778,0.625,-1.0625,30.625
1589552235.9159539,-0.15,-3.33,8.66,0.4488888888888889,0.3022222222222222,-0.6677777777777778,-1.25,-0.4375,42.875
1589552235.9226832,-0.2,-3.36,8.88,0.4488888888888889,0.3022222222222222,-0.6677777777777778,-4.25,0.0625,42.75
1589552235.9362528,-0.22,-3.38,8.89,0.4488888888888889,0.3022222222222222,-0.6677777777777778,2.375,-4.0625,42.875
1589552235.9421835,-0.23,-3.39,8.93,0.44222222222222224,0.29444444444444445,-0.6733333333333333,0.5,-5.3125,42.75
1589552235.9545007,-0.26,-3.42,8.98,0.44222222222222224,0.29444444444444445,-0.6733333333333333,-0.625,-7.25,47.75
1589552235.9614227,-0.27,-3.39,8.82,0.44222222222222224,0.29444444444444445,-0.6733333333333333,3.25,-8.0,44.375
1589552235.9753387,-0.31,-3.45,8.84,0.44222222222222224,0.29444444444444445,-0.6733333333333333,-0.5,-0.4375,40.1875
1589552235.98309,-0.26,-3.46,8.89,0.44222222222222224,0.29444444444444445,-0.6733333333333333,-1.125,2.5625,43.875
1589552235.9939,-0.25,-3.45,8.92,0.4811111111111111,0.2888888888888889,-0.6822222222222222,1.5,5.1875,37.9375
1589552236.0006714,-0.29,-3.47,8.92,0.4811111111111111,0.2888888888888889,-0.6822222222222222,-4.25,-7.25,43.25
1589552236.0110724,-0.3,-3.48,8.78,0.4811111111111111,0.2888888888888889,-0.6822222222222222,-2.0,0.1875,44.125
1589552236.0218046,-0.37,-3.48,8.87,0.4811111111111111,0.2888888888888889,-0.6822222222222222,-0.875,1.8125,38.9375
1589552236.0334346,-0.38,-3.44,8.86,0.4811111111111111,0.2888888888888889,-0.6822222222222222,5.125,0.1875,32.375
1589552236.0405338,-0.33,-3.42,8.89,0.4622222222222222,0.2577777777777778,-0.6944444444444444,0.625,-1.0625,44.0
1589552236.0508196,-0.4,-3.43,8.85,0.4622222222222222,0.2577777777777778,-0.6944444444444444,3.5,2.8125,42.0
1589552236.0615866,-0.4,-3.45,8.79,0.4622222222222222,0.2577777777777778,-0.6944444444444444,1.0,-2.8125,36.3125
1589552236.0742846,-0.42,-3.51,8.96,0.4622222222222222,0.2577777777777778,-0.6944444444444444,4.0,3.9375,25.8125
1589552236.0876935,-0.45,-3.47,8.84,0.4622222222222222,0.2577777777777778,-0.6944444444444444,5.0,4.3125,24.8125
1589552236.0940268,-0.5,-3.39,8.96,0.4755555555555556,0.25,-0.7155555555555555,5.25,-1.0625,29.0
1589552236.106503,-0.52,-3.42,8.89,0.4755555555555556,0.25,-0.7155555555555555,-6.125,-10.5,33.75
1589552236.112332,-0.62,-3.47,8.82,0.4755555555555556,0.25,-0.7155555555555555,1.75,-1.3125,32.75
1589552236.1253872,-0.64,-3.42,8.9,0.4755555555555556,0.25,-0.7155555555555555,1.375,-0.1875,36.5625
1589552236.1340106,-0.58,-3.32,8.94,0.4755555555555556,0.25,-0.7155555555555555,-0.625,-7.25,48.875
1589552236.1445706,-0.63,-3.42,8.88,0.4811111111111111,0.25,-0.7088888888888889,-0.75,-3.9375,43.0
1589552236.1521804,-0.62,-3.46,8.93,0.4811111111111111,0.25,-0.7088888888888889,1.75,-4.6875,41.6875
1589552236.1646068,-0.69,-3.49,8.84,0.4811111111111111,0.25,-0.7088888888888889,-4.5,-0.6875,46.75
1589552236.1723301,-0.67,-3.45,8.84,0.4811111111111111,0.25,-0.7088888888888889,6.125,-6.1875,42.0
1589552236.184364,-0.71,-3.54,8.94,0.4811111111111111,0.25,-0.7088888888888889,2.75,6.1875,43.625
1589552236.1918182,-0.73,-3.54,8.94,0.4888888888888889,0.22333333333333333,-0.7155555555555555,-5.875,-4.8125,40.6875
1589552236.2028253,-0.74,-3.49,8.95,0.4888888888888889,0.22333333333333333,-0.7155555555555555,3.375,-2.3125,36.1875
1589552236.2132795,-0.76,-3.51,8.85,0.4888888888888889,0.22333333333333333,-0.7155555555555555,4.5,-4.1875,33.625
1589552236.2252667,-0.76,-3.49,8.83,0.4888888888888889,0.22333333333333333,-0.7155555555555555,-1.0,2.3125,30.0
1589552236.2392988,-0.8,-3.49,8.95,0.4888888888888889,0.22333333333333333,-0.7155555555555555,0.875,-2.3125,31.25
1589552236.2456498,-0.78,-3.36,8.94,0.4888888888888889,0.22333333333333333,-0.7588888888888888,-6.125,-5.9375,46.75
1589552236.2559671,-0.8,-3.43,8.97,0.4888888888888889,0.22333333333333333,-0.7588888888888888,1.0,0.0625,38.4375
1589552236.2624552,-0.79,-3.38,8.84,0.4888888888888889,0.22333333333333333,-0.7588888888888888,-2.25,-2.3125,44.0
1589552236.2758265,-0.84,-3.48,8.91,0.4888888888888889,0.22333333333333333,-0.7588888888888888,-4.125,-3.8125,41.1875
1589552236.2846367,-0.81,-3.3,8.82,0.4888888888888889,0.22333333333333333,-0.7588888888888888,0.5,-2.9375,39.5625
1589552236.2958035,-0.93,-3.47,9.02,0.4955555555555556,0.20444444444444448,-0.7588888888888888,2.5,-0.8125,35.3125
1589552236.3023598,-0.98,-3.61,8.78,0.4955555555555556,0.20444444444444448,-0.7588888888888888,-5.5,-2.3125,45.625
1589552236.3126779,-0.98,-3.56,8.87,0.4955555555555556,0.20444444444444448,-0.7588888888888888,-3.875,-2.8125,47.5
1589552236.3236642,-1.04,-3.63,8.96,0.4955555555555556,0.20444444444444448,-0.7588888888888888,-0.625,-1.3125,38.1875
1589552236.3363323,-1.08,-3.61,8.82,0.4955555555555556,0.20444444444444448,-0.7588888888888888,-1.125,-4.8125,42.625
1589552236.3419595,-1.13,-3.6,8.99,0.4888888888888889,0.19,-0.7866666666666666,0.125,-3.6875,40.1875
1589552236.3535185,-1.09,-3.59,8.89,0.4888888888888889,0.19,-0.7866666666666666,-6.625,-4.1875,53.8125
1589552236.3629088,-1.07,-3.47,8.83,0.4888888888888889,0.19,-0.7866666666666666,2.125,3.9375,32.0
1589552236.3731046,-1.17,-3.61,8.84,0.4888888888888889,0.19,-0.7866666666666666,0.625,0.0625,46.375
1589552236.384912,-1.23,-3.64,8.92,0.4888888888888889,0.19,-0.7866666666666666,1.75,-6.0625,38.9375
1589552236.3971395,-1.27,-3.62,8.98,0.4811111111111111,0.16444444444444445,-0.8222222222222222,-0.125,-7.0,47.125
1589552236.4041634,-1.28,-3.58,9.01,0.4811111111111111,0.16444444444444445,-0.8222222222222222,-1.5,1.3125,35.8125
1589552236.4130638,-1.41,-3.68,8.85,0.4811111111111111,0.16444444444444445,-0.8222222222222222,1.0,2.3125,48.5
1589552236.428609,-1.44,-3.73,8.91,0.4811111111111111,0.16444444444444445,-0.8222222222222222,-3.625,1.4375,56.625
1589552236.435485,-1.48,-3.72,8.9,0.4811111111111111,0.16444444444444445,-0.8222222222222222,1.75,-5.0625,57.75
1589552236.4431312,-1.55,-3.71,8.94,0.5077777777777778,0.12222222222222222,-0.8366666666666667,1.375,-4.9375,43.125
1589552236.4553964,-1.55,-3.75,8.93,0.5077777777777778,0.12222222222222222,-0.8366666666666667,1.25,7.75,52.6875
1589552236.4680562,-1.6,-3.73,8.82,0.5077777777777778,0.12222222222222222,-0.8366666666666667,2.125,-2.8125,66.8125
1589552236.4740465,-1.64,-3.79,8.85,0.5077777777777778,0.12222222222222222,-0.8366666666666667,-2.875,-5.4375,63.3125
1589552236.4859207,-1.64,-3.69,8.94,0.5077777777777778,0.12222222222222222,-0.8366666666666667,3.25,-3.5625,60.75
1589552236.493701,-1.68,-3.66,9.02,0.5344444444444445,0.06555555555555556,-0.8155555555555556,-7.1875,-9.75,69.3125
1589552236.5044134,-1.63,-3.55,8.78,0.5344444444444445,0.06555555555555556,-0.8155555555555556,1.375,-0.0625,61.375
1589552236.5136833,-1.77,-3.65,8.96,0.5344444444444445,0.06555555555555556,-0.8155555555555556,0.5,-1.1875,71.5
1589552236.5236945,-1.85,-3.68,8.84,0.5344444444444445,0.06555555555555556,-0.8155555555555556,-2.25,-2.6875,58.5
1589552236.5359163,-1.88,-3.69,8.98,0.5344444444444445,0.06555555555555556,-0.8155555555555556,-4.375,0.1875,82.8125
1589552236.5476966,-1.87,-3.62,9.0,0.5166666666666667,0.012222222222222223,-0.8088888888888889,-0.75,-7.375,74.75
1589552236.5541706,-1.96,-3.55,8.9,0.5166666666666667,0.012222222222222223,-0.8088888888888889,0.625,-8.625,73.625
1589552236.564546,-1.98,-3.5,8.86,0.5166666666666667,0.012222222222222223,-0.8088888888888889,-7.5625,-8.375,78.3125
1589552236.5747876,-2.08,-3.55,8.84,0.5166666666666667,0.012222222222222223,-0.8088888888888889,0.625,-2.0625,84.625
1589552236.5863945,-2.05,-3.55,8.94,0.5166666666666667,0.012222222222222223,-0.8088888888888889,-0.125,-7.125,74.125
1589552236.5944266,-2.07,-3.48,8.91,0.5188888888888888,-0.03888888888888889,-0.8066666666666666,1.125,-2.9375,78.5625
1589552236.6064394,-2.14,-3.49,9.01,0.5188888888888888,-0.03888888888888889,-0.8066666666666666,-3.125,-1.0625,88.125
1589552236.6141338,-2.17,-3.43,8.79,0.5188888888888888,-0.03888888888888889,-0.8066666666666666,-0.25,-6.6875,89.75
1589552236.6247704,-2.23,-3.37,9.02,0.5188888888888888,-0.03888888888888889,-0.8066666666666666,-1.0,2.1875,93.1875
1589552236.636523,-2.21,-3.3,8.84,0.5188888888888888,-0.03888888888888889,-0.8066666666666666,3.25,-5.1875,101.75
1589552236.643919,-2.34,-3.45,9.06,0.4666666666666667,-0.1288888888888889,-0.7777777777777778,-0.75,-4.9375,99.0
1589552236.6554961,-2.21,-3.26,8.94,0.4666666666666667,-0.1288888888888889,-0.7777777777777778,0.5,-9.0,100.5
1589552236.6641765,-2.21,-3.13,8.85,0.4666666666666667,-0.1288888888888889,-0.7777777777777778,1.25,-4.9375,103.625
1589552236.6781714,-2.37,-3.23,8.99,0.4666666666666667,-0.1288888888888889,-0.7777777777777778,2.625,-7.25,114.75
1589552236.6863544,-2.34,-3.09,8.86,0.4666666666666667,-0.1288888888888889,-0.7777777777777778,-0.625,-3.4375,104.5
1589552236.6946628,-2.36,-3.05,8.9,0.4455555555555555,-0.14555555555555555,-0.7377777777777778,-4.125,-11.625,108.6875
1589552236.705102,-2.24,-2.96,8.92,0.4455555555555555,-0.14555555555555555,-0.7377777777777778,3.25,-4.1875,107.3125
1589552236.7173624,-2.18,-2.88,9.1,0.4455555555555555,-0.14555555555555555,-0.7377777777777778,1.125,-2.3125,98.0
1589552236.7245562,-2.19,-2.76,8.6,0.4455555555555555,-0.14555555555555555,-0.7377777777777778,-1.375,-8.25,92.6875
1589552236.7359636,-2.68,-2.98,9.17,0.4455555555555555,-0.14555555555555555,-0.7377777777777778,-5.125,-9.75,99.75
1589552236.7440484,-2.54,-2.8,8.83,0.44222222222222224,-0.14666666666666667,-0.7022222222222222,6.25,-4.6875,93.8125
1589552236.7559247,-2.77,-2.88,9.06,0.44222222222222224,-0.14666666666666667,-0.7022222222222222,4.75,-6.8125,94.1875
1589552236.764738,-2.67,-2.74,8.95,0.44222222222222224,-0.14666666666666667,-0.7022222222222222,3.75,-7.25,97.6875
1589552236.77423,-2.84,-2.73,8.85,0.44222222222222224,-0.14666666666666667,-0.7022222222222222,3.375,-4.8125,100.75
1589552236.7881186,-2.73,-2.64,9.05,0.44222222222222224,-0.14666666666666667,-0.7022222222222222,-3.125,-5.1875,82.9375
1589552236.794917,-2.87,-2.64,9.06,0.44222222222222224,-0.15555555555555556,-0.6877777777777778,1.75,-1.9375,99.75
1589552236.8089955,-2.53,-2.3,8.74,0.44222222222222224,-0.15555555555555556,-0.6877777777777778,2.25,-7.625,92.3125
1589552236.8152938,-2.51,-2.29,9.23,0.44222222222222224,-0.15555555555555556,-0.6877777777777778,2.0,-2.5625,89.375
1589552236.8285868,-2.71,-2.28,8.92,0.44222222222222224,-0.15555555555555556,-0.6877777777777778,-0.25,-3.3125,88.375
1589552236.83695,-2.6,-2.12,8.74,0.44222222222222224,-0.15555555555555556,-0.6877777777777778,-2.875,2.1875,89.125
1589552236.8485765,-2.87,-2.19,9.03,0.4488888888888889,-0.1688888888888889,-0.6588888888888889,3.125,2.1875,82.4375
1589552236.8548846,-2.93,-2.16,8.97,0.4488888888888889,-0.1688888888888889,-0.6588888888888889,-2.625,-5.6875,87.125
1589552236.8659143,-3.24,-2.26,9.03,0.4488888888888889,-0.1688888888888889,-0.6588888888888889,2.875,-1.3125,88.0
1589552236.8748305,-3.46,-2.27,9.15,0.4488888888888889,-0.1688888888888889,-0.6588888888888889,-3.625,-2.9375,76.0
1589552236.8869796,-3.57,-2.22,8.99,0.4488888888888889,-0.1688888888888889,-0.6588888888888889,-1.75,-0.6875,83.5625
1589552236.894325,-3.18,-2.02,8.96,0.43333333333333335,-0.1955555555555556,-0.6877777777777778,-0.25,-8.375,83.1875
1589552236.9064093,-3.21,-2.0,9.2,0.43333333333333335,-0.1955555555555556,-0.6877777777777778,2.0,-7.25,84.625
1589552236.9158895,-3.46,-2.04,8.9,0.43333333333333335,-0.1955555555555556,-0.6877777777777778,6.125,-2.1875,80.4375
1589552236.9258387,-3.43,-1.94,8.94,0.43333333333333335,-0.1955555555555556,-0.6877777777777778,3.375,-7.375,95.6875
1589552236.9392474,-3.42,-1.94,9.14,0.43333333333333335,-0.1955555555555556,-0.6877777777777778,5.25,-1.3125,83.5625
1589552236.9449735,-3.06,-1.71,9.13,0.4122222222222222,-0.21666666666666667,-0.68,6.375,-0.9375,86.125
1589552236.9611142,-3.15,-1.7,9.05,0.4122222222222222,-0.21666666666666667,-0.68,2.125,-1.4375,87.25
1589552236.967255,-3.54,-1.74,9.03,0.4122222222222222,-0.21666666666666667,-0.68,-0.625,-6.1875,92.6875
1589552236.9758313,-3.59,-1.74,9.07,0.4122222222222222,-0.21666666666666667,-0.68,-3.75,-10.5,97.4375
1589552236.9870436,-2.76,-1.4,8.37,0.4122222222222222,-0.21666666666666667,-0.68,-5.625,-10.375,89.125
1589552236.9974914,-2.29,-1.21,9.78,0.4033333333333333,-0.25555555555555554,-0.6877777777777778,6.75,8.0,67.1875
1589552237.0054047,-2.74,-1.08,8.8,0.4033333333333333,-0.25555555555555554,-0.6877777777777778,5.625,3.5625,54.3125
1589552237.0196838,-2.88,-1.28,9.0,0.4033333333333333,-0.25555555555555554,-0.6877777777777778,1.5,2.5625,46.875
1589552237.025964,-3.53,-1.5,9.01,0.4033333333333333,-0.25555555555555554,-0.6877777777777778,-1.5,-2.9375,65.4375
1589552237.038917,-3.57,-1.31,8.95,0.4033333333333333,-0.25555555555555554,-0.6877777777777778,-1.875,-8.25,56.125
1589552237.0454974,-3.52,-1.21,9.19,0.4088888888888889,-0.2733333333333333,-0.6933333333333334,3.875,-5.5625,52.6875
1589552237.0558145,-3.27,-1.17,9.3,0.4088888888888889,-0.2733333333333333,-0.6933333333333334,1.5,-4.1875,52.0625
1589552237.0659554,-3.44,-1.14,8.94,0.4088888888888889,-0.2733333333333333,-0.6933333333333334,-0.25,0.9375,53.8125
1589552237.0761387,-3.22,-1.06,8.89,0.4088888888888889,-0.2733333333333333,-0.6933333333333334,-5.625,-1.6875,32.375
1589552237.088584,-2.64,-0.96,9.06,0.4088888888888889,-0.2733333333333333,-0.6933333333333334,0.625,-8.125,38.9375
1589552237.0962224,-3.19,-1.14,9.32,0.4,-0.2911111111111111,-0.68,3.75,-4.8125,45.0
1589552237.1117735,-3.08,-1.02,9.06,0.4,-0.2911111111111111,-0.68,0.625,-5.8125,36.5625
1589552237.1177065,-2.96,-0.99,8.9,0.4,-0.2911111111111111,-0.68,-1.625,-0.5625,33.875
1589552237.1260386,-2.98,-0.96,9.22,0.4,-0.2911111111111111,-0.68,4.25,9.25,28.625
1589552237.1382596,-3.41,-0.95,8.75,0.4,-0.2911111111111111,-0.68,4.75,-8.875,27.5625
1589552237.1465387,-3.56,-1.02,9.26,0.3855555555555555,-0.3377777777777778,-0.7144444444444444,-2.25,-4.1875,43.875
1589552237.1569474,-3.5,-0.99,9.21,0.3855555555555555,-0.3377777777777778,-0.7144444444444444,2.375,-1.9375,31.5
1589552237.1707082,-3.31,-0.92,9.29,0.3855555555555555,-0.3377777777777778,-0.7144444444444444,0.0,-3.6875,25.5625
1589552237.1769323,-2.89,-0.88,9.14,0.3855555555555555,-0.3377777777777778,-0.7144444444444444,-4.125,-0.6875,33.875
1589552237.1921566,-3.0,-0.82,8.84,0.3855555555555555,-0.3377777777777778,-0.7144444444444444,5.125,-3.4375,32.375
1589552237.1996756,-3.11,-0.83,9.19,0.3711111111111111,-0.38222222222222224,-0.7144444444444444,0.75,3.5625,21.9375
1589552237.2107098,-3.07,-0.9,9.18,0.3711111111111111,-0.38222222222222224,-0.7144444444444444,-0.25,-0.4375,18.0
1589552237.217555,-2.87,-0.79,8.86,0.3711111111111111,-0.38222222222222224,-0.7144444444444444,-1.0,-0.3125,18.25
1589552237.2279005,-2.97,-0.8,9.07,0.3711111111111111,-0.38222222222222224,-0.7144444444444444,2.875,3.0625,8.6875
1589552237.2404606,-3.19,-0.79,9.05,0.3711111111111111,-0.38222222222222224,-0.7144444444444444,2.75,-2.6875,11.0625
1589552237.2494345,-3.09,-0.76,9.19,0.37333333333333335,-0.4577777777777778,-0.7022222222222222,-1.375,5.1875,5.875
1589552237.2580767,-3.17,-0.81,9.29,0.37333333333333335,-0.4577777777777778,-0.7022222222222222,3.875,-9.625,9.4375
1589552237.2692919,-2.89,-0.69,8.54,0.37333333333333335,-0.4577777777777778,-0.7022222222222222,6.625,-0.8125,-12.0625
1589552237.2782848,-2.99,-0.76,9.17,0.37333333333333335,-0.4577777777777778,-0.7022222222222222,1.625,3.1875,-12.5625
1589552237.289918,-3.33,-0.88,9.34,0.37333333333333335,-0.4577777777777778,-0.7022222222222222,3.0,4.1875,-18.625
1589552237.297428,-2.44,-0.66,8.91,0.3233333333333333,-0.7144444444444444,-0.6944444444444444,0.625,-4.0625,-28.875
1589552237.3077116,-2.7,-0.8,9.43,0.3233333333333333,-0.7144444444444444,-0.6944444444444444,5.375,1.9375,-43.25
1589552237.3198655,-3.02,-0.87,9.29,0.3233333333333333,-0.7144444444444444,-0.6944444444444444,5.5,3.8125,-46.375
1589552237.3271327,-2.61,-0.73,8.52,0.3233333333333333,-0.7144444444444444,-0.6944444444444444,-2.75,5.3125,-57.5
1589552237.3434298,-2.48,-0.76,9.34,0.3233333333333333,-0.7144444444444444,-0.6944444444444444,1.125,-4.1875,-64.6875
1589552237.349775,-3.03,-1.0,9.06,0.4,-1.3022222222222222,-0.3711111111111111,3.875,2.4375,-61.25
1589552237.3610673,-3.03,-0.96,9.16,0.4,-1.3022222222222222,-0.3711111111111111,-2.25,-2.0625,-76.5
1589552237.3686912,-2.91,-1.0,9.06,0.4,-1.3022222222222222,-0.3711111111111111,-3.375,-0.1875,-70.375
1589552237.3804646,-2.18,-0.99,9.33,0.4,-1.3022222222222222,-0.3711111111111111,1.0,7.625,-88.0
1589552237.3891985,-1.9,-0.91,8.71,0.4,-1.3022222222222222,-0.3711111111111111,-1.5,2.9375,-100.0
1589552237.4007714,-2.26,-1.1,9.12,0.7088888888888889,-0.9333333333333332,-0.6877777777777778,3.25,2.4375,-109.0625
1589552237.4072168,-2.79,-1.32,9.28,0.7088888888888889,-0.9333333333333332,-0.6877777777777778,3.25,0.9375,-111.6875
1589552237.417598,-2.9,-1.44,8.99,0.7088888888888889,-0.9333333333333332,-0.6877777777777778,2.125,4.4375,-110.3125
1589552237.4281626,-2.7,-1.49,9.16,0.7088888888888889,-0.9333333333333332,-0.6877777777777778,-0.125,6.5625,-114.875
1589552237.4392445,-2.72,-1.5,9.0,0.7088888888888889,-0.9333333333333332,-0.6877777777777778,1.0,2.9375,-108.0625
1589552237.4482894,-2.81,-1.61,9.05,0.5466666666666666,-0.4622222222222222,-0.78,3.375,3.6875,-119.5625
1589552237.4574027,-2.76,-1.8,9.23,0.5466666666666666,-0.4622222222222222,-0.78,-1.0,6.6875,-120.1875
1589552237.4629207,-2.76,-1.8,9.23,0.5466666666666666,-0.4622222222222222,-0.78,-1.0,6.6875,-120.1875
1589552237.474283,-2.55,-1.71,8.8,0.5466666666666666,-0.4622222222222222,-0.78,-6.875,2.9375,-123.8125
1589552237.480948,-3.04,-1.96,8.87,0.5466666666666666,-0.4622222222222222,-0.78,-6.875,2.1875,-123.9375
1589552237.4943619,-3.04,-2.14,9.09,0.5466666666666666,-0.4622222222222222,-0.78,0.375,1.3125,-129.75
1589552237.5006135,-2.65,-2.02,8.92,0.54,-0.26222222222222225,-0.7733333333333333,-3.5,0.4375,-137.3125
1589552237.5082645,-2.63,-2.13,9.21,0.54,-0.26222222222222225,-0.7733333333333333,2.25,7.0,-141.875
1589552237.5183668,-2.75,-2.26,8.93,0.54,-0.26222222222222225,-0.7733333333333333,-5.5,7.375,-139.3125
1589552237.5298398,-2.48,-2.45,9.18,0.54,-0.26222222222222225,-0.7733333333333333,-7.1875,9.25,-142.125
1589552237.5398269,-2.37,-2.51,8.97,0.54,-0.26222222222222225,-0.7733333333333333,-12.4375,3.8125,-145.25
1589552237.550389,-2.59,-2.7,9.07,0.5511111111111111,-0.1988888888888889,-0.7655555555555555,2.5,8.875,-149.4375
1589552237.5581431,-2.47,-2.9,9.0,0.5511111111111111,-0.1988888888888889,-0.7655555555555555,2.125,8.625,-165.4375
1589552237.5712373,-2.44,-2.99,8.92,0.5511111111111111,-0.1988888888888889,-0.7655555555555555,-5.375,4.4375,-163.9375
1589552237.5790794,-2.57,-3.18,8.9,0.5511111111111111,-0.1988888888888889,-0.7655555555555555,5.375,7.0,-160.5
1589552237.5902236,-2.5,-3.3,8.96,0.5511111111111111,-0.1988888888888889,-0.7655555555555555,-2.125,12.125,-165.1875
1589552237.5976088,-2.75,-3.41,9.15,0.5877777777777777,-0.12,-0.7911111111111111,3.5,12.875,-160.75
1589552237.608737,-2.51,-3.33,8.35,0.5877777777777777,-0.12,-0.7911111111111111,-1.875,-2.3125,-157.125
1589552237.619194,-2.67,-3.6,9.25,0.5877777777777777,-0.12,-0.7911111111111111,-1.625,2.8125,-159.75
1589552237.6320195,-2.55,-3.68,9.17,0.5877777777777777,-0.12,-0.7911111111111111,-1.875,3.5625,-159.625
1589552237.6452315,-2.23,-3.74,8.89,0.5877777777777777,-0.12,-0.7911111111111111,-1.5,-2.4375,-161.8125
1589552237.6512947,-2.13,-3.71,8.88,0.59,-0.05333333333333334,-0.7766666666666666,-4.75,5.1875,-157.125
1589552237.658639,-1.91,-3.66,8.97,0.59,-0.05333333333333334,-0.7766666666666666,2.125,6.5625,-160.125
1589552237.6684706,-2.1,-3.97,9.06,0.59,-0.05333333333333334,-0.7766666666666666,-3.125,3.8125,-153.4375
1589552237.6820152,-2.03,-3.89,8.78,0.59,-0.05333333333333334,-0.7766666666666666,-6.25,8.875,-154.75
1589552237.6908426,-1.75,-3.63,8.85,0.59,-0.05333333333333334,-0.7766666666666666,-0.625,7.5,-149.4375
1589552237.7029335,-1.45,-3.35,8.55,0.5877777777777777,0.03555555555555556,-0.7833333333333333,0.625,3.4375,-147.5625
1589552237.7095196,-21.76,-24.1,20.59,0.5877777777777777,0.03555555555555556,-0.7833333333333333,20.5,67.125,-108.9375
1589552237.7218535,-24.16,-23.73,-0.03,0.5877777777777777,0.03555555555555556,-0.7833333333333333,-29.875,16.6875,-90.375
1589552237.7298708,5.63,6.98,1.76,0.5877777777777777,0.03555555555555556,-0.7833333333333333,20.0,-92.375,-78.8125
1589552237.74206,3.64,0.12,19.26,0.5877777777777777,0.03555555555555556,-0.7833333333333333,29.875,44.6875,-71.0
1589552237.74825,1.23,1.39,7.48,0.6055555555555555,0.12444444444444445,-0.7655555555555555,-18.375,-12.25,-52.3125
1589552237.7592616,1.23,1.39,7.48,0.6055555555555555,0.12444444444444445,-0.7655555555555555,-18.375,-12.25,-52.3125
1589552237.7691894,1.89,-0.74,13.01,0.6055555555555555,0.12444444444444445,-0.7655555555555555,9.4375,17.3125,-26.0625
1589552237.7808206,-0.62,-1.64,6.16,0.6055555555555555,0.12444444444444445,-0.7655555555555555,-19.375,-17.9375,-18.875
1589552237.7969599,-0.66,-3.1,10.81,0.6055555555555555,0.12444444444444445,-0.7655555555555555,7.9375,13.0,-3.25
1589552237.803151,-0.53,-2.53,8.86,0.5822222222222222,0.16,-0.7422222222222222,3.5,-3.1875,-4.625
1589552237.810783,-0.83,-2.55,9.63,0.5822222222222222,0.16,-0.7422222222222222,-2.375,-0.3125,-0.25
1589552237.8211644,-0.92,-2.49,8.8,0.5822222222222222,0.16,-0.7422222222222222,4.0,2.9375,-3.75
1589552237.8347974,-1.07,-2.63,9.02,0.5822222222222222,0.16,-0.7422222222222222,2.5,1.5625,7.9375
1589552237.8415885,-1.04,-2.62,8.92,0.5822222222222222,0.16,-0.7422222222222222,2.125,-4.3125,-6.75
1589552237.8527966,-1.08,-2.72,9.28,0.5933333333333334,0.17555555555555555,-0.7477777777777778,-0.875,2.3125,9.9375
1589552237.8596008,-1.04,-2.64,9.12,0.5933333333333334,0.17555555555555555,-0.7477777777777778,4.375,-6.4375,7.4375
1589552237.866268,-1.04,-2.64,9.12,0.5933333333333334,0.17555555555555555,-0.7477777777777778,4.375,-6.4375,7.4375
1589552237.879919,-3.83,-9.75,6.72,0.5933333333333334,0.17555555555555555,-0.7477777777777778,22.4375,-0.5625,-20.125
1589552237.8918185,-0.33,-0.71,9.02,0.5933333333333334,0.17555555555555555,-0.7477777777777778,-2.125,-3.1875,-8.3125
1589552237.8997073,-1.52,-2.19,7.86,0.5966666666666667,0.17777777777777778,-0.7566666666666667,-0.625,-9.25,-1.25
1589552237.9133127,-1.1,-2.59,9.63,0.5966666666666667,0.17777777777777778,-0.7566666666666667,3.125,1.9375,1.875
1589552237.919948,-3.33,-7.06,7.78,0.5966666666666667,0.17777777777777778,-0.7566666666666667,-3.0,-14.3125,-11.5625
1589552237.930095,-0.85,-2.73,9.43,0.5966666666666667,0.17777777777777778,-0.7566666666666667,-2.25,4.0625,-0.5
1589552237.9359171,-0.85,-2.73,9.43,0.5966666666666667,0.17777777777777778,-0.7566666666666667,-2.25,4.0625,-0.5
1589552237.948157,-1.65,-3.88,9.04,0.5966666666666667,0.17777777777777778,-0.7566666666666667,5.375,3.0625,-0.25
1589552237.9534185,-1.74,-3.89,8.61,0.5911111111111111,0.1988888888888889,-0.7444444444444445,3.25,4.3125,-3.625
1589552237.9607663,-1.63,-3.81,8.89,0.5911111111111111,0.1988888888888889,-0.7444444444444445,-0.125,0.9375,6.0
1589552237.9727714,-1.67,-3.82,8.82,0.5911111111111111,0.1988888888888889,-0.7444444444444445,-3.125,-6.6875,2.25
1589552237.9816108,-1.6,-3.85,8.95,0.5911111111111111,0.1988888888888889,-0.7444444444444445,6.375,1.3125,-2.5
1589552237.993458,-1.66,-3.85,8.83,0.5911111111111111,0.1988888888888889,-0.7444444444444445,1.75,3.5625,0.0
1589552238.00585,-1.66,-3.93,8.93,0.5911111111111111,0.19111111111111112,-0.7566666666666667,3.25,-2.5625,3.375
1589552238.0122662,-1.64,-3.87,8.95,0.5911111111111111,0.19111111111111112,-0.7566666666666667,-1.375,5.1875,1.875
1589552238.0259635,-1.65,-3.87,8.82,0.5911111111111111,0.19111111111111112,-0.7566666666666667,1.625,-3.5625,-7.9375
1589552238.0324955,-1.65,-3.85,8.94,0.5911111111111111,0.19111111111111112,-0.7566666666666667,-6.375,-5.3125,-6.375
1589552238.0447454,-1.65,-3.86,8.9,0.5911111111111111,0.19111111111111112,-0.7566666666666667,2.75,4.1875,-5.625
1589552238.0513597,-1.63,-3.88,8.94,0.6077777777777778,0.2,-0.7566666666666667,-2.125,3.5625,-3.25
1589552238.062293,-1.63,-3.88,8.92,0.6077777777777778,0.2,-0.7566666666666667,4.0,2.1875,-6.625
1589552238.0719993,-1.66,-3.86,8.81,0.6077777777777778,0.2,-0.7566666666666667,-5.75,-3.4375,0.375
1589552238.0851994,-1.63,-3.87,8.94,0.6077777777777778,0.2,-0.7566666666666667,-5.125,-1.5625,-8.5625
1589552238.0938144,-1.63,-3.86,8.97,0.6077777777777778,0.2,-0.7566666666666667,2.25,6.6875,5.0
1589552238.1017294,-1.62,-3.89,8.9,0.5877777777777777,0.20555555555555555,-0.7333333333333333,-2.75,4.0625,-5.875
1589552238.1120734,-1.68,-3.88,8.83,0.5877777777777777,0.20555555555555555,-0.7333333333333333,2.25,-1.1875,-5.25
1589552238.123434,-1.64,-3.88,8.85,0.5877777777777777,0.20555555555555555,-0.7333333333333333,1.75,1.0625,8.3125
1589552238.13237,-1.63,-3.81,8.88,0.5877777777777777,0.20555555555555555,-0.7333333333333333,1.75,-1.6875,7.4375
1589552238.1440663,-1.64,-3.83,8.99,0.5877777777777777,0.20555555555555555,-0.7333333333333333,2.5,4.4375,6.375
1589552238.1556606,-1.66,-3.85,8.9,0.6022222222222222,0.19333333333333333,-0.7477777777777778,-4.875,-2.9375,1.625
1589552238.1618855,-1.66,-3.91,8.92,0.6022222222222222,0.19333333333333333,-0.7477777777777778,-2.625,5.6875,1.75
1589552238.1760178,-1.62,-3.88,8.84,0.6022222222222222,0.19333333333333333,-0.7477777777777778,7.8125,0.1875,4.25
1589552238.1821446,-1.62,-3.86,8.91,0.6022222222222222,0.19333333333333333,-0.7477777777777778,-0.5,3.3125,-7.3125
1589552238.19759,-1.61,-3.86,8.96,0.6022222222222222,0.19333333333333333,-0.7477777777777778,3.375,1.3125,5.75
1589552238.20265,-1.65,-3.87,8.96,0.5777777777777777,0.19333333333333333,-0.7555555555555555,-1.375,3.8125,-2.25
1589552238.2138286,-1.67,-3.92,8.84,0.5777777777777777,0.19333333333333333,-0.7555555555555555,-4.125,-5.3125,-2.125
1589552238.2224786,-1.64,-3.89,8.83,0.5777777777777777,0.19333333333333333,-0.7555555555555555,-1.0,0.9375,-7.4375
1589552238.2366526,-1.64,-3.86,8.87,0.5777777777777777,0.19333333333333333,-0.7555555555555555,-1.25,-2.3125,-9.3125
1589552238.2445624,-1.65,-3.86,8.96,0.5777777777777777,0.19333333333333333,-0.7555555555555555,-2.875,2.5625,0.125
1589552238.25542,-1.65,-3.87,8.94,0.5955555555555555,0.19333333333333333,-0.7211111111111111,-1.875,-3.1875,-5.25
1589552238.2627199,-1.65,-3.86,8.94,0.5955555555555555,0.19333333333333333,-0.7211111111111111,7.8125,2.3125,-6.75
1589552238.2724874,-1.65,-3.88,8.78,0.5955555555555555,0.19333333333333333,-0.7211111111111111,1.75,-5.5625,-6.875
1589552238.2835093,-1.63,-3.83,8.92,0.5955555555555555,0.19333333333333333,-0.7211111111111111,-2.375,3.4375,-11.8125
1589552238.2947404,-1.62,-3.85,8.96,0.5955555555555555,0.19333333333333333,-0.7211111111111111,5.5,2.4375,0.0
1589552238.3031616,-1.65,-3.85,8.96,0.5955555555555555,0.19333333333333333,-0.7477777777777778,4.25,7.25,0.25
1589552238.3147647,-1.63,-3.88,8.94,0.5955555555555555,0.19333333333333333,-0.7477777777777778,1.5,3.1875,4.125
1589552238.323765,-1.65,-3.9,8.78,0.5955555555555555,0.19333333333333333,-0.7477777777777778,3.375,-3.1875,-0.5
1589552238.3357532,-1.65,-3.88,8.87,0.5955555555555555,0.19333333333333333,-0.7477777777777778,6.375,4.1875,10.5625
1589552238.3491232,-1.62,-3.84,8.94,0.5955555555555555,0.19333333333333333,-0.7477777777777778,0.5,1.9375,3.375
1589552238.3562474,-1.63,-3.85,9.0,0.59,0.19333333333333333,-0.7333333333333333,-4.25,6.0625,-8.0625
1589552238.3642495,-1.67,-3.87,8.92,0.59,0.19333333333333333,-0.7333333333333333,4.0,4.3125,-7.3125
1589552238.3737054,-1.64,-3.9,8.78,0.59,0.19333333333333333,-0.7333333333333333,0.375,2.8125,-2.625
1589552238.387458,-1.65,-3.89,8.83,0.59,0.19333333333333333,-0.7333333333333333,1.25,1.0625,-1.375
1589552238.39546,-1.64,-3.86,8.98,0.59,0.19333333333333333,-0.7333333333333333,-3.75,1.5625,2.625
1589552238.4033306,-1.64,-3.85,8.95,0.59,0.18666666666666668,-0.7422222222222222,-0.5,-1.1875,-7.1875
1589552238.4135914,-1.64,-3.86,8.95,0.59,0.18666666666666668,-0.7422222222222222,-1.75,3.1875,5.875
1589552238.4228954,-1.66,-3.89,8.81,0.59,0.18666666666666668,-0.7422222222222222,-4.125,2.3125,-2.875
1589552238.4334767,-1.63,-3.88,8.87,0.59,0.18666666666666668,-0.7422222222222222,-2.875,0.0625,-1.375
