time,acc_x,acc_y,acc_z,mag_x,mag_y,mag_z,gyr_x,gyr_y,gyr_z
1589552544.1443055,0.19,-4.24,8.8,0.4744444444444445,0.3466666666666667,-0.5688888888888889,-0.375,-2.5625,0.75
1589552544.1509097,0.22,-4.29,8.75,0.4744444444444445,0.3466666666666667,-0.5688888888888889,3.25,-5.8125,8.9375
1589552544.1645985,0.24,-4.27,8.8,0.4744444444444445,0.3466666666666667,-0.5688888888888889,6.75,2.8125,-7.4375
1589552544.1723714,0.24,-4.27,8.81,0.4744444444444445,0.3466666666666667,-0.5688888888888889,-3.625,0.0625,4.25
1589552544.1837099,0.24,-4.28,8.85,0.4633333333333333,0.3533333333333333,-0.5966666666666667,-2.125,0.9375,-4.0
1589552544.190016,0.24,-4.28,8.83,0.4633333333333333,0.3533333333333333,-0.5966666666666667,-4.5,5.3125,-3.125
1589552544.2013044,0.23,-4.28,8.75,0.4633333333333333,0.3533333333333333,-0.5966666666666667,-2.75,4.4375,8.5625
1589552544.2107894,0.22,-4.26,8.73,0.4633333333333333,0.3533333333333333,-0.5966666666666667,-2.125,2.8125,7.3125
1589552544.2228515,0.26,-4.25,8.87,0.4633333333333333,0.3533333333333333,-0.5966666666666667,0.875,4.1875,-5.375
1589552544.2300446,0.26,-4.25,8.84,0.4744444444444445,0.3388888888888889,-0.5811111111111111,-3.75,-3.4375,2.75
1589552544.2427206,0.24,-4.26,8.87,0.4744444444444445,0.3388888888888889,-0.5811111111111111,-4.375,6.4375,3.625
1589552544.2505758,0.22,-4.24,8.75,0.4744444444444445,0.3388888888888889,-0.5811111111111111,3.625,0.0625,-1.0
1589552544.2608118,0.23,-4.27,8.81,0.4744444444444445,0.3388888888888889,-0.5811111111111111,1.0,7.125,2.125
1589552544.2757394,0.22,-4.26,8.81,0.4744444444444445,0.3388888888888889,-0.5811111111111111,-6.75,-2.3125,-0.375
1589552544.2823145,0.23,-4.28,8.86,0.4688888888888889,0.3466666666666667,-0.5811111111111111,3.375,5.0625,-6.75
1589552544.2908888,0.25,-4.28,8.8,0.4688888888888889,0.3466666666666667,-0.5811111111111111,7.8125,1.3125,1.375
1589552544.3011894,0.23,-4.25,8.71,0.4688888888888889,0.3466666666666667,-0.5811111111111111,5.875,-1.9375,-4.625
1589552544.3162491,0.23,-4.24,8.77,0.4688888888888889,0.3466666666666667,-0.5811111111111111,1.25,-3.1875,0.125
1589552544.323211,0.23,-4.24,8.84,0.4688888888888889,0.3466666666666667,-0.5811111111111111,-0.5,-2.5625,1.25
1589552544.3363695,0.23,-4.24,8.86,0.4566666666666666,0.3466666666666667,-0.5688888888888889,7.1875,2.6875,3.875
1589552544.3435144,0.23,-4.25,8.81,0.4566666666666666,0.3466666666666667,-0.5688888888888889,-3.25,-4.1875,-1.0
1589552544.3541665,0.24,-4.3,8.73,0.4566666666666666,0.3466666666666667,-0.5688888888888889,2.0,1.8125,-2.5
1589552544.3611574,0.24,-4.25,8.75,0.4566666666666666,0.3466666666666667,-0.5688888888888889,-2.375,-3.1875,3.625
1589552544.373311,0.22,-4.27,8.79,0.4566666666666666,0.3466666666666667,-0.5688888888888889,7.9375,-0.0625,5.25
1589552544.3809106,0.24,-4.27,8.82,0.4488888888888889,0.3333333333333333,-0.59,0.375,-1.8125,3.25
1589552544.3907912,0.23,-4.27,8.85,0.4488888888888889,0.3333333333333333,-0.59,0.125,-2.1875,12.9375
1589552544.402068,0.21,-4.27,8.7,0.4488888888888889,0.3333333333333333,-0.59,2.0,-4.0625,-3.125
1589552544.4118874,0.23,-4.28,8.79,0.4488888888888889,0.3333333333333333,-0.59,5.75,0.0625,0.875
1589552544.4233096,0.23,-4.26,8.81,0.4488888888888889,0.3333333333333333,-0.59,-4.375,0.8125,-2.375
1589552544.43531,0.21,-4.24,8.8,0.4622222222222222,0.3533333333333333,-0.5688888888888889,-1.75,0.1875,-0.875
1589552544.4443069,0.23,-4.28,8.83,0.4622222222222222,0.3533333333333333,-0.5688888888888889,1.875,2.1875,-3.125
1589552544.453815,0.25,-4.27,8.73,0.4622222222222222,0.3533333333333333,-0.5688888888888889,-0.625,0.0625,6.125
1589552544.4618466,0.25,-4.27,8.77,0.4622222222222222,0.3533333333333333,-0.5688888888888889,-5.5,-2.3125,3.25
1589552544.4733293,0.25,-4.27,8.84,0.4622222222222222,0.3533333333333333,-0.5688888888888889,-2.125,2.5625,-7.0625
1589552544.4807715,0.24,-4.28,8.87,0.4688888888888889,0.3466666666666667,-0.5755555555555556,0.625,-0.8125,-1.375
1589552544.4926345,0.21,-4.26,8.84,0.4688888888888889,0.3466666666666667,-0.5755555555555556,-4.875,-5.0625,5.125
1589552544.5028374,0.23,-4.27,8.76,0.4688888888888889,0.3466666666666667,-0.5755555555555556,-3.625,-1.3125,1.0
1589552544.5129054,0.24,-4.28,8.8,0.4688888888888889,0.3466666666666667,-0.5755555555555556,-6.5,-1.4375,3.0
1589552544.5241992,0.23,-4.28,8.81,0.4688888888888889,0.3466666666666667,-0.5755555555555556,-3.375,-1.9375,1.25
1589552544.5312445,0.23,-4.27,8.83,0.4744444444444445,0.3466666666666667,-0.5688888888888889,-1.375,2.5625,-7.5625
1589552544.5459185,0.24,-4.27,8.74,0.4744444444444445,0.3466666666666667,-0.5688888888888889,1.75,-2.8125,1.25
1589552544.5520597,0.23,-4.27,8.7,0.4744444444444445,0.3466666666666667,-0.5688888888888889,4.0,3.1875,-14.125
1589552544.5638928,0.23,-4.26,8.75,0.4744444444444445,0.3466666666666667,-0.5688888888888889,-0.5,-1.4375,1.25
1589552544.5740461,0.22,-4.27,8.81,0.4744444444444445,0.3466666666666667,-0.5688888888888889,-11.1875,-2.0625,3.0
1589552544.586254,0.22,-4.28,8.84,0.4688888888888889,0.3466666666666667,-0.5966666666666667,-0.625,-2.6875,3.5
1589552544.5958786,0.23,-4.29,8.84,0.4688888888888889,0.3466666666666667,-0.5966666666666667,0.875,4.4375,-13.5625
1589552544.6058526,0.24,-4.26,8.73,0.4688888888888889,0.3466666666666667,-0.5966666666666667,-0.75,0.0625,-4.25
1589552544.6184225,0.24,-4.28,8.8,0.4688888888888889,0.3466666666666667,-0.5966666666666667,-2.125,-4.5625,3.25
1589552544.6237886,0.23,-4.28,8.8,0.4688888888888889,0.3466666666666667,-0.5966666666666667,-3.375,-1.9375,9.9375
1589552544.6317976,0.25,-4.26,8.8,0.44222222222222224,0.3533333333333333,-0.59,1.25,-4.0625,2.25
1589552544.6459188,0.23,-4.27,8.81,0.44222222222222224,0.3533333333333333,-0.59,5.875,1.5625,0.125
1589552544.6532686,0.22,-4.25,8.69,0.44222222222222224,0.3533333333333333,-0.59,4.125,0.5625,1.0
1589552544.6639373,0.23,-4.27,8.74,0.44222222222222224,0.3533333333333333,-0.59,-0.25,-1.0625,-3.375
1589552544.675567,0.24,-4.26,8.82,0.44222222222222224,0.3533333333333333,-0.59,0.375,2.3125,-2.625
1589552544.6824687,0.2,-4.26,8.85,0.4888888888888889,0.3333333333333333,-0.5811111111111111,4.875,2.6875,-3.5
1589552544.6974828,0.21,-4.26,8.86,0.4888888888888889,0.3333333333333333,-0.5811111111111111,-0.75,-5.0625,3.5
1589552544.70368,0.22,-4.27,8.75,0.4888888888888889,0.3333333333333333,-0.5811111111111111,-2.875,-7.25,5.75
1589552544.7154288,0.22,-4.28,8.77,0.4888888888888889,0.3333333333333333,-0.5811111111111111,1.75,-3.3125,-2.75
1589552544.7255108,0.22,-4.26,8.84,0.4888888888888889,0.3333333333333333,-0.5811111111111111,-2.875,2.3125,10.9375
1589552544.7360926,0.21,-4.27,8.81,0.4744444444444445,0.3466666666666667,-0.59,1.5,5.0625,-8.3125
1589552544.7431073,0.22,-4.25,8.82,0.4744444444444445,0.3466666666666667,-0.59,1.0,-2.9375,0.625
1589552544.7535627,0.25,-4.26,8.69,0.4744444444444445,0.3466666666666667,-0.59,-2.375,6.3125,-3.875
1589552544.7634895,0.23,-4.26,8.73,0.4744444444444445,0.3466666666666667,-0.59,-5.0,-1.0625,-2.625
1589552544.774841,0.23,-4.26,8.78,0.4744444444444445,0.3466666666666667,-0.59,-3.625,-1.8125,0.625
1589552544.7824614,0.24,-4.28,8.87,0.4811111111111111,0.3533333333333333,-0.5966666666666667,-1.5,0.3125,-1.5
1589552544.7931175,0.21,-4.28,8.78,0.4811111111111111,0.3533333333333333,-0.5966666666666667,3.625,-0.5625,-3.0
1589552544.8037715,0.23,-4.28,8.74,0.4811111111111111,0.3533333333333333,-0.5966666666666667,-9.8125,-2.0625,9.8125
1589552544.8160088,0.22,-4.24,8.8,0.4811111111111111,0.3533333333333333,-0.5966666666666667,-2.125,2.5625,9.0625
1589552544.8265634,0.18,-4.19,8.83,0.4811111111111111,0.3533333333333333,-0.5966666666666667,2.375,0.9375,-2.125
1589552544.8335161,0.17,-4.15,8.8,0.4811111111111111,0.3333333333333333,-0.5811111111111111,-3.0,-7.875,8.3125
1589552544.8485112,0.11,-4.09,8.77,0.4811111111111111,0.3333333333333333,-0.5811111111111111,1.75,-1.9375,-0.875
1589552544.8546872,0.11,-4.08,8.68,0.4811111111111111,0.3333333333333333,-0.5811111111111111,1.0,-4.6875,-1.625
1589552544.8667815,0.02,-3.94,8.78,0.4811111111111111,0.3333333333333333,-0.5811111111111111,0.75,-7.25,-9.4375
1589552544.8760893,0.0,-3.91,8.89,0.4811111111111111,0.3333333333333333,-0.5811111111111111,-1.25,-0.8125,0.375
1589552544.8870769,0.03,-3.9,8.95,0.4688888888888889,0.3388888888888889,-0.59,-1.25,2.5625,-0.75
1589552544.8943408,0.13,-3.87,8.97,0.4688888888888889,0.3388888888888889,-0.59,3.0,8.375,-2.75
1589552544.904711,0.2,-3.84,8.74,0.4688888888888889,0.3388888888888889,-0.59,-3.75,-5.9375,1.375
1589552544.914384,0.14,-3.8,8.74,0.4688888888888889,0.3388888888888889,-0.59,1.25,-5.5625,-3.375
1589552544.9255533,0.12,-3.75,8.73,0.4688888888888889,0.3388888888888889,-0.59,-2.375,3.6875,-0.625
1589552544.9325604,-0.37,-3.17,8.87,0.4888888888888889,0.3466666666666667,-0.6111111111111112,-5.25,-7.375,-5.625
1589552544.9437125,-0.37,-3.17,8.87,0.4888888888888889,0.3466666666666667,-0.6111111111111112,-5.25,-7.375,-5.625
1589552544.9539926,0.42,-2.28,8.56,0.4888888888888889,0.3466666666666667,-0.6111111111111112,-2.125,-0.3125,9.1875
1589552544.964161,0.28,-2.49,8.36,0.4888888888888889,0.3466666666666667,-0.6111111111111112,-5.75,-4.5625,13.8125
1589552544.9757092,0.2,-2.59,8.69,0.4888888888888889,0.3466666666666667,-0.6111111111111112,-1.5,1.5625,21.5625
1589552544.9875093,0.06,-2.78,9.38,0.4488888888888889,0.3655555555555556,-0.5966666666666667,3.375,-0.5625,21.3125
1589552544.9998324,0.18,-2.73,8.91,0.4488888888888889,0.3655555555555556,-0.5966666666666667,-0.625,-1.5625,28.125
1589552545.0064325,0.27,-2.9,9.09,0.4488888888888889,0.3655555555555556,-0.5966666666666667,8.6875,5.5625,34.25
1589552545.0140498,0.23,-2.88,9.04,0.4488888888888889,0.3655555555555556,-0.5966666666666667,-0.25,-4.4375,34.0
1589552545.025682,0.29,-2.75,8.55,0.4488888888888889,0.3655555555555556,-0.5966666666666667,-8.6875,-4.1875,33.375
1589552545.038167,0.42,-2.83,8.68,0.4811111111111111,0.3466666666666667,-0.5611111111111111,4.625,-3.1875,20.5
1589552545.0442042,0.25,-2.81,8.91,0.4811111111111111,0.3466666666666667,-0.5611111111111111,5.125,0.6875,20.75
1589552545.0578756,0.29,-2.87,8.4,0.4811111111111111,0.3466666666666667,-0.5611111111111111,1.625,-5.1875,34.625
1589552545.0641177,0.36,-2.87,8.69,0.4811111111111111,0.3466666666666667,-0.5611111111111111,0.125,0.4375,27.8125
1589552545.0782115,0.34,-2.96,9.07,0.4811111111111111,0.3466666666666667,-0.5611111111111111,-6.375,-7.375,17.5
1589552545.0848978,0.25,-3.01,8.79,0.4744444444444445,0.3333333333333333,-0.5822222222222222,0.625,1.8125,25.4375
1589552545.0954251,0.29,-3.01,8.9,0.4744444444444445,0.3333333333333333,-0.5822222222222222,-1.75,1.8125,14.5
1589552545.1056526,0.25,-3.05,8.81,0.4744444444444445,0.3333333333333333,-0.5822222222222222,2.125,-5.3125,10.0625
1589552545.1154,0.23,-3.0,8.83,0.4744444444444445,0.3333333333333333,-0.5822222222222222,-10.6875,4.3125,4.375
1589552545.1286955,0.23,-2.93,8.87,0.4744444444444445,0.3333333333333333,-0.5822222222222222,4.25,9.5,7.4375
1589552545.1357255,0.21,-3.12,8.93,0.4888888888888889,0.3388888888888889,-0.5966666666666667,2.125,-1.3125,-2.875
1589552545.1504712,0.21,-3.2,8.87,0.4888888888888889,0.3388888888888889,-0.5966666666666667,-3.0,-3.6875,2.75
1589552545.1564608,0.14,-3.17,8.83,0.4888888888888889,0.3388888888888889,-0.5966666666666667,3.75,-1.4375,11.4375
1589552545.1654751,0.09,-3.12,8.76,0.4888888888888889,0.3388888888888889,-0.5966666666666667,0.0,-0.0625,-0.5
1589552545.1778932,0.12,-3.11,8.8,0.4888888888888889,0.3388888888888889,-0.5966666666666667,2.375,-0.1875,4.25
1589552545.1863186,0.02,-3.09,8.92,0.4888888888888889,0.32666666666666666,-0.5966666666666667,3.375,-2.6875,9.1875
1589552545.1951325,0.01,-3.16,8.87,0.4888888888888889,0.32666666666666666,-0.5966666666666667,-2.625,3.0625,0.625
1589552545.206333,-0.02,-3.17,8.82,0.4888888888888889,0.32666666666666666,-0.5966666666666667,1.125,-0.0625,0.125
1589552545.2163804,0.03,-3.15,8.88,0.4888888888888889,0.32666666666666666,-0.5966666666666667,-2.0,0.8125,6.875
1589552545.2277222,-0.01,-3.32,8.87,0.4888888888888889,0.32666666666666666,-0.5966666666666667,3.25,1.1875,3.625
1589552545.2356665,-0.06,-3.33,8.94,0.4888888888888889,0.3333333333333333,-0.6233333333333333,1.125,-1.6875,13.6875
1589552545.2459614,0.0,-3.23,8.91,0.4888888888888889,0.3333333333333333,-0.6233333333333333,0.375,5.8125,13.0625
1589552545.2558856,-0.02,-3.31,8.73,0.4888888888888889,0.3333333333333333,-0.6233333333333333,-3.375,2.1875,15.5
1589552545.2660036,-0.02,-3.4,8.84,0.4888888888888889,0.3333333333333333,-0.6233333333333333,8.4375,4.0625,8.1875
1589552545.2796047,0.0,-3.31,8.77,0.4888888888888889,0.3333333333333333,-0.6233333333333333,3.75,-0.4375,12.5625
1589552545.288022,-0.04,-3.44,8.92,0.4888888888888889,0.3388888888888889,-0.6322222222222222,3.25,-7.375,26.0625
1589552545.2962348,0.03,-3.21,8.73,0.4888888888888889,0.3388888888888889,-0.6322222222222222,-1.5,0.4375,12.1875
1589552545.3083112,0.02,-3.37,8.89,0.4888888888888889,0.3388888888888889,-0.6322222222222222,-4.125,-0.3125,23.0625
1589552545.3173115,0.01,-3.43,8.79,0.4888888888888889,0.3388888888888889,-0.6322222222222222,1.875,-0.4375,13.6875
1589552545.3282573,0.0,-3.54,8.92,0.4888888888888889,0.3388888888888889,-0.6322222222222222,-9.8125,-3.8125,12.1875
1589552545.3378644,-0.03,-3.55,8.87,0.4888888888888889,0.3333333333333333,-0.6677777777777778,-1.625,2.1875,11.1875
1589552545.3481221,-0.02,-3.58,8.98,0.4888888888888889,0.3333333333333333,-0.6677777777777778,4.5,-4.5625,10.6875
1589552545.360758,0.03,-3.45,8.73,0.4888888888888889,0.3333333333333333,-0.6677777777777778,0.0,2.0625,10.0625
1589552545.366723,-0.02,-3.58,8.8,0.4888888888888889,0.3333333333333333,-0.6677777777777778,2.5,-3.0625,13.3125
1589552545.379109,0.0,-3.52,8.84,0.4888888888888889,0.3333333333333333,-0.6677777777777778,-1.875,-2.0625,11.4375
1589552545.3857653,0.0,-3.43,8.88,0.4811111111111111,0.3333333333333333,-0.6588888888888889,-2.375,4.8125,14.625
1589552545.3959556,0.02,-3.34,8.81,0.4811111111111111,0.3333333333333333,-0.6588888888888889,-3.625,-3.1875,17.0
1589552545.407707,-0.11,-3.57,8.85,0.4811111111111111,0.3333333333333333,-0.6588888888888889,2.875,1.6875,12.5625
1589552545.417636,-0.17,-3.64,8.74,0.4811111111111111,0.3333333333333333,-0.6588888888888889,5.125,1.9375,16.625
1589552545.4286282,-0.23,-3.66,8.76,0.4811111111111111,0.3333333333333333,-0.6588888888888889,1.0,-1.3125,19.25
1589552545.4358912,-0.21,-3.65,8.88,0.4688888888888889,0.32666666666666666,-0.6711111111111111,-0.125,5.0625,11.8125
1589552545.4463224,-0.2,-3.57,8.94,0.4688888888888889,0.32666666666666666,-0.6711111111111111,-0.5,-2.3125,20.75
1589552545.4596505,-0.23,-3.46,8.46,0.4688888888888889,0.32666666666666666,-0.6711111111111111,0.625,3.8125,19.0
1589552545.4669685,-0.18,-3.44,8.91,0.4688888888888889,0.32666666666666666,-0.6711111111111111,-0.75,4.0625,25.6875
1589552545.4788802,-0.19,-3.42,8.75,0.4688888888888889,0.32666666666666666,-0.6711111111111111,-2.125,3.3125,27.4375
1589552545.485933,-0.25,-3.61,8.87,0.4888888888888889,0.3322222222222222,-0.7,-4.875,-9.25,30.625
1589552545.4966002,-0.22,-3.51,8.88,0.4888888888888889,0.3322222222222222,-0.7,2.75,-0.4375,21.0625
1589552545.5111876,-0.23,-3.47,8.78,0.4888888888888889,0.3322222222222222,-0.7,-3.5,-3.6875,37.8125
1589552545.5169785,-0.33,-3.6,8.84,0.4888888888888889,0.3322222222222222,-0.7,-3.625,2.4375,34.25
1589552545.5321767,-0.42,-3.67,8.87,0.4888888888888889,0.3322222222222222,-0.7,2.125,4.0625,34.75
1589552545.5382257,-0.44,-3.69,8.83,0.4811111111111111,0.31777777777777777,-0.7355555555555555,-5.125,-5.4375,50.1875
1589552545.547628,-0.5,-3.69,8.85,0.4811111111111111,0.31777777777777777,-0.7355555555555555,-1.375,-1.6875,50.0625
1589552545.5577269,-0.52,-3.72,8.72,0.4811111111111111,0.31777777777777777,-0.7355555555555555,-2.75,-3.8125,59.125
1589552545.568381,-0.51,-3.74,8.8,0.4811111111111111,0.31777777777777777,-0.7355555555555555,2.25,-5.4375,47.625
1589552545.5793664,-0.47,-3.77,8.84,0.4811111111111111,0.31777777777777777,-0.7355555555555555,-3.875,-7.125,50.5625
1589552545.5913155,-0.46,-3.6,8.87,0.5488888888888889,0.26666666666666666,-0.7355555555555555,-7.1875,-2.1875,55.1875
1589552545.5972195,-0.48,-3.55,8.84,0.5488888888888889,0.26666666666666666,-0.7355555555555555,4.75,2.4375,69.1875
1589552545.6100788,-0.55,-3.65,8.71,0.5488888888888889,0.26666666666666666,-0.7355555555555555,2.625,-4.6875,57.0
1589552545.617617,-0.63,-3.67,8.86,0.5488888888888889,0.26666666666666666,-0.7355555555555555,1.625,-0.9375,72.25
1589552545.62963,-0.65,-3.68,8.9,0.5488888888888889,0.26666666666666666,-0.7355555555555555,-4.625,-3.5625,64.8125
1589552545.6382296,-0.7,-3.67,8.77,0.5733333333333334,0.2,-0.7288888888888889,-5.25,3.9375,68.8125
1589552545.6477046,-0.65,-3.58,8.86,0.5733333333333334,0.2,-0.7288888888888889,-2.625,-3.5625,75.875
1589552545.6607487,-0.63,-3.38,8.61,0.5733333333333334,0.2,-0.7288888888888889,-2.25,-2.0625,78.5625
1589552545.6687708,-0.66,-3.51,8.88,0.5733333333333334,0.2,-0.7288888888888889,-5.125,-7.5,83.5625
1589552545.684649,-0.66,-3.49,8.89,0.5733333333333334,0.2,-0.7288888888888889,0.125,-5.6875,75.375
1589552545.6902616,-0.52,-3.44,8.87,0.5666666666666667,0.11555555555555555,-0.7211111111111111,1.25,-7.625,76.625
1589552545.6989832,-0.48,-3.45,8.87,0.5666666666666667,0.11555555555555555,-0.7211111111111111,0.375,-3.0625,72.75
1589552545.710051,-0.48,-3.41,8.96,0.5666666666666667,0.11555555555555555,-0.7211111111111111,2.375,0.0625,63.1875
1589552545.7192485,-0.4,-3.25,8.6,0.5666666666666667,0.11555555555555555,-0.7211111111111111,6.375,-4.4375,51.1875
1589552545.7290835,-0.55,-3.15,9.02,0.5666666666666667,0.11555555555555555,-0.7211111111111111,5.0,-0.8125,51.3125
1589552545.741628,-0.54,-2.93,9.0,0.5255555555555556,0.02666666666666667,-0.6355555555555555,-0.375,0.6875,46.375
1589552545.7474804,-0.63,-2.88,8.53,0.5255555555555556,0.02666666666666667,-0.6355555555555555,2.75,-3.9375,38.6875
1589552545.760206,-0.7,-2.98,9.18,0.5255555555555556,0.02666666666666667,-0.6355555555555555,-0.75,5.0625,34.375
1589552545.7682195,-0.94,-3.21,8.46,0.5255555555555556,0.02666666666666667,-0.6355555555555555,-6.75,-9.375,39.6875
1589552545.7794616,-0.94,-3.21,8.88,0.5255555555555556,0.02666666666666667,-0.6355555555555555,-3.625,-2.0625,51.0625
1589552545.7871006,-0.94,-3.11,9.21,0.51,0.06888888888888889,-0.5955555555555555,0.375,-7.25,38.6875
1589552545.7985258,-0.94,-3.23,8.96,0.51,0.06888888888888889,-0.5955555555555555,-4.125,-5.9375,42.25
1589552545.808059,-0.91,-3.11,8.66,0.51,0.06888888888888889,-0.5955555555555555,1.875,-3.4375,42.0
1589552545.8206193,-0.95,-3.1,8.61,0.51,0.06888888888888889,-0.5955555555555555,-5.125,-7.125,38.1875
1589552545.8361602,-1.07,-3.24,9.08,0.51,0.06888888888888889,-0.5955555555555555,-5.875,-2.5625,34.0
1589552545.8431444,-1.01,-3.32,8.72,0.5333333333333333,0.09,-0.5788888888888889,-3.125,-0.6875,38.4375
1589552545.8498287,-0.91,-3.19,8.76,0.5333333333333333,0.09,-0.5788888888888889,-4.375,-3.3125,35.0625
1589552545.8617964,-0.93,-3.28,9.04,0.5333333333333333,0.09,-0.5788888888888889,-8.3125,2.3125,22.4375
1589552545.86986,-0.91,-3.16,9.0,0.5333333333333333,0.09,-0.5788888888888889,1.125,5.4375,24.4375
1589552545.880917,-0.97,-3.23,9.08,0.5333333333333333,0.09,-0.5788888888888889,3.25,-4.6875,17.625
1589552545.892775,-0.84,-2.82,8.21,0.5377777777777778,0.12,-0.5733333333333334,-0.625,-9.125,25.4375
1589552545.8995695,-0.89,-3.01,9.26,0.5377777777777778,0.12,-0.5733333333333334,1.75,2.3125,30.5
1589552545.9133828,-0.99,-2.94,8.39,0.5377777777777778,0.12,-0.5733333333333334,-2.25,-7.75,20.625
1589552545.9200606,-0.98,-3.05,8.69,0.5377777777777778,0.12,-0.5733333333333334,2.875,-10.125,31.0
1589552545.930076,-1.25,-3.43,9.31,0.5377777777777778,0.12,-0.5733333333333334,0.75,-2.3125,25.0625
1589552545.9380322,-1.01,-2.9,8.38,0.5366666666666666,0.13333333333333333,-0.5877777777777777,4.0,-7.0,23.5625
1589552545.9521284,-1.09,-3.11,8.62,0.5366666666666666,0.13333333333333333,-0.5877777777777777,-7.5625,-3.1875,20.375
1589552545.9592125,-1.03,-2.99,8.98,0.5366666666666666,0.13333333333333333,-0.5877777777777777,0.875,-3.4375,20.375
1589552545.9708686,-0.95,-2.82,8.86,0.5366666666666666,0.13333333333333333,-0.5877777777777777,4.75,5.5625,18.625
1589552545.9811645,-1.07,-3.03,8.94,0.5366666666666666,0.13333333333333333,-0.5877777777777777,3.125,4.4375,25.8125
1589552545.9896019,-0.98,-2.94,8.38,0.5555555555555556,0.13111111111111112,-0.5811111111111111,-0.75,-3.9375,15.125
1589552545.999995,-1.03,-3.08,8.9,0.5555555555555556,0.13111111111111112,-0.5811111111111111,-5.25,-4.9375,19.75
1589552546.011033,-0.95,-2.98,9.06,0.5555555555555556,0.13111111111111112,-0.5811111111111111,8.1875,7.5,6.625
1589552546.0206022,-0.67,-3.07,9.06,0.5555555555555556,0.13111111111111112,-0.5811111111111111,-1.5,-1.5625,-5.875
1589552546.0308526,-0.32,-2.69,8.38,0.5555555555555556,0.13111111111111112,-0.5811111111111111,8.9375,2.3125,-11.3125
1589552546.0384586,-1.27,-3.95,9.26,0.5644444444444444,0.11888888888888888,-0.5877777777777777,6.25,-5.9375,0.625
1589552546.0499976,-0.73,-3.51,8.71,0.5644444444444444,0.11888888888888888,-0.5877777777777777,0.125,-7.5,-5.25
1589552546.063942,-0.85,-3.78,9.17,0.5644444444444444,0.11888888888888888,-0.5877777777777777,-3.875,-1.0625,-8.1875
1589552546.070109,-0.5,-3.46,8.54,0.5644444444444444,0.11888888888888888,-0.5877777777777777,-3.25,-6.8125,-17.0
1589552546.0831642,-0.17,-3.15,8.45,0.5644444444444444,0.11888888888888888,-0.5877777777777777,1.75,3.8125,-40.8125
1589552546.0890074,-0.31,-3.03,8.96,0.5577777777777778,0.10666666666666667,-0.5877777777777777,2.5,4.4375,-47.5
1589552546.0946493,-0.31,-3.03,8.96,0.5577777777777778,0.10666666666666667,-0.5877777777777777,2.5,4.4375,-47.5
1589552546.1040256,-0.3,-2.9,8.97,0.5577777777777778,0.10666666666666667,-0.5877777777777777,-2.25,3.5625,-54.0625
1589552546.1097505,-0.38,-2.99,8.61,0.5577777777777778,0.10666666666666667,-0.5877777777777777,4.0,-1.5625,-73.875
1589552546.1232448,-0.72,-3.59,9.08,0.5577777777777778,0.10666666666666667,-0.5877777777777777,-6.875,2.4375,-78.1875
1589552546.131361,-0.95,-3.69,8.72,0.5577777777777778,0.10666666666666667,-0.5877777777777777,-3.125,5.0625,-88.75
1589552546.1404214,-1.0,-3.72,8.79,0.6533333333333333,0.021111111111111112,-0.5877777777777777,4.125,9.25,-85.875
1589552546.149331,-0.94,-3.71,9.24,0.6533333333333333,0.021111111111111112,-0.5877777777777777,-0.875,3.8125,-88.875
1589552546.1637902,-1.31,-4.12,8.75,0.6533333333333333,0.021111111111111112,-0.5877777777777777,1.125,0.4375,-85.375
1589552546.1705575,-1.46,-4.32,9.12,0.6533333333333333,0.021111111111111112,-0.5877777777777777,-6.0,4.3125,-70.0
1589552546.1819975,-1.25,-4.06,8.17,0.6533333333333333,0.021111111111111112,-0.5877777777777777,-8.5625,-1.9375,-68.5625
1589552546.1948216,-1.45,-4.11,9.24,0.9066666666666666,-0.3,-0.36,-1.75,-2.3125,-59.125
1589552546.200907,-1.15,-3.79,8.68,0.9066666666666666,-0.3,-0.36,3.125,-0.5625,-46.375
1589552546.2155173,-1.04,-3.71,8.69,0.9066666666666666,-0.3,-0.36,-1.75,6.1875,-41.5625
1589552546.2211542,-1.09,-3.94,8.99,0.9066666666666666,-0.3,-0.36,-1.25,0.4375,-31.75
1589552546.2351725,-0.93,-3.73,9.04,0.9066666666666666,-0.3,-0.36,0.75,-1.0625,-37.4375
1589552546.2413607,-0.99,-3.81,8.92,1.4355555555555557,0.30666666666666664,-0.31222222222222223,-0.125,1.3125,-29.5
1589552546.2543235,-0.89,-3.66,8.84,1.4355555555555557,0.30666666666666664,-0.31222222222222223,3.0,9.0,-25.9375
1589552546.260767,-0.94,-3.92,9.24,1.4355555555555557,0.30666666666666664,-0.31222222222222223,-2.125,-7.5,-18.0
1589552546.2742462,-0.53,-3.56,8.44,1.4355555555555557,0.30666666666666664,-0.31222222222222223,-2.5,-5.1875,-31.875
1589552546.2819126,-0.54,-3.69,9.21,1.4355555555555557,0.30666666666666664,-0.31222222222222223,3.0,2.9375,-27.5625
1589552546.2926385,-0.48,-3.67,8.95,0.7922222222222223,0.25,-0.6133333333333333,-6.0,4.4375,-20.25
1589552546.3008404,-0.45,-3.85,8.85,0.7922222222222223,0.25,-0.6133333333333333,1.125,-0.6875,-31.125
1589552546.3119698,-0.44,-3.98,8.95,0.7922222222222223,0.25,-0.6133333333333333,3.625,-0.9375,-34.0
1589552546.3209689,-0.21,-3.57,8.64,0.7922222222222223,0.25,-0.6133333333333333,1.625,0.0625,-44.75
1589552546.332022,-0.21,-3.73,8.74,0.7922222222222223,0.25,-0.6133333333333333,-0.5,-4.3125,-44.25
1589552546.339873,-0.27,-3.75,9.02,0.6088888888888889,0.2488888888888889,-0.6488888888888888,-9.3125,3.5625,-48.875
1589552546.3516006,-0.22,-3.77,8.8,0.6088888888888889,0.2488888888888889,-0.6488888888888888,-1.5,5.0625,-62.125
1589552546.3657515,-0.32,-4.01,8.92,0.6088888888888889,0.2488888888888889,-0.6488888888888888,-2.875,-5.9375,-61.0
1589552546.3719814,-0.09,-3.79,8.52,0.6088888888888889,0.2488888888888889,-0.6488888888888888,-1.25,-4.8125,-67.6875
1589552546.3860178,-0.13,-4.01,9.0,0.6088888888888889,0.2488888888888889,-0.6488888888888888,-0.375,11.0,-68.4375
1589552546.391626,-0.13,-3.91,8.76,0.5911111111111111,0.28444444444444444,-0.6488888888888888,-0.625,1.1875,-79.9375
1589552546.4020572,-0.27,-4.06,8.61,0.5911111111111111,0.28444444444444444,-0.6488888888888888,-2.75,-3.0625,-77.4375
1589552546.4117572,-0.35,-4.13,8.75,0.5911111111111111,0.28444444444444444,-0.6488888888888888,10.9375,6.0625,-77.6875
1589552546.4247644,-0.35,-4.23,8.85,0.5911111111111111,0.28444444444444444,-0.6488888888888888,-1.375,-3.5625,-79.9375
1589552546.4326186,-0.34,-4.29,8.34,0.5911111111111111,0.28444444444444444,-0.6488888888888888,-2.5,4.9375,-79.9375
1589552546.4404216,-0.36,-4.05,9.05,0.5522222222222222,0.2933333333333333,-0.6644444444444444,-0.375,-3.3125,-67.9375
1589552546.448515,-0.36,-4.05,9.05,0.5522222222222222,0.2933333333333333,-0.6644444444444444,-0.375,-3.3125,-67.9375
1589552546.454322,-0.51,-4.04,8.56,0.5522222222222222,0.2933333333333333,-0.6644444444444444,-2.5,0.4375,-69.0625
1589552546.465816,-0.44,-4.08,8.82,0.5522222222222222,0.2933333333333333,-0.6644444444444444,5.0,6.5625,-65.6875
1589552546.471833,-0.37,-3.86,9.06,0.5522222222222222,0.2933333333333333,-0.6644444444444444,7.1875,6.1875,-73.125
1589552546.4848096,-0.3,-3.89,7.94,0.5522222222222222,0.2933333333333333,-0.6644444444444444,-9.4375,-7.5,-51.4375
1589552546.4909775,-0.27,-3.98,9.28,0.5422222222222223,0.31555555555555553,-0.6766666666666666,3.875,6.4375,-41.6875
1589552546.5016296,-0.24,-3.6,9.51,0.5422222222222223,0.31555555555555553,-0.6766666666666666,0.875,6.4375,-47.25
1589552546.5114875,-0.25,-5.48,8.63,0.5422222222222223,0.31555555555555553,-0.6766666666666666,-234.0625,-54.25,-536.625
1589552546.523332,-6.71,4.22,1.24,0.5422222222222223,0.31555555555555553,-0.6766666666666666,-205.6875,-86.8125,-481.875
1589552546.5332432,0.0,-5.57,7.26,0.5422222222222223,0.31555555555555553,-0.6766666666666666,-129.75,78.625,-392.125
1589552546.5453205,-1.24,-2.95,5.77,0.5077777777777778,0.36,-0.6355555555555555,-88.25,154.1875,-360.4375
1589552546.5534835,-1.07,-2.47,5.29,0.5077777777777778,0.36,-0.6355555555555555,-50.0625,222.25,-336.0
1589552546.5637436,-5.89,-3.89,20.86,0.5077777777777778,0.36,-0.6355555555555555,144.75,0.8125,-302.0625
1589552546.5756311,-0.8,-1.16,-1.03,0.5077777777777778,0.36,-0.6355555555555555,144.5,-0.5625,-273.0625
1589552546.583869,-1.17,-2.52,6.79,0.5077777777777778,0.36,-0.6355555555555555,250.4375,78.625,-225.75
1589552546.5976992,-1.06,-0.49,16.99,0.37777777777777777,0.5466666666666666,-0.6022222222222222,-127.25,-51.5,-105.0625
1589552546.6041381,-0.06,-0.79,3.34,0.37777777777777777,0.5466666666666666,-0.6022222222222222,-31.375,-2.0625,-80.6875
1589552546.6154757,9.18,-10.0,8.09,0.37777777777777777,0.5466666666666666,-0.6022222222222222,26.0625,-20.1875,-54.4375
1589552546.6225445,2.49,-1.41,10.36,0.37777777777777777,0.5466666666666666,-0.6022222222222222,11.3125,13.0,-49.8125
1589552546.634241,3.12,-1.4,8.87,0.37777777777777777,0.5466666666666666,-0.6022222222222222,-6.0,-6.8125,-27.1875
1589552546.6412075,3.61,-3.5,8.53,0.2822222222222222,0.5522222222222222,-0.6377777777777778,6.625,1.6875,-13.0625
1589552546.652242,3.61,-3.5,8.53,0.2822222222222222,0.5522222222222222,-0.6377777777777778,6.625,1.6875,-13.0625
1589552546.6621382,1.95,-3.97,8.93,0.2822222222222222,0.5522222222222222,-0.6377777777777778,-5.25,1.8125,-10.6875
1589552546.6720085,1.99,-3.85,8.2,0.2822222222222222,0.5522222222222222,-0.6377777777777778,8.6875,-6.4375,2.375
1589552546.6838415,1.9,-3.95,9.01,0.2822222222222222,0.5522222222222222,-0.6377777777777778,-4.125,-6.5625,0.875
1589552546.6960864,1.96,-3.91,8.79,0.2611111111111111,0.5933333333333334,-0.6233333333333333,2.125,-1.6875,2.0
1589552546.7044208,2.0,-3.99,8.76,0.2611111111111111,0.5933333333333334,-0.6233333333333333,-1.0,0.5625,0.75
1589552546.715248,1.94,-3.86,8.39,0.2611111111111111,0.5933333333333334,-0.6233333333333333,-1.5,-2.6875,0.5
1589552546.7223132,1.93,-3.88,8.93,0.2611111111111111,0.5933333333333334,-0.6233333333333333,1.5,0.9375,-1.25
1589552546.7354672,1.92,-3.91,8.71,0.2611111111111111,0.5933333333333334,-0.6233333333333333,3.625,1.3125,-2.25
1589552546.7487714,1.96,-3.88,8.84,0.2822222222222222,0.59,-0.6377777777777778,-1.0,0.9375,-1.5
1589552546.7556903,2.01,-3.94,8.52,0.2822222222222222,0.59,-0.6377777777777778,-0.625,0.0625,-1.125
1589552546.7640195,1.96,-3.97,8.75,0.2822222222222222,0.59,-0.6377777777777778,0.75,5.4375,-1.75
1589552546.7738647,1.91,-3.9,8.74,0.2822222222222222,0.59,-0.6377777777777778,-3.625,-1.0625,-7.1875
1589552546.7857852,1.93,-3.83,8.87,0.2822222222222222,0.59,-0.6377777777777778,-9.1875,0.0625,-0.625
1589552546.7927241,1.95,-3.94,8.66,0.26666666666666666,0.5822222222222222,-0.6022222222222222,1.875,-3.5625,2.125
1589552546.8075092,1.96,-3.93,8.61,0.26666666666666666,0.5822222222222222,-0.6022222222222222,6.375,8.0,-4.5
1589552546.8139815,1.94,-3.93,8.58,0.26666666666666666,0.5822222222222222,-0.6022222222222222,4.0,-0.5625,-5.125
1589552546.8240714,1.94,-3.89,8.77,0.26666666666666666,0.5822222222222222,-0.6022222222222222,3.375,-8.5,3.375
1589552546.8360398,1.9,-3.87,8.73,0.26666666666666666,0.5822222222222222,-0.6022222222222222,0.0,-2.3125,2.25
1589552546.847401,1.93,-3.92,8.76,0.27111111111111114,0.6044444444444445,-0.6144444444444445,-1.375,6.3125,-10.5625
1589552546.8561769,1.93,-3.93,8.68,0.27111111111111114,0.6044444444444445,-0.6144444444444445,7.0625,0.9375,4.0
1589552546.8670516,1.97,-3.95,8.64,0.27111111111111114,0.6044444444444445,-0.6144444444444445,2.5,-2.1875,-2.125
1589552546.8799055,1.94,-3.86,8.78,0.27111111111111114,0.6044444444444445,-0.6144444444444445,4.0,-6.1875,-10.1875
1589552546.8869624,1.91,-3.87,8.81,0.27111111111111114,0.6044444444444445,-0.6144444444444445,-1.625,-1.0625,9.9375
1589552546.8930945,1.93,-3.9,8.76,0.2577777777777778,0.6044444444444445,-0.6144444444444445,-2.625,-4.1875,-5.5
1589552546.9054909,1.97,-3.89,8.78,0.2577777777777778,0.6044444444444445,-0.6144444444444445,2.625,0.5625,3.375
1589552546.9149618,1.93,-3.93,8.63,0.2577777777777778,0.6044444444444445,-0.6144444444444445,-4.25,0.0625,-7.0625
1589552546.9240751,1.93,-3.89,8.68,0.2577777777777778,0.6044444444444445,-0.6144444444444445,0.5,-4.1875,-0.375
1589552546.9362862,1.93,-3.88,8.76,0.2577777777777778,0.6044444444444445,-0.6144444444444445,7.5625,0.1875,3.125
1589552546.9447336,1.91,-3.85,8.85,0.2577777777777778,0.6044444444444445,-0.6222222222222222,-1.375,2.9375,3.5
1589552546.9584086,1.94,-3.9,8.73,0.2577777777777778,0.6044444444444445,-0.6222222222222222,-5.625,1.3125,3.5
1589552546.9659119,1.95,-3.94,8.59,0.2577777777777778,0.6044444444444445,-0.6222222222222222,-2.125,8.25,-7.1875
1589552546.977319,1.95,-3.96,8.67,0.2577777777777778,0.6044444444444445,-0.6222222222222222,-11.5625,-8.0,8.8125
1589552546.986042,1.9,-3.9,8.77,0.2577777777777778,0.6044444444444445,-0.6222222222222222,-5.0,0.6875,-2.25
1589552546.9953365,1.92,-3.88,8.82,0.27111111111111114,0.6,-0.6144444444444445,0.125,1.3125,-0.75
1589552547.0047874,1.92,-3.9,8.75,0.27111111111111114,0.6,-0.6144444444444445,-6.625,-2.4375,-1.5
1589552547.0155034,1.95,-3.94,8.63,0.27111111111111114,0.6,-0.6144444444444445,4.375,-3.1875,-0.625
1589552547.0246527,1.94,-3.92,8.7,0.27111111111111114,0.6,-0.6144444444444445,-4.625,0.0625,2.75
1589552547.036948,1.93,-3.89,8.75,0.27111111111111114,0.6,-0.6144444444444445,2.625,-1.6875,-11.1875
1589552547.045562,1.91,-3.89,8.79,0.2577777777777778,0.5866666666666667,-0.5911111111111111,-1.875,-1.0625,6.375
1589552547.0566912,1.94,-3.89,8.72,0.2577777777777778,0.5866666666666667,-0.5911111111111111,4.25,0.0625,-4.625
1589552547.0660074,1.94,-3.94,8.6,0.2577777777777778,0.5866666666666667,-0.5911111111111111,1.0,-1.3125,-1.75
1589552547.0781233,1.94,-3.91,8.66,0.2577777777777778,0.5866666666666667,-0.5911111111111111,-3.875,-5.4375,-0.375
1589552547.0903244,1.96,-3.93,8.71,0.2577777777777778,0.5866666666666667,-0.5911111111111111,4.0,-1.5625,-2.75
1589552547.0965655,1.93,-3.87,8.8,0.2311111111111111,0.5933333333333334,-0.6222222222222222,-2.125,-3.4375,0.625
1589552547.109226,1.92,-3.91,8.77,0.2311111111111111,0.5933333333333334,-0.6222222222222222,0.375,0.1875,0.625
1589552547.115405,1.96,-3.9,8.63,0.2311111111111111,0.5933333333333334,-0.6222222222222222,2.5,-1.3125,6.5
1589552547.1277926,1.94,-3.94,8.67,0.2311111111111111,0.5933333333333334,-0.6222222222222222,-3.375,6.3125,-8.9375
1589552547.1371956,1.93,-3.89,8.73,0.2311111111111111,0.5933333333333334,-0.6222222222222222,2.875,1.4375,-0.625
1589552547.1446867,1.92,-3.87,8.78,0.2788888888888889,0.5866666666666667,-0.6222222222222222,-4.875,-3.6875,2.875
1589552547.1558154,1.92,-3.89,8.82,0.2788888888888889,0.5866666666666667,-0.6222222222222222,-3.125,1.9375,-0.625
1589552547.1678698,1.94,-3.91,8.65,0.2788888888888889,0.5866666666666667,-0.6222222222222222,-2.25,-3.0625,3.75
1589552547.1785462,1.95,-3.93,8.67,0.2788888888888889,0.5866666666666667,-0.6222222222222222,2.0,-5.9375,-1.875
1589552547.18866,1.94,-3.94,8.69,0.2788888888888889,0.5866666666666667,-0.6222222222222222,-1.375,3.8125,4.375
1589552547.1947265,1.96,-3.89,8.77,0.2577777777777778,0.5933333333333334,-0.6055555555555555,2.5,-10.25,-1.25
1589552547.2068474,1.92,-3.87,8.75,0.2577777777777778,0.5933333333333334,-0.6055555555555555,0.5,-2.3125,-2.125
1589552547.2157464,1.96,-3.92,8.64,0.2577777777777778,0.5933333333333334,-0.6055555555555555,3.25,1.3125,-4.875
1589552547.228144,1.93,-3.94,8.65,0.2577777777777778,0.5933333333333334,-0.6055555555555555,0.375,0.4375,5.625
