time,acc_x,acc_y,acc_z,mag_x,mag_y,mag_z,gyr_x,gyr_y,gyr_z
1589552521.0257244,-0.03,-4.19,8.9,0.49,0.28444444444444444,-0.5811111111111111,-1.75,-3.3125,7.3125
1589552521.0385215,-0.06,-4.22,8.73,0.49,0.28444444444444444,-0.5811111111111111,-3.875,-1.3125,2.875
1589552521.0743132,-0.1,-4.26,8.74,0.49,0.28444444444444444,-0.5811111111111111,-6.0,-1.0625,6.0
1589552521.0845444,-0.14,-4.34,8.68,0.49,0.2644444444444444,-0.6088888888888889,2.5,-3.0625,2.125
1589552521.0920663,-0.12,-4.32,8.79,0.49,0.2644444444444444,-0.6088888888888889,-1.375,-3.8125,4.375
1589552521.112186,-0.08,-4.32,8.81,0.49,0.2644444444444444,-0.6088888888888889,3.25,1.9375,11.6875
1589552521.1244187,-0.12,-4.39,8.86,0.49,0.25,-0.5877777777777777,2.0,-2.8125,5.875
1589552521.1571395,-0.12,-4.4,8.75,0.49,0.25,-0.5877777777777777,0.875,-1.3125,-6.875
1589552521.1695256,-0.1,-4.24,8.79,0.4688888888888889,0.27,-0.5877777777777777,-2.875,-4.6875,-12.4375
1589552521.1996481,-0.1,-4.24,8.76,0.4688888888888889,0.27,-0.5877777777777777,0.875,0.6875,-8.0625
1589552521.2057252,-0.15,-4.34,8.79,0.4688888888888889,0.27,-0.5877777777777777,1.0,-2.6875,0.875
1589552521.2117302,-0.15,-4.37,8.8,0.4633333333333333,0.2577777777777778,-0.6022222222222222,1.125,3.6875,5.125
1589552521.2207744,-0.14,-4.4,8.81,0.4633333333333333,0.2577777777777778,-0.6022222222222222,3.25,-3.5625,-3.375
1589552521.2415047,-0.11,-4.28,8.81,0.4633333333333333,0.2577777777777778,-0.6022222222222222,-5.0,-1.6875,2.125
1589552521.2537901,-0.13,-4.26,8.85,0.4633333333333333,0.2577777777777778,-0.6022222222222222,-3.625,-0.3125,-8.0625
1589552521.2608461,-0.13,-4.27,8.82,0.49,0.2577777777777778,-0.5933333333333334,2.875,-4.8125,2.375
1589552521.272815,-0.13,-4.33,8.83,0.49,0.2577777777777778,-0.5933333333333334,-0.75,5.3125,-9.3125
1589552521.2826252,-0.1,-4.35,8.67,0.49,0.2577777777777778,-0.5933333333333334,-1.125,-0.1875,7.9375
1589552521.2943234,-0.13,-4.37,8.71,0.49,0.2577777777777778,-0.5933333333333334,-4.625,0.3125,-2.875
1589552521.3064167,-0.13,-4.37,8.77,0.49,0.2577777777777778,-0.5933333333333334,0.5,-4.6875,-8.0625
1589552521.312445,-0.11,-4.32,8.81,0.49,0.2644444444444444,-0.5933333333333334,-2.625,-0.6875,3.25
1589552521.3256,-0.1,-4.23,8.79,0.49,0.2644444444444444,-0.5933333333333334,6.75,-7.0,1.0
1589552521.331786,-0.1,-4.23,8.73,0.49,0.2644444444444444,-0.5933333333333334,-1.375,-3.1875,-1.375
1589552521.3457825,-0.11,-4.26,8.82,0.49,0.2644444444444444,-0.5933333333333334,2.375,1.5625,3.875
1589552521.3544366,-0.13,-4.31,8.85,0.49,0.2644444444444444,-0.5933333333333334,-4.125,-0.5625,9.0625
1589552521.3649168,-0.14,-4.35,8.85,0.4833333333333333,0.2433333333333333,-0.5811111111111111,-3.5,-0.6875,-0.375
1589552521.3729804,-0.13,-4.35,8.79,0.4833333333333333,0.2433333333333333,-0.5811111111111111,-1.375,4.3125,2.125
1589552521.383399,-0.1,-4.31,8.67,0.4833333333333333,0.2433333333333333,-0.5811111111111111,4.375,1.9375,-4.625
1589552521.3920374,-0.11,-4.29,8.7,0.4833333333333333,0.2433333333333333,-0.5811111111111111,-4.375,-9.125,5.5
1589552521.4058633,-0.11,-4.27,8.75,0.4833333333333333,0.2433333333333333,-0.5811111111111111,-1.0,-1.1875,2.5
1589552521.4121544,-0.1,-4.32,8.78,0.5166666666666667,0.2577777777777778,-0.5877777777777777,2.75,1.3125,2.875
1589552521.4224534,-0.11,-4.3,8.81,0.5166666666666667,0.2577777777777778,-0.5877777777777777,6.125,6.3125,5.5
1589552521.4323947,-0.22,-4.15,8.61,0.5166666666666667,0.2577777777777778,-0.5877777777777777,-6.125,-4.8125,-0.125
1589552521.4445062,-0.24,-4.16,8.78,0.5166666666666667,0.2577777777777778,-0.5877777777777777,-2.875,-1.0625,-2.25
1589552521.4605699,0.0,-4.38,9.17,0.5166666666666667,0.2577777777777778,-0.5877777777777777,4.75,5.8125,1.75
1589552521.466011,-0.13,-4.24,8.63,0.4633333333333333,0.27,-0.5933333333333334,-2.125,4.3125,8.0625
1589552521.4782596,-0.16,-4.28,8.83,0.4633333333333333,0.27,-0.5933333333333334,-3.75,-2.6875,13.1875
1589552521.4849875,-0.09,-4.36,8.77,0.4633333333333333,0.27,-0.5933333333333334,-0.625,1.3125,2.875
1589552521.4977934,-0.12,-4.33,8.7,0.4633333333333333,0.27,-0.5933333333333334,3.875,3.8125,2.5
1589552521.5047815,-0.16,-4.36,8.75,0.4633333333333333,0.27,-0.5933333333333334,-6.0,5.8125,-4.5
1589552521.5119328,-0.15,-4.35,8.74,0.51,0.2577777777777778,-0.5811111111111111,0.625,0.3125,8.0625
1589552521.52393,-0.11,-4.34,8.78,0.51,0.2577777777777778,-0.5811111111111111,3.875,-1.8125,6.875
1589552521.5344262,-0.11,-4.3,8.69,0.51,0.2577777777777778,-0.5811111111111111,-1.375,0.9375,8.6875
1589552521.5433533,-0.08,-4.14,8.84,0.51,0.2577777777777778,-0.5811111111111111,-0.5,-3.6875,1.875
1589552521.5576847,-0.09,-4.14,8.87,0.51,0.2577777777777778,-0.5811111111111111,5.5,-3.0625,5.375
1589552521.5639248,-0.09,-4.13,8.87,0.4955555555555556,0.27,-0.5933333333333334,6.25,-2.9375,5.375
1589552521.57426,-0.11,-4.16,8.91,0.4955555555555556,0.27,-0.5933333333333334,2.0,2.4375,8.0625
1589552521.58389,-0.09,-4.21,8.69,0.4955555555555556,0.27,-0.5933333333333334,0.625,1.1875,3.875
1589552521.59673,-0.09,-4.24,8.74,0.4955555555555556,0.27,-0.5933333333333334,-0.625,-2.1875,4.625
1589552521.6054492,-0.08,-4.2,8.78,0.4955555555555556,0.27,-0.5933333333333334,1.875,-4.6875,0.125
1589552521.6173394,-0.08,-4.19,8.82,0.4755555555555556,0.2577777777777778,-0.5877777777777777,-1.375,-4.5625,-1.0
1589552521.627617,-0.11,-4.17,8.79,0.4755555555555556,0.2577777777777778,-0.5877777777777777,1.0,-0.6875,7.8125
1589552521.6337714,-0.34,-3.87,8.48,0.4755555555555556,0.2577777777777778,-0.5877777777777777,4.5,-1.1875,5.25
1589552521.6486444,-0.14,-4.13,9.03,0.4755555555555556,0.2577777777777778,-0.5877777777777777,5.5,-5.0625,-6.0
1589552521.655822,-0.23,-4.02,8.71,0.4755555555555556,0.2577777777777778,-0.5877777777777777,-3.0,5.6875,2.75
1589552521.663442,-0.24,-4.15,9.02,0.49,0.2644444444444444,-0.5811111111111111,-2.75,-9.375,-2.375
1589552521.675543,-0.31,-4.16,8.79,0.49,0.2644444444444444,-0.5811111111111111,-0.5,-1.0625,14.75
1589552521.6883216,-0.32,-3.9,8.82,0.49,0.2644444444444444,-0.5811111111111111,-2.25,-4.5625,3.875
1589552521.6951294,-0.33,-3.85,8.76,0.49,0.2644444444444444,-0.5811111111111111,1.0,0.0625,5.5
1589552521.7069268,-0.34,-3.91,8.82,0.49,0.2644444444444444,-0.5811111111111111,0.0,-5.1875,15.5
1589552521.712966,-0.38,-3.95,8.82,0.5022222222222222,0.2577777777777778,-0.5733333333333334,-2.25,-0.1875,16.0
1589552521.7227526,-0.12,-3.48,8.73,0.5022222222222222,0.2577777777777778,-0.5733333333333334,-8.8125,2.5625,12.6875
1589552521.7341745,-0.06,-3.29,8.66,0.5022222222222222,0.2577777777777778,-0.5733333333333334,-2.875,-7.25,32.125
1589552521.7436733,-0.12,-3.32,8.82,0.5022222222222222,0.2577777777777778,-0.5733333333333334,-1.875,-1.1875,27.1875
1589552521.7549314,-0.18,-3.39,8.82,0.5022222222222222,0.2577777777777778,-0.5733333333333334,6.125,1.9375,24.6875
1589552521.7632241,-0.15,-3.36,8.92,0.49,0.25,-0.5877777777777777,1.125,-1.0625,26.3125
1589552521.7739048,-0.18,-3.38,8.91,0.49,0.25,-0.5877777777777777,2.25,1.0625,27.5625
1589552521.784654,-0.16,-3.31,8.84,0.49,0.25,-0.5877777777777777,3.25,2.6875,33.0
1589552521.7964153,-0.15,-3.24,8.75,0.49,0.25,-0.5877777777777777,6.125,-5.3125,34.375
1589552521.8075585,-0.12,-3.28,8.94,0.49,0.25,-0.5877777777777777,-1.875,-1.6875,40.9375
1589552521.8143814,-0.15,-3.24,8.8,0.4955555555555556,0.23222222222222225,-0.5877777777777777,-4.875,-1.8125,40.1875
1589552521.8244774,-0.15,-3.26,8.8,0.4955555555555556,0.23222222222222225,-0.5877777777777777,4.375,0.9375,29.125
1589552521.836511,-0.17,-3.37,8.68,0.4955555555555556,0.23222222222222225,-0.5877777777777777,-4.875,-5.6875,39.6875
1589552521.844426,-0.2,-3.38,8.73,0.4955555555555556,0.23222222222222225,-0.5877777777777777,3.75,-0.0625,34.75
1589552521.8569481,-0.17,-3.4,8.93,0.4955555555555556,0.23222222222222225,-0.5877777777777777,1.75,0.3125,33.875
1589552521.8645914,-0.24,-3.39,8.86,0.5022222222222222,0.23777777777777775,-0.6022222222222222,2.5,-1.6875,28.5
1589552521.8794215,-0.26,-3.41,8.99,0.5022222222222222,0.23777777777777775,-0.6022222222222222,1.0,5.9375,40.3125
1589552521.8854964,-0.27,-3.34,8.63,0.5022222222222222,0.23777777777777775,-0.6022222222222222,-2.875,-4.5625,42.75
1589552521.8947086,-0.31,-3.45,8.91,0.5022222222222222,0.23777777777777775,-0.6022222222222222,5.5,-0.6875,30.375
1589552521.907086,-0.37,-3.4,8.85,0.5022222222222222,0.23777777777777775,-0.6022222222222222,0.625,7.0,41.4375
1589552521.914644,-0.35,-3.34,8.84,0.51,0.21777777777777774,-0.6144444444444445,3.0,-7.25,40.6875
1589552521.9241633,-0.35,-3.33,8.82,0.51,0.21777777777777774,-0.6144444444444445,1.875,-1.8125,33.5
1589552521.9354193,-0.48,-3.32,8.61,0.51,0.21777777777777774,-0.6144444444444445,2.5,-1.6875,41.6875
1589552521.9453313,-0.49,-3.4,8.87,0.51,0.21777777777777774,-0.6144444444444445,5.5,-0.6875,47.375
1589552521.9571993,-0.46,-3.33,8.82,0.51,0.21777777777777774,-0.6144444444444445,-2.375,-4.8125,47.375
1589552521.9645038,-0.46,-3.33,8.88,0.5222222222222223,0.2111111111111111,-0.6022222222222222,0.0,-1.5625,45.0
1589552521.975922,-0.42,-3.26,8.83,0.5222222222222223,0.2111111111111111,-0.6022222222222222,-1.25,2.1875,50.4375
1589552521.9879231,-0.46,-3.32,8.89,0.5222222222222223,0.2111111111111111,-0.6022222222222222,5.75,-8.0,43.5
1589552521.9954405,-0.47,-3.31,8.72,0.5222222222222223,0.2111111111111111,-0.6022222222222222,0.75,1.3125,52.9375
1589552522.0119407,-0.59,-3.48,8.98,0.5222222222222223,0.2111111111111111,-0.6022222222222222,1.5,-9.125,40.9375
1589552522.0174663,-0.59,-3.43,8.78,0.5488888888888889,0.1988888888888889,-0.6144444444444445,0.125,-4.6875,43.375
1589552522.0304859,-0.61,-3.44,8.88,0.5488888888888889,0.1988888888888889,-0.6144444444444445,0.25,-2.3125,43.125
1589552522.03717,-0.58,-3.36,8.93,0.5488888888888889,0.1988888888888889,-0.6144444444444445,-0.375,-7.375,53.3125
1589552522.0493093,-0.62,-3.36,8.85,0.5488888888888889,0.1988888888888889,-0.6144444444444445,0.875,2.5625,46.125
1589552522.0574913,-0.62,-3.41,9.13,0.5488888888888889,0.1988888888888889,-0.6144444444444445,8.4375,-0.6875,47.625
1589552522.0661066,-0.61,-3.25,8.46,0.5288888888888889,0.16444444444444445,-0.6022222222222222,0.375,-10.5,43.25
1589552522.0754886,-0.7,-3.41,8.79,0.5288888888888889,0.16444444444444445,-0.6022222222222222,-5.5,0.0625,50.0625
1589552522.0875974,-0.76,-3.43,8.44,0.5288888888888889,0.16444444444444445,-0.6022222222222222,-5.5,-3.5625,48.125
1589552522.094906,-0.81,-3.51,8.94,0.5288888888888889,0.16444444444444445,-0.6022222222222222,-3.0,3.3125,46.625
1589552522.1078053,-0.88,-3.54,9.01,0.5288888888888889,0.16444444444444445,-0.6022222222222222,-3.125,-0.6875,52.8125
1589552522.114125,-0.9,-3.53,8.82,0.5488888888888889,0.15222222222222226,-0.6355555555555555,4.0,-4.4375,42.625
1589552522.1251874,-0.9,-3.53,8.82,0.5488888888888889,0.15222222222222226,-0.6355555555555555,4.0,-4.4375,42.625
1589552522.1351776,-0.93,-3.51,8.69,0.5488888888888889,0.15222222222222226,-0.6355555555555555,-1.875,0.0625,43.75
1589552522.1460526,-0.92,-3.49,8.79,0.5488888888888889,0.15222222222222226,-0.6355555555555555,-0.625,-4.6875,47.875
1589552522.163315,-1.06,-3.56,8.97,0.5488888888888889,0.15222222222222226,-0.6355555555555555,-1.375,-5.9375,54.9375
1589552522.169462,-1.05,-3.49,8.57,0.5422222222222223,0.15222222222222226,-0.6644444444444444,-2.0,-4.0625,46.125
1589552522.1815982,-1.06,-3.65,9.26,0.5422222222222223,0.15222222222222226,-0.6644444444444444,7.5625,0.8125,43.875
1589552522.1884072,-1.01,-3.47,8.96,0.5422222222222223,0.15222222222222226,-0.6644444444444444,-0.25,3.6875,49.4375
1589552522.2005224,-0.99,-3.45,9.0,0.5422222222222223,0.15222222222222226,-0.6644444444444444,4.125,-7.75,40.8125
1589552522.2084653,-1.0,-3.34,8.65,0.5422222222222223,0.15222222222222226,-0.6644444444444444,4.0,-0.6875,44.375
1589552522.2201474,-1.06,-3.4,9.09,0.56,0.15222222222222226,-0.6711111111111111,0.375,-0.3125,53.0625
1589552522.226091,-1.13,-3.38,8.79,0.56,0.15222222222222226,-0.6711111111111111,4.875,3.9375,48.0
1589552522.2407699,-1.17,-3.44,8.93,0.56,0.15222222222222226,-0.6711111111111111,4.5,-3.1875,53.3125
1589552522.2465682,-1.22,-3.44,8.72,0.56,0.15222222222222226,-0.6711111111111111,6.875,3.3125,46.25
1589552522.2585654,-1.16,-3.4,8.91,0.56,0.15222222222222226,-0.6711111111111111,2.375,-9.375,46.625
1589552522.2658465,-1.15,-3.36,8.94,0.5666666666666667,0.12555555555555556,-0.6911111111111111,0.875,-2.3125,46.875
1589552522.2764747,-1.16,-3.28,8.85,0.5666666666666667,0.12555555555555556,-0.6911111111111111,5.25,1.3125,46.125
1589552522.2867186,-1.25,-3.35,8.75,0.5666666666666667,0.12555555555555556,-0.6911111111111111,-4.25,-5.5625,54.8125
1589552522.2986276,-1.26,-3.33,8.79,0.5666666666666667,0.12555555555555556,-0.6911111111111111,-2.875,2.4375,47.75
1589552522.3115695,-1.22,-3.29,8.79,0.5666666666666667,0.12555555555555556,-0.6911111111111111,-1.375,-0.8125,46.125
1589552522.3175173,-1.31,-3.38,9.07,0.5455555555555556,0.09333333333333334,-0.7055555555555556,4.375,-1.0625,45.625
1589552522.3277054,-1.34,-3.36,9.03,0.5455555555555556,0.09333333333333334,-0.7055555555555556,1.0,-5.1875,48.375
1589552522.3389318,-1.47,-3.44,8.8,0.5455555555555556,0.09333333333333334,-0.7055555555555556,5.5,-2.8125,48.0
1589552522.3467607,-1.65,-3.57,8.87,0.5455555555555556,0.09333333333333334,-0.7055555555555556,8.9375,-2.4375,43.875
1589552522.3583748,-1.48,-3.4,8.87,0.5455555555555556,0.09333333333333334,-0.7055555555555556,-3.375,-7.125,51.6875
1589552522.371138,-1.56,-3.43,8.85,0.5188888888888888,0.08,-0.7122222222222222,-5.875,-3.3125,49.4375
1589552522.3777034,-1.65,-3.46,8.92,0.5188888888888888,0.08,-0.7122222222222222,0.125,-4.0625,46.75
1589552522.3912945,-1.72,-3.55,8.97,0.5188888888888888,0.08,-0.7122222222222222,-0.25,1.5625,55.0625
1589552522.3975394,-1.73,-3.5,8.65,0.5188888888888888,0.08,-0.7122222222222222,1.0,-2.3125,52.9375
1589552522.4104795,-1.77,-3.47,9.06,0.5188888888888888,0.08,-0.7122222222222222,3.875,0.4375,57.875
1589552522.4178689,-1.91,-3.53,8.89,0.54,0.04777777777777778,-0.7411111111111112,-5.625,-3.3125,54.5625
1589552522.4273481,-1.93,-3.56,9.05,0.54,0.04777777777777778,-0.7411111111111112,-2.875,-5.9375,56.875
1589552522.438086,-1.9,-3.5,9.01,0.54,0.04777777777777778,-0.7411111111111112,1.75,-0.6875,62.375
1589552522.4506333,-1.75,-3.34,8.73,0.54,0.04777777777777778,-0.7411111111111112,-9.1875,-7.125,55.1875
1589552522.4633505,-1.81,-3.34,8.93,0.54,0.04777777777777778,-0.7411111111111112,1.5,-8.5,56.0
1589552522.4687915,-1.85,-3.31,8.87,0.5133333333333333,-0.024444444444444446,-0.72,-0.25,7.75,57.75
1589552522.4790928,-1.98,-3.28,9.0,0.5133333333333333,-0.024444444444444446,-0.72,0.125,7.25,60.875
1589552522.490912,-1.96,-3.23,8.61,0.5133333333333333,-0.024444444444444446,-0.72,-1.375,-0.9375,52.5625
1589552522.4985352,-1.96,-3.27,8.83,0.5133333333333333,-0.024444444444444446,-0.72,4.0,4.8125,54.3125
1589552522.5096688,-2.16,-3.29,8.79,0.5133333333333333,-0.024444444444444446,-0.72,-3.25,1.9375,59.75
1589552522.5223846,-2.08,-3.17,8.98,0.5011111111111111,-0.06333333333333334,-0.7122222222222222,-2.0,1.3125,54.5625
1589552522.5288846,-2.18,-3.23,8.98,0.5011111111111111,-0.06333333333333334,-0.7122222222222222,-3.5,-2.6875,65.6875
1589552522.5425467,-2.2,-3.22,8.75,0.5011111111111111,-0.06333333333333334,-0.7122222222222222,-1.25,3.0625,60.125
1589552522.549274,-2.18,-3.1,8.97,0.5011111111111111,-0.06333333333333334,-0.7122222222222222,4.125,2.8125,57.75
1589552522.5605922,-2.23,-3.15,8.82,0.5011111111111111,-0.06333333333333334,-0.7122222222222222,1.75,-4.5625,65.1875
1589552522.5680866,-2.37,-3.19,8.94,0.5277777777777778,-0.10444444444444444,-0.72,-1.625,-4.9375,67.0625
1589552522.5780902,-2.42,-3.28,9.05,0.5277777777777778,-0.10444444444444444,-0.72,1.625,-7.25,67.9375
1589552522.5871634,-2.31,-3.1,8.68,0.5277777777777778,-0.10444444444444444,-0.72,3.625,0.3125,72.5
1589552522.5928164,-2.31,-3.1,8.68,0.5277777777777778,-0.10444444444444444,-0.72,3.625,0.3125,72.5
1589552522.6092198,-2.37,-2.99,8.49,0.5277777777777778,-0.10444444444444444,-0.72,-7.5625,-8.375,73.75
1589552522.621272,-2.8,-3.22,9.32,0.4688888888888889,-0.15777777777777774,-0.7411111111111112,2.75,1.6875,82.6875
1589552522.6276019,-2.57,-3.04,8.71,0.4688888888888889,-0.15777777777777774,-0.7411111111111112,-5.875,-6.1875,98.125
1589552522.6403694,-2.65,-3.09,8.8,0.4688888888888889,-0.15777777777777774,-0.7411111111111112,5.75,-7.375,83.0625
1589552522.6492176,-2.69,-3.01,8.99,0.4688888888888889,-0.15777777777777774,-0.7411111111111112,3.5,-2.0625,98.625
1589552522.6608436,-2.56,-2.88,8.91,0.4688888888888889,-0.15777777777777774,-0.7411111111111112,-2.625,-4.8125,92.3125
1589552522.6715074,-2.56,-2.89,9.09,0.4122222222222222,-0.22333333333333333,-0.67,-2.375,-8.375,100.75
1589552522.6787279,-2.57,-2.76,8.83,0.4122222222222222,-0.22333333333333333,-0.67,3.0,-1.8125,98.5
1589552522.6932259,-2.64,-2.78,9.04,0.4122222222222222,-0.22333333333333333,-0.67,2.0,-3.5625,94.6875
1589552522.699224,-2.54,-2.61,8.58,0.4122222222222222,-0.22333333333333333,-0.67,5.875,-5.0625,97.4375
1589552522.7143974,-2.35,-2.48,8.91,0.4122222222222222,-0.22333333333333333,-0.67,6.25,0.9375,87.75
1589552522.7199175,-2.46,-2.48,9.19,0.4088888888888889,-0.24,-0.6266666666666667,3.75,-6.0625,96.5625
1589552522.7288125,-2.44,-2.3,8.77,0.4088888888888889,-0.24,-0.6266666666666667,4.0,-1.0625,84.125
1589552522.7383535,-2.45,-2.29,8.81,0.4088888888888889,-0.24,-0.6266666666666667,-6.875,0.3125,70.5
1589552522.748765,-2.57,-2.31,9.07,0.4088888888888889,-0.24,-0.6266666666666667,1.0,-1.9375,86.375
1589552522.7603831,-2.48,-2.16,8.83,0.4088888888888889,-0.24,-0.6266666666666667,5.75,-9.75,76.0
1589552522.771922,-2.32,-2.07,9.16,0.4155555555555556,-0.2533333333333333,-0.6222222222222222,-0.5,-8.75,81.9375
1589552522.7788925,-2.43,-2.05,8.68,0.4155555555555556,-0.2533333333333333,-0.6222222222222222,-1.375,-4.4375,67.5625
1589552522.7892187,-2.51,-2.08,8.98,0.4155555555555556,-0.2533333333333333,-0.6222222222222222,0.75,-2.8125,78.1875
1589552522.7985468,-2.64,-2.1,8.94,0.4155555555555556,-0.2533333333333333,-0.6222222222222222,5.125,-1.3125,68.0625
1589552522.810215,-2.91,-2.14,8.76,0.4155555555555556,-0.2533333333333333,-0.6222222222222222,-0.75,-3.0625,71.0
1589552522.8182864,-2.91,-2.2,9.35,0.43,-0.2611111111111111,-0.5911111111111111,1.5,-6.6875,69.1875
1589552522.8285189,-2.74,-2.01,8.68,0.43,-0.2611111111111111,-0.5911111111111111,-8.5625,-1.8125,69.3125
1589552522.8339846,-2.74,-2.01,8.68,0.43,-0.2611111111111111,-0.5911111111111111,-8.5625,-1.8125,69.3125
1589552522.8444116,-2.56,-1.95,9.12,0.43,-0.2611111111111111,-0.5911111111111111,1.5,1.8125,77.1875
1589552522.8512163,-2.63,-1.93,8.59,0.43,-0.2611111111111111,-0.5911111111111111,5.75,-2.6875,67.5625
1589552522.8659036,-2.82,-1.97,9.21,0.43,-0.2611111111111111,-0.5911111111111111,-1.375,1.0625,70.375
1589552522.8723679,-2.73,-1.8,8.86,0.44222222222222224,-0.2677777777777778,-0.5911111111111111,6.375,-8.75,77.5625
1589552522.8836546,-2.59,-1.74,9.13,0.44222222222222224,-0.2677777777777778,-0.5911111111111111,-4.875,-4.5625,80.3125
1589552522.8894901,-2.67,-1.69,8.99,0.44222222222222224,-0.2677777777777778,-0.5911111111111111,-5.75,-2.4375,74.375
1589552522.9031725,-2.79,-1.64,8.89,0.44222222222222224,-0.2677777777777778,-0.5911111111111111,-2.875,-4.3125,81.6875
1589552522.9114645,-2.66,-1.53,9.03,0.44222222222222224,-0.2677777777777778,-0.5911111111111111,1.25,-3.4375,76.375
1589552522.9228616,-2.65,-1.53,8.99,0.4211111111111111,-0.28,-0.6133333333333333,4.625,-10.5,76.75
1589552522.9303498,-2.75,-1.56,9.38,0.4211111111111111,-0.28,-0.6133333333333333,-1.75,-2.9375,73.25
1589552522.939875,-2.53,-1.35,8.85,0.4211111111111111,-0.28,-0.6133333333333333,-0.125,-6.3125,61.375
1589552522.9500554,-2.91,-1.47,9.11,0.4211111111111111,-0.28,-0.6133333333333333,-1.75,-9.25,67.9375
1589552522.9625866,-2.95,-1.52,9.4,0.4211111111111111,-0.28,-0.6133333333333333,4.375,1.0625,66.1875
1589552522.9698193,-2.58,-1.31,8.77,0.42777777777777776,-0.2855555555555556,-0.5911111111111111,-4.375,-4.5625,53.9375
1589552522.9828305,-2.8,-1.63,9.28,0.42777777777777776,-0.2855555555555556,-0.5911111111111111,0.125,-5.4375,60.375
1589552522.9892325,-2.12,-0.95,8.73,0.42777777777777776,-0.2855555555555556,-0.5911111111111111,2.75,-6.5625,41.4375
1589552523.0006707,-2.11,-0.79,9.14,0.42777777777777776,-0.2855555555555556,-0.5911111111111111,-2.125,0.5625,40.8125
1589552523.011507,-2.82,-1.48,9.73,0.42777777777777776,-0.2855555555555556,-0.5911111111111111,3.5,1.9375,28.375
1589552523.0196931,-2.77,-1.08,8.97,0.3977777777777778,-0.3055555555555556,-0.6077777777777778,-3.75,-7.875,19.75
1589552523.0302017,-2.86,-1.02,9.37,0.3977777777777778,-0.3055555555555556,-0.6077777777777778,-2.75,5.0625,15.0
1589552523.0402036,-2.85,-1.05,8.78,0.3977777777777778,-0.3055555555555556,-0.6077777777777778,2.0,-3.0625,0.5
1589552523.0546947,-2.8,-1.13,9.11,0.3977777777777778,-0.3055555555555556,-0.6077777777777778,1.625,-0.0625,4.625
1589552523.0615346,-2.48,-1.07,9.2,0.3977777777777778,-0.3055555555555556,-0.6077777777777778,4.25,-1.1875,3.125
1589552523.0692966,-1.92,-0.96,9.02,0.41,-0.33,-0.6133333333333333,-7.0625,0.0625,-5.25
1589552523.080467,-2.69,-1.08,8.77,0.41,-0.33,-0.6133333333333333,-3.25,2.5625,-20.75
1589552523.0952785,-2.37,-1.05,8.97,0.41,-0.33,-0.6133333333333333,-5.375,-0.9375,-25.8125
1589552523.1019626,-2.86,-1.14,9.07,0.41,-0.33,-0.6133333333333333,6.375,3.4375,-32.625
1589552523.1136243,-3.19,-1.11,9.03,0.41,-0.33,-0.6133333333333333,-4.75,-1.6875,-25.4375
1589552523.1197608,-2.77,-1.2,8.98,0.3955555555555556,-0.3422222222222222,-0.6144444444444445,2.625,3.0625,-44.375
1589552523.134015,-3.13,-1.26,9.35,0.3955555555555556,-0.3422222222222222,-0.6144444444444445,5.25,-0.6875,-46.0
1589552523.1403039,-3.09,-1.19,8.8,0.3955555555555556,-0.3422222222222222,-0.6144444444444445,-0.125,-6.4375,-41.4375
1589552523.1502273,-3.17,-1.29,8.78,0.3955555555555556,-0.3422222222222222,-0.6144444444444445,9.0625,12.0,-49.9375
1589552523.1620185,-3.36,-1.3,8.47,0.3955555555555556,-0.3422222222222222,-0.6144444444444445,-2.75,-0.4375,-50.4375
1589552523.1729865,-3.38,-1.43,8.94,0.4155555555555556,-0.3555555555555556,-0.6433333333333333,-0.5,7.25,-49.0625
1589552523.1807015,-3.42,-1.6,9.47,0.4155555555555556,-0.3555555555555556,-0.6433333333333333,7.3125,8.875,-58.5
1589552523.1904461,-3.39,-1.52,8.8,0.4155555555555556,-0.3555555555555556,-0.6433333333333333,-7.5625,-3.8125,-56.375
1589552523.200254,-3.41,-1.59,8.97,0.4155555555555556,-0.3555555555555556,-0.6433333333333333,-5.0,2.8125,-56.375
1589552523.212347,-3.32,-1.63,9.18,0.4155555555555556,-0.3555555555555556,-0.6433333333333333,-0.625,-1.4375,-60.5
1589552523.2257314,-3.14,-1.61,8.98,0.4222222222222222,-0.4066666666666667,-0.6355555555555555,-7.5625,4.6875,-60.0
1589552523.2315993,-3.21,-1.73,9.23,0.4222222222222222,-0.4066666666666667,-0.6355555555555555,-3.625,2.8125,-58.0
1589552523.2459614,-3.09,-1.65,8.84,0.4222222222222222,-0.4066666666666667,-0.6355555555555555,-1.75,3.0625,-67.6875
1589552523.2521048,-3.22,-1.78,8.95,0.4222222222222222,-0.4066666666666667,-0.6355555555555555,-1.125,0.8125,-72.625
1589552523.2626975,-2.79,-1.77,9.02,0.4222222222222222,-0.4066666666666667,-0.6355555555555555,-9.5625,2.4375,-82.8125
1589552523.2705832,-2.74,-1.84,9.0,0.4577777777777778,-0.65,-0.5788888888888889,-4.125,2.3125,-82.8125
1589552523.28492,-2.49,-1.84,8.94,0.4577777777777778,-0.65,-0.5788888888888889,-5.125,7.5,-81.5625
1589552523.291001,-2.61,-1.91,8.89,0.4577777777777778,-0.65,-0.5788888888888889,0.25,11.625,-94.4375
1589552523.3052444,-2.8,-1.98,8.73,0.4577777777777778,-0.65,-0.5788888888888889,0.25,5.6875,-97.3125
1589552523.3128436,-2.49,-1.97,8.52,0.4577777777777778,-0.65,-0.5788888888888889,3.375,5.5625,-102.625
1589552523.3259149,-2.53,-2.18,9.66,0.7066666666666667,-1.2066666666666668,-0.17555555555555555,4.125,3.8125,-105.5625
1589552523.332609,-2.57,-2.13,9.05,0.7066666666666667,-1.2066666666666668,-0.17555555555555555,-4.625,-1.6875,-105.5625
1589552523.3423116,-2.5,-2.28,9.32,0.7066666666666667,-1.2066666666666668,-0.17555555555555555,1.375,9.25,-107.3125
1589552523.3560677,-2.44,-2.27,8.84,0.7066666666666667,-1.2066666666666668,-0.17555555555555555,-0.5,-0.9375,-116.0
1589552523.3632395,-2.35,-2.29,8.8,0.7066666666666667,-1.2066666666666668,-0.17555555555555555,-6.125,2.0625,-118.125
1589552523.3710654,-2.73,-2.61,9.1,0.9333333333333332,-0.7055555555555556,-0.5988888888888889,-6.0,0.8125,-111.5625
1589552523.3833158,-2.77,-2.64,8.82,0.9333333333333332,-0.7055555555555556,-0.5988888888888889,8.0625,6.1875,-122.3125
1589552523.3925974,-2.34,-2.5,8.79,0.9333333333333332,-0.7055555555555556,-0.5988888888888889,-5.625,5.0625,-117.0
1589552523.404574,-2.53,-2.74,9.09,0.9333333333333332,-0.7055555555555556,-0.5988888888888889,-3.75,9.125,-116.25
1589552523.416835,-2.76,-2.88,8.8,0.9333333333333332,-0.7055555555555556,-0.5988888888888889,-6.75,5.6875,-118.75
1589552523.4228885,-2.72,-3.01,9.2,0.6644444444444444,-0.3144444444444445,-0.6755555555555556,-1.375,4.1875,-111.5625
1589552523.4356766,-2.79,-3.02,9.06,0.6644444444444444,-0.3144444444444445,-0.6755555555555556,0.75,7.5,-108.6875
1589552523.4418974,-2.67,-2.98,8.75,0.6644444444444444,-0.3144444444444445,-0.6755555555555556,-8.3125,3.9375,-107.6875
1589552523.4555,-2.43,-3.02,9.2,0.6644444444444444,-0.3144444444444445,-0.6755555555555556,2.125,5.1875,-92.9375
1589552523.4649758,-2.6,-3.14,9.02,0.6644444444444444,-0.3144444444444445,-0.6755555555555556,2.75,2.3125,-102.75
1589552523.47452,-2.45,-3.06,8.73,0.6022222222222222,-0.15555555555555556,-0.68,-3.75,8.75,-101.625
1589552523.4827745,-2.27,-3.16,9.11,0.6022222222222222,-0.15555555555555556,-0.68,-1.75,7.5,-96.6875
1589552523.4931405,-2.39,-3.23,8.66,0.6022222222222222,-0.15555555555555556,-0.68,3.875,2.6875,-108.6875
1589552523.5020885,-2.61,-3.51,9.03,0.6022222222222222,-0.15555555555555556,-0.68,-3.375,1.3125,-103.25
1589552523.5156054,-2.7,-3.51,8.7,0.6022222222222222,-0.15555555555555556,-0.68,2.25,-3.1875,-99.25
1589552523.5220578,-2.18,-3.19,9.09,0.5933333333333334,-0.06333333333333334,-0.6888888888888889,-0.625,5.0625,-87.125
1589552523.5338812,-2.2,-3.34,9.33,0.5933333333333334,-0.06333333333333334,-0.6888888888888889,1.75,5.4375,-87.875
1589552523.5426161,-2.13,-3.24,8.49,0.5933333333333334,-0.06333333333333334,-0.6888888888888889,-10.3125,-0.0625,-86.5
1589552523.5546253,-2.12,-3.33,9.15,0.5933333333333334,-0.06333333333333334,-0.6888888888888889,-5.5,8.625,-88.375
1589552523.5685134,-2.07,-3.29,8.72,0.5933333333333334,-0.06333333333333334,-0.6888888888888889,-0.625,6.1875,-79.5625
1589552523.5736835,-2.09,-3.44,9.06,0.6177777777777778,-0.0033333333333333327,-0.7177777777777777,-5.125,3.8125,-71.125
1589552523.5860608,-2.12,-3.48,9.03,0.6177777777777778,-0.0033333333333333327,-0.7177777777777777,0.25,3.0625,-70.625
1589552523.5926569,-2.14,-3.84,8.89,0.6177777777777778,-0.0033333333333333327,-0.7177777777777777,-1.375,11.125,-72.375
1589552523.6071231,-2.13,-4.04,8.98,0.6177777777777778,-0.0033333333333333327,-0.7177777777777777,3.375,5.9375,-76.0
1589552523.6147122,-1.61,-3.63,9.24,0.6177777777777778,-0.0033333333333333327,-0.7177777777777777,4.25,3.9375,-74.125
1589552523.6229706,-1.29,-3.48,8.55,0.6088888888888889,0.017777777777777778,-0.7111111111111111,2.5,5.0625,-75.75
1589552523.6326056,-1.06,-3.15,8.19,0.6088888888888889,0.017777777777777778,-0.7111111111111111,-12.9375,3.8125,-84.75
1589552523.6432116,-0.76,-2.95,8.21,0.6088888888888889,0.017777777777777778,-0.7111111111111111,-1.75,-1.0625,-92.8125
1589552523.654512,-1.44,-3.63,9.65,0.6088888888888889,0.017777777777777778,-0.7111111111111111,-0.375,17.4375,-77.4375
1589552523.6651056,-1.11,-3.1,7.21,0.6088888888888889,0.017777777777777778,-0.7111111111111111,-6.875,-2.3125,-89.0
1589552523.6724124,-1.26,-3.55,9.16,0.5866666666666667,0.057777777777777775,-0.6888888888888889,-13.4375,-3.1875,-73.75
1589552523.6831086,-1.26,-3.55,9.16,0.5866666666666667,0.057777777777777775,-0.6888888888888889,-13.4375,-3.1875,-73.75
1589552523.6932213,-1.03,-3.18,8.12,0.5866666666666667,0.057777777777777775,-0.6888888888888889,-1.0,138.125,15.625
1589552523.7046387,-34.98,-31.64,0.75,0.5866666666666667,0.057777777777777775,-0.6888888888888889,-0.5,-48.5625,-294.875
1589552523.7152348,3.77,8.56,1.17,0.5866666666666667,0.057777777777777775,-0.6888888888888889,-62.5,-109.5,-227.875
1589552523.726731,-6.61,-4.8,11.29,0.5755555555555556,0.10777777777777778,-0.6888888888888889,42.625,102.0625,-131.25
1589552523.7385972,-0.65,0.35,3.26,0.5755555555555556,0.10777777777777778,-0.6888888888888889,-41.0625,-26.25,-105.1875
1589552523.7444372,-0.25,-2.08,8.27,0.5755555555555556,0.10777777777777778,-0.6888888888888889,0.625,19.1875,-68.9375
1589552523.7590034,-0.03,-4.01,13.63,0.5755555555555556,0.10777777777777778,-0.6888888888888889,2.5,6.4375,-54.8125
1589552523.7657485,0.1,-1.46,6.16,0.5755555555555556,0.10777777777777778,-0.6888888888888889,-7.4375,-1.8125,-58.0
1589552523.7734876,-0.67,-3.07,10.22,0.5522222222222222,0.17555555555555555,-0.6822222222222222,10.0625,7.5,-36.1875
1589552523.784874,-0.54,-2.66,8.51,0.5522222222222222,0.17555555555555555,-0.6822222222222222,6.875,1.8125,-34.875
1589552523.7975528,-1.71,-6.8,8.7,0.5522222222222222,0.17555555555555555,-0.6822222222222222,-17.625,-3.9375,-65.5625
1589552523.803805,0.24,-2.1,8.13,0.5522222222222222,0.17555555555555555,-0.6822222222222222,0.625,34.3125,-51.9375
1589552523.8157165,-0.13,-1.77,10.65,0.5522222222222222,0.17555555555555555,-0.6822222222222222,-4.875,4.5625,-39.4375
1589552523.8249345,-0.83,-3.16,8.1,0.5466666666666666,0.21333333333333332,-0.6611111111111111,-4.625,-0.8125,-31.25
1589552523.8357196,-1.76,-5.89,8.7,0.5466666666666666,0.21333333333333332,-0.6611111111111111,5.0,1.0625,-36.9375
1589552523.8438704,-0.48,-4.03,8.65,0.5466666666666666,0.21333333333333332,-0.6611111111111111,-0.25,1.6875,-34.25
1589552523.8552058,-1.01,-3.82,8.71,0.5466666666666666,0.21333333333333332,-0.6611111111111111,-7.8125,-3.4375,-19.875
1589552523.866075,-1.16,-4.58,8.76,0.5466666666666666,0.21333333333333332,-0.6611111111111111,-3.5,1.5625,-22.4375
1589552523.8793182,-0.93,-4.4,8.9,0.5633333333333334,0.2344444444444445,-0.6677777777777778,-2.0,5.1875,-19.375
1589552523.8910036,-1.11,-4.24,8.54,0.5633333333333334,0.2344444444444445,-0.6677777777777778,-4.0,-0.6875,-16.25
1589552523.8973765,-0.88,-4.4,8.68,0.5633333333333334,0.2344444444444445,-0.6677777777777778,8.5625,-2.3125,-11.6875
1589552523.9046454,-0.96,-4.42,8.95,0.5633333333333334,0.2344444444444445,-0.6677777777777778,-2.25,4.8125,-6.0
1589552523.917175,-1.08,-4.46,8.82,0.5633333333333334,0.2344444444444445,-0.6677777777777778,-3.75,0.3125,-5.875
1589552523.924839,-0.98,-4.46,8.82,0.5644444444444444,0.25,-0.6611111111111111,2.625,-0.3125,-1.625
1589552523.9362905,-0.87,-4.42,8.82,0.5644444444444444,0.25,-0.6611111111111111,1.0,-3.3125,-1.875
1589552523.9466536,-0.95,-4.37,8.7,0.5644444444444444,0.25,-0.6611111111111111,0.125,2.8125,-13.5625
1589552523.9556305,-0.87,-4.24,8.82,0.5644444444444444,0.25,-0.6611111111111111,-0.625,2.9375,8.4375
1589552523.9677086,-0.84,-4.26,8.85,0.5644444444444444,0.25,-0.6611111111111111,0.875,9.25,-10.1875
1589552523.9748638,-0.86,-4.23,8.85,0.5433333333333333,0.25555555555555554,-0.6555555555555556,2.75,2.5625,5.75
1589552523.9893699,-0.87,-4.29,8.75,0.5433333333333333,0.25555555555555554,-0.6555555555555556,-1.0,-2.3125,6.75
1589552523.995619,-0.84,-4.27,8.72,0.5433333333333333,0.25555555555555554,-0.6555555555555556,4.0,-1.3125,-5.5
1589552524.0060072,-0.85,-4.25,8.72,0.5433333333333333,0.25555555555555554,-0.6555555555555556,-2.25,-0.5625,4.375
1589552524.0181336,-0.85,-4.23,8.84,0.5433333333333333,0.25555555555555554,-0.6555555555555556,-0.5,1.0625,-2.625
1589552524.0293555,-0.84,-4.22,8.86,0.5633333333333334,0.2577777777777778,-0.6611111111111111,-0.875,-5.6875,1.5
1589552524.0394714,-0.84,-4.28,8.85,0.5633333333333334,0.2577777777777778,-0.6611111111111111,3.0,-6.1875,-7.8125
1589552524.0479608,-0.85,-4.28,8.68,0.5633333333333334,0.2577777777777778,-0.6611111111111111,5.25,-2.3125,7.5625
1589552524.061336,-0.86,-4.23,8.81,0.5633333333333334,0.2577777777777778,-0.6611111111111111,-2.25,-3.5625,-6.875
1589552524.068186,-0.85,-4.24,8.82,0.5633333333333334,0.2577777777777778,-0.6611111111111111,-1.25,0.6875,1.875
1589552524.075209,-0.83,-4.24,8.88,0.5777777777777777,0.27,-0.6822222222222222,-2.625,-1.0625,2.375
