time,acc_x,acc_y,acc_z,mag_x,mag_y,mag_z,gyr_x,gyr_y,gyr_z
1588960089.082331,0.43,-2.3,-9.69,-0.5344444444444445,0.11555555555555555,0.6522222222222223,0.0625,0.1875,0.0
1588960089.092331,0.448249080975689,-2.29,-9.633813189268233,-0.5332987387533765,0.12242978970196305,0.6565759038482804,0.11211081097548592,0.012889189024514084,0.07538918902451408
1588960089.102331,0.4777358191822032,-2.2911320904088983,-9.606603728773305,-0.5288888888888889,0.14888888888888888,0.6733333333333333,0.0625,0.06957556505561494,0.125
1588960089.112331,0.4700963649985791,-2.3050481824992897,-9.610289094995737,-0.5288888888888889,0.14888888888888888,0.6733333333333333,0.12560228124111916,0.09344885937944042,0.09344885937944042
1588960089.122331,0.48,-2.31,-9.64,-0.5288888888888889,0.14888888888888888,0.6733333333333333,0.1875,0.0625,0.0625
1588960089.132331,0.4783704259801903,-2.32,-9.565111277940572,-0.5288888888888889,0.14888888888888888,0.6733333333333333,0.11481516237618966,0.14536967524762068,0.020369675247620664
1588960089.142331,0.4636246868070155,-2.3136246868070156,-9.546375313192984,-0.5274721526237812,0.15313909768421186,0.6778196648395076,0.04921809751461567,0.289845707456153,0.13828190248538433
1588960089.1523309,0.4370299466981324,-2.2929700533018678,-9.59376042641494,-0.5222222222222223,0.1688888888888889,0.6944444444444444,-0.018562833136672497,0.400374333726655,0.1689371668633275
1588960089.1623309,0.4348549367504518,-2.295145063249548,-9.664564810251356,-0.5222222222222223,0.1688888888888889,0.6944444444444444,-0.09284335469032363,0.4035300640709709,0.125
1588960089.1723309,0.45350842013405374,-2.2870168402681075,-9.688949479195678,-0.5222222222222223,0.1688888888888889,0.6944444444444444,-0.12171712248649251,0.6436447483243284,0.14692762583783583
1588960089.1823308,0.4616814010069135,-2.296637197986173,-9.643274395972346,-0.5222222222222223,0.1688888888888889,0.6944444444444444,0.021017512586418714,0.5940262688796281,0.15597373112037194
1588960089.1923308,0.4747437662046669,-2.2823718831023334,-9.593396818283665,-0.5222222222222223,0.16414512268422193,0.6944444444444444,0.125,0.6462301142729105,0.014824269389584201
1588960089.2023308,0.4786679597071889,-2.2928330100732026,-9.537166989926796,-0.5222222222222223,0.14888888888888888,0.6944444444444444,0.10729368704248264,0.27708737408496525,0.0625
1588960089.2123308,0.452425702308703,-2.299393574422824,-9.530606425577176,-0.5222222222222223,0.14888888888888888,0.6944444444444444,0.06629015985734843,0.19508031971469686,0.0625
1588960089.2223308,0.4776807664174977,-2.2953615328349954,-9.643042299252492,-0.5222222222222223,0.14888888888888888,0.6944444444444444,0.0,-0.125,0.125
1588960089.2323308,0.470198026867429,-2.280396053734858,-9.620594080602286,-0.5222222222222223,0.14888888888888888,0.6944444444444444,0.0,-0.125,0.125
1588960089.2423308,0.4216537404715476,-2.3,-9.593307480943094,-0.524243460576336,0.14778639524119047,0.6944444444444444,-0.020671755894344973,-0.010820610264137567,0.020671755894344973
1588960089.2523308,0.4329174480853821,-2.2985412759573087,-9.605623827871927,-0.5344444444444445,0.14222222222222222,0.6944444444444444,-0.10676594946636206,0.2864681010672759,0.11588297473318103
1588960089.2623308,0.4559985442150301,-2.292999272107515,-9.606993448967636,-0.5344444444444445,0.14222222222222222,0.6944444444444444,0.03749090134393807,0.5,0.08124545067196903
1588960089.2723308,0.47269795772124684,-2.3,-9.664604084557507,-0.5344444444444445,0.14222222222222222,0.6944444444444444,0.11375850949480473,0.5056207452525976,0.11937925474740237
1588960089.2823308,0.5,-2.297067727812539,-9.595338639062694,-0.5344444444444445,0.14222222222222222,0.6944444444444444,0.03665340234326533,0.48919319531346933,0.0625
1588960089.2923307,0.49850251510874677,-2.2907487424456265,-9.556256287771868,-0.5340284764190963,0.14222222222222222,0.6933629275785393,0.12032035971483371,0.30782035971483374,0.06717964028516629
1588960089.3023307,0.4761771501925545,-2.3,-9.532937098844673,-0.5288888888888889,0.14222222222222222,0.68,0.03860718870346598,0.25,0.125
1588960089.3123307,0.4625936737330717,-2.2925936737330717,-9.60703163133464,-0.5288888888888889,0.14222222222222222,0.68,0.0,0.3194343087524525,0.10185523041584917
1588960089.3223307,0.4539748677248677,-2.287949735449735,-9.662050264550265,-0.5288888888888889,0.14222222222222222,0.68,0.024842923280423278,0.38781415343915343,0.03765707671957672
1588960089.3323307,0.45762383840487286,-2.3,-9.65,-0.5288888888888889,0.14222222222222222,0.68,0.047648990030455265,0.29764899003045525,0.029702019939089466
1588960089.3423307,0.4521649269854492,-2.3,-9.65,-0.5288888888888889,0.14222222222222222,0.68,0.01353079365905719,0.2635307936590572,0.09793841268188562
1588960089.3523307,0.45,-2.2902799754205394,-9.591679852523235,-0.5083688369989161,0.1541022522637854,0.7016000546210239,0.06075015362162993,0.3715003072432599,0.18575015362162994
1588960089.3623307,0.45,-2.29,-9.58113982285665,-0.5077777777777778,0.15444444444444444,0.7022222222222222,0.22862832143778483,0.20887167856221517,0.1875
1588960089.3723307,0.448278431372549,-2.31,-9.654505882352941,-0.5077777777777778,0.15444444444444444,0.7022222222222222,0.07325980392156863,0.3125,0.07325980392156863
1588960089.3823307,0.4408019607843137,-2.31,-9.587217647058823,-0.5077777777777778,0.15444444444444444,0.7022222222222222,0.11998774509803922,0.3125,0.11998774509803922
1588960089.3923306,0.46936506244937976,-2.3,-9.56873012489876,-0.5074250346940998,0.15409170136076653,0.7017283819050731,-0.050594920925870666,0.1329367193827529,0.1795632806172471
1588960089.4023306,0.4604254230785626,-2.3,-9.550850846157125,-0.5024585683769792,0.1491252350436459,0.6947753290611042,0.11702331727695126,0.2446822115179675,0.06781778848203249
1588960089.4123306,0.46541174973180355,-2.2922941251340982,-9.653764750804589,-0.5022222222222222,0.14888888888888888,0.6944444444444444,0.0338234358237722,0.3893382820881139,0.0963234358237722
1588960089.4223306,0.4501589177591505,-2.2999205411204247,-9.699523246722547,-0.5022222222222222,0.14888888888888888,0.6944444444444444,-0.06150676400530938,0.4370033820026547,0.0009932359946906166
1588960089.4323306,0.4523763570566948,-2.3052472858866104,-9.648118214716526,-0.5022222222222222,0.14888888888888888,0.6944444444444444,0.08044330518697226,0.4375,0.10705669481302774
1588960089.4423306,0.45870069360675514,-2.29259861278649,-9.616496531966224,-0.5022222222222222,0.14888888888888888,0.6944444444444444,-0.03813800512665863,0.4375,0.22563800512665863
1588960089.4523306,0.461994052208393,-2.3,-9.53,-0.5077777777777778,0.14888888888888888,0.6944444444444444,0.05626858684877189,0.2562314131512281,0.1187685868487719
1588960089.4623306,0.48,-2.3003563843907617,-9.534989381470666,-0.5077777777777778,0.14888888888888888,0.6944444444444444,0.0,0.3169548048845235,0.06695480488452349
1588960089.4723306,0.4703048321541472,-2.31,-9.657073109538864,-0.5077777777777778,0.14888888888888888,0.6944444444444444,-0.02019826634552662,0.3769052009634201,0.1875
1588960089.4823306,0.4474098303911388,-2.3048196607822775,-9.627409830391139,-0.5077777777777778,0.14888888888888888,0.6944444444444444,-0.04631143994461752,0.2985656801661475,0.15512287988923504
1588960089.4923306,0.44015074420214606,-2.290301488404292,-9.620150744202146,-0.5077777777777778,0.14888888888888888,0.6944444444444444,-0.0009421512634129464,0.4346735462097612,0.06438430252682589
1588960089.5023305,0.4577912174599001,-2.2977912174599,-9.614417565080199,-0.5155555555555555,0.15444444444444444,0.6733333333333333,-0.0625,0.5,0.0625
1588960089.5123305,0.4508981396266106,-2.2908981396266106,-9.628203720746779,-0.5155555555555555,0.15444444444444444,0.6733333333333333,-0.0625,0.5,0.0625
1588960089.5223305,0.47552828902522154,-2.3,-9.662358554873892,-0.5155555555555555,0.15444444444444444,0.6733333333333333,0.09705180640763462,0.4029481935923654,0.0625
1588960089.5323305,0.49233523780406246,-2.3023352378040625,-9.568982859763437,-0.5155555555555555,0.15444444444444444,0.6733333333333333,0.14371429117382914,0.21033334607226797,0.04790476372460971
1588960089.5423305,0.49877941470568626,-2.310610292647157,-9.5,-0.5155555555555555,0.15369853120903051,0.6746217289217756,0.0038143290447303514,-0.1326286580894607,0.0
1588960089.5523305,0.47110182632667125,-2.311101826326671,-9.511864231564438,-0.5155555555555555,0.14222222222222222,0.6944444444444444,0.0625,-0.30561358545830464,0.018537861819434873
1588960089.5623305,0.44554430258231736,-2.294455697417683,-9.562278487088413,-0.5155555555555555,0.14222222222222222,0.6944444444444444,0.03465189113948354,-0.42357594556974176,0.020727836709225303
1588960089.5723305,0.4275243472855367,-2.31,-9.644951305428927,-0.5155555555555555,0.14222222222222222,0.6944444444444444,-0.07797282946539577,-0.2666901937422296,-0.06310868213841692
1588960089.5823305,0.4272056111328452,-2.307598129622385,-9.652794388867155,-0.5155555555555555,0.14222222222222222,0.6944444444444444,-0.15502337972018854,0.1375584493004713,0.07996493041971721
1588960089.5923305,0.45074662020456235,-2.298880069693156,-9.628880069693157,-0.5160533023585971,0.14193186992044798,0.6936563453396286,-0.23833405930371374,0.375,-0.0578336237214855
1588960089.6023304,0.47207109499290073,-2.2720710949929006,-9.595857810014198,-0.5288888888888889,0.13444444444444445,0.6733333333333333,0.04955565629437022,0.375,0.10133303111688935
1588960089.6123304,0.4792461125271567,-2.2792461125271566,-9.581507774945687,-0.5288888888888889,0.13444444444444445,0.6733333333333333,0.004711796705270541,0.375,0.2358646098841884
1588960089.6223304,0.48178869281780373,-2.2827371023940652,-9.645366078453412,-0.5288888888888889,0.13444444444444445,0.6733333333333333,0.1592137799258177,0.2782862200741823,0.0967137799258177
1588960089.6323304,0.45818342949805785,-2.2936331410038844,-9.569100576988347,-0.5288888888888889,0.13444444444444445,0.6733333333333333,0.22729286872572313,0.1307321718143078,0.16479286872572313
1588960089.6423304,0.4502747294188634,-2.309450541162273,-9.52164837651318,-0.5288888888888889,0.13444444444444445,0.6733333333333333,0.12843411773579214,-0.1164147056605197,0.06593411773579214
1588960089.6523304,0.4345488025951722,-2.31,-9.543176796107241,-0.49884489393505704,0.1456036425701534,0.6844925314590423,0.07671500810991318,-0.2698549756702605,0.11078499189008682
1588960089.6623304,0.45041983046080913,-2.2991603390783815,-9.642099152304047,-0.49,0.14888888888888888,0.6877777777777778,0.11712817885982885,-0.04150847695954361,0.06512394038005705
1588960089.6723304,0.4588451649190471,-2.2823096701619057,-9.684225824595234,-0.49,0.14888888888888888,0.6877777777777778,-0.04084684223213211,0.3797582459523523,0.11778228074404404
1588960089.6823304,0.4637883195345715,-2.3018941597672855,-9.640529201163572,-0.49,0.14888888888888888,0.6877777777777778,0.0,0.5743384985455359,0.125
1588960089.6923304,0.47943052136943387,-2.309715260684717,-9.601423696576415,-0.49,0.14888888888888888,0.6877777777777778,0.0,0.6232203792794808,0.125
1588960089.7023304,0.46182286324786326,-2.308177136752137,-9.551822863247864,-0.5155555555555555,0.14222222222222222,0.7022222222222222,0.1136071047008547,0.6647142094017094,0.1988928952991453
1588960089.7123303,0.47,-2.3006503575727537,-9.56520286058203,-0.5155555555555555,0.14222222222222222,0.7022222222222222,0.0584352651702896,0.542176325851448,0.2378057955108688
1588960089.7223303,0.47,-2.308074948665298,-9.624599589322383,-0.5155555555555555,0.14222222222222222,0.7022222222222222,0.012031570841889112,0.3101578542094456,0.09859471252566734
1588960089.7323303,0.44,-2.318124428008442,-9.598124428008441,-0.5155555555555555,0.14222222222222222,0.7022222222222222,0.0625,0.04491651257914495,0.0507776750527633
1588960089.7423303,0.44,-2.302456808800732,-9.582456808800732,-0.5155555555555555,0.14222222222222222,0.7022222222222222,0.0625,-0.10196741749313609,-0.04714494499542407
1588960089.7523303,0.4312463138563684,-2.2912463138563686,-9.58,-0.5288888888888889,0.13444444444444445,0.6944444444444444,-0.07028946160230262,0.015578923204605251,0.11721053839769738
1588960089.7623303,0.43865268139358304,-2.298652681393583,-9.58,-0.5288888888888889,0.13444444444444445,0.6944444444444444,-0.11657925870989387,0.10815851741978774,0.07092074129010613
1588960089.7723303,0.4454803823522571,-2.308629904411936,-9.64040933088355,-0.5288888888888889,0.13444444444444445,0.6944444444444444,-0.2243107077237947,0.4006892922762053,0.017126194850803543
1588960089.7823303,0.4819339104012154,-2.2980660895987843,-9.577099134398177,-0.5288888888888889,0.13444444444444445,0.6944444444444444,-0.0625,0.5625,0.10686958998860524
1588960089.7923303,0.49870339643763867,-2.281296603562361,-9.551944905343543,-0.5288888888888889,0.13444444444444445,0.6944444444444444,-0.0625,0.5625,-0.05034434160286269
1588960089.8023303,0.5085551330798479,-2.2971102661596956,-9.541444866920152,-0.5060752006759611,0.15155471060414025,0.7010984368398817,-0.009030418250950564,0.29515209125475284,0.15137832699619774
1588960089.8123302,0.4874090936440763,-2.3008636354519743,-9.566045448163823,-0.5022222222222222,0.15444444444444444,0.7022222222222222,0.06789772157484106,0.05710227842515895,-0.010795443149682104
1588960089.8223302,0.46217212539361,-2.30927595820213,-9.62493170741491,-0.5022222222222222,0.15444444444444444,0.7022222222222222,0.12047473876331255,0.004525261236687457,-0.11594947752662509
1588960089.8323302,0.47859818192861336,-2.309532727309538,-9.630233636345231,-0.5022222222222222,0.15444444444444444,0.7022222222222222,-0.06542045431538882,-0.06103977284230559,0.0
1588960089.8423302,0.42764804729415096,-2.29254934909805,-9.638725325450975,-0.5022222222222222,0.15444444444444444,0.7022222222222222,-0.1715665681371854,-0.00796671593140729,0.0
1588960089.8523302,0.4283691864517028,-2.288369186451703,-9.593261627096593,-0.5022222222222222,0.14888888888888888,0.6944444444444444,-0.0625,0.15557775403057195,0.07269258467685731
1588960089.8623302,0.42530664713531935,-2.2808844411892197,-9.617075529513759,-0.5022222222222222,0.14888888888888888,0.6944444444444444,-0.056972242567375674,0.30697224256737565,0.11947224256737568
1588960089.8723302,0.4629231252148697,-2.287153854202478,-9.667230833619826,-0.5022222222222222,0.14888888888888888,0.6944444444444444,-0.017788411234510693,0.2677884112345107,0.08028841123451069
1588960089.8823302,0.4978963819645229,-2.2810518090177383,-9.591569899195123,-0.5022222222222222,0.14888888888888888,0.6944444444444444,0.11185238727826834,-0.14148335547393925,-0.049352387278268336
1588960089.8923302,0.506284282489313,-2.292568564978626,-9.561147152532062,-0.5022222222222222,0.14888888888888888,0.6944444444444444,0.0857232344417938,-0.1875,-0.023223234441793812
1588960089.9023302,0.4958175624526874,-2.3,-9.521635124905375,-0.5022222222222222,0.14888888888888888,0.6842015728824965,-0.02614023467070402,-0.09885976532929598,0.0
1588960089.9123302,0.4496260140244741,-2.3134579953251753,-9.570560978963288,-0.5022222222222222,0.14888888888888888,0.68,-0.10455623539117283,-0.020443764608827172,0.0
1588960089.9223301,0.43,-2.280789177875111,-9.678421644249777,-0.5022222222222222,0.14888888888888888,0.68,-0.125,0.3063345478506919,0.061266909570138375
1588960089.9323301,0.43,-2.28,-9.68,-0.5022222222222222,0.14888888888888888,0.68,-0.17244119371267358,0.2650588062873264,0.15738238742534716
1588960089.9423301,0.44578886756238006,-2.28,-9.640527831094051,-0.5022222222222222,0.14888888888888888,0.68,-0.1875,0.15131957773512478,0.08881957773512476
1588960089.95233,0.4573781223083549,-2.2947562446167096,-9.563596899224805,-0.5022222222222222,0.14397014068331898,0.68,-0.09527347114556417,0.30945305770887166,0.016386735572782085
1588960089.96233,0.5096277019284924,-2.3103722980715076,-9.532233788429044,-0.5022222222222222,0.14222222222222222,0.68,-0.06017313705307724,0.1944805888407683,0.12732686294692278
1588960089.97233,0.5014820065642539,-2.318517993435746,-9.581107960614476,-0.5022222222222222,0.14222222222222222,0.68,-0.009262541026587169,0.3472123769202385,0.17823745897341284
1588960089.98233,0.4492361489908829,-2.299745382996961,-9.521273085015196,-0.5022222222222222,0.14222222222222222,0.68,-0.126591356268994,0.259548137613964,0.0625
1588960089.99233,0.4247233694381672,-2.291574456479389,-9.562127717603055,-0.5022222222222222,0.14222222222222222,0.68,-0.17765964700381828,0.5659578820229096,0.0625
1588960090.00233,0.449821247157854,-2.2801787528421458,-9.610178752842145,-0.5022222222222222,0.14222222222222222,0.6944444444444444,-0.3716483842097625,0.8069139736829375,0.125
1588960090.01233,0.44147129869559487,-2.29,-9.62264833765207,-0.5022222222222222,0.14222222222222222,0.6944444444444444,-0.18198262989151917,0.4963217532610128,0.125
1588960090.02233,0.4875240458518161,-2.29,-9.70554328253327,-0.5022222222222222,0.14222222222222222,0.6944444444444444,-0.009284828055689753,0.38118988537045984,0.125
1588960090.03233,0.5198750439102725,-2.2999583479700907,-9.630333216239274,-0.5022222222222222,0.14222222222222222,0.6944444444444444,0.0622396748130677,0.1882809755607969,-0.0617190244392031
1588960090.04233,0.513735548591222,-2.3,-9.59867774295611,-0.5022222222222222,0.14222222222222222,0.6944444444444444,0.023347178695137125,0.07004153608541139,-0.023347178695137125
1588960090.05233,0.4969193548387097,-2.31308064516129,-9.52767741935484,-0.5283835125448029,0.14658243727598566,0.6944444444444444,-0.04087701612903226,-0.04087701612903226,0.12263104838709678
1588960090.06233,0.45934946486738015,-2.3077397859469517,-9.549040856212192,-0.5422222222222223,0.14888888888888888,0.6944444444444444,-0.024186831084225223,0.05243950674732434,0.11087366216845045
1588960090.07233,0.40597852748401625,-2.282989263742008,-9.656548313160963,-0.5422222222222223,0.14888888888888888,0.6944444444444444,-0.15947565241867384,0.01868289838755076,0.0625
1588960090.08233,0.4142442987032345,-2.294244298703234,-9.684244298703234,-0.5422222222222223,0.14888888888888888,0.6944444444444444,-0.2320134334476077,0.13354030034282308,0.0625
1588960090.09233,0.4716740959491837,-2.2704719451718947,-9.667853958878922,-0.5422222222222223,0.14888888888888888,0.6944444444444444,-0.20386241433108598,0.46432551401348415,0.20091275700674208
1588960090.10233,0.49672090862157975,-2.286883634486319,-9.592790913784203,-0.519072425859003,0.13918090976882924,0.6802558595766649,-0.1454943211151265,0.730522715539494,0.08197728446050595
1588960090.11233,0.5591169784633001,-2.3001471702561167,-9.491177362048933,-0.5077777777777778,0.13444444444444445,0.6733333333333333,-0.059740557697812655,0.7444811153956253,0.12224055769781265
1588960090.12233,0.5167410376008217,-2.3072098270665298,-9.547678616532238,-0.5077777777777778,0.13444444444444445,0.6733333333333333,0.0726842574974321,0.4796314850051358,-0.010184257497432098
1588960090.13233,0.5,-2.2902843933330743,-9.50099537666576,-0.5077777777777778,0.13444444444444445,0.6733333333333333,0.18661127083414275,0.43661127083414275,0.06072254166828549
1588960090.14233,0.45229807251032583,-2.297950321248279,-9.5,-0.5077777777777778,0.13444444444444445,0.6733333333333333,-0.21001606241395138,0.4375,0.16187901560348783
1588960090.15233,0.44,-2.280887555854808,-9.557337332435576,-0.5215812096604164,0.14187706161201907,0.6797041480483973,-0.3125,0.37777361204627535,0.06804722409255066
1588960090.16233,0.4701133795916735,-2.2801133795916733,-9.701020416325061,-0.5222222222222223,0.14222222222222222,0.68,-0.3110827551040813,0.3728741326561219,0.1853741326561219
1588960090.17233,0.4785004699154152,-2.288500469915415,-9.776504229238736,-0.5222222222222223,0.14222222222222222,0.68,-0.20624412605730968,0.21561618908596453,0.028116189085964527
1588960090.18233,0.5074221113529006,-2.253437184862799,-9.726015073509899,-0.5222222222222223,0.14222222222222222,0.68,0.041017594607504926,0.1875,-0.11425879730375246
1588960090.19233,0.4968262963530233,-2.263173703646977,-9.667305185412093,-0.5222222222222223,0.14222222222222222,0.68,0.0625,0.02282870441279078,-0.125
1588960090.2023299,0.4727722460545476,-2.2958416309181784,-9.562475107245465,-0.516479637573738,0.14222222222222222,0.68,0.11633673107953875,-0.277846924318155,-0.07116326892046125
1588960090.2123299,0.4520901992774735,-2.3089549003612633,-9.505225498193683,-0.5155555555555555,0.14222222222222222,0.68,0.18096812725789535,-0.2005637454842093,0.0494362545157907
1588960090.2223299,0.4424016714334976,-2.294803342866995,-9.568384957098521,-0.5155555555555555,0.14222222222222222,0.68,-0.049947767703198864,-0.28247910708127955,0.0625
1588960090.2323298,0.4774136216753666,-2.29,-9.59,-0.5155555555555555,0.14222222222222222,0.68,-0.06654121613223962,-0.3125,-0.05441756773552074
1588960090.2423298,0.5022713474252724,-2.282576217524909,-9.612271347425272,-0.5155555555555555,0.14222222222222222,0.68,-0.2016959214079523,-0.3125,-0.016101359530682563
1588960090.2523298,0.5161123312096371,-2.286112331209637,-9.595550675161451,-0.5196304430286469,0.13746818683694895,0.6759251125269087,-0.2117979299397682,-0.3889041401204636,-0.11460621018069538
1588960090.2623298,0.5103450489488044,-2.2996549510511954,-9.551035146846413,-0.5222222222222223,0.13444444444444445,0.6733333333333333,-0.06681311186005458,-0.19612622372010916,-0.0064696677900818456
1588960090.2723298,0.5034119627966646,-2.3,-9.60929233483002,-0.5222222222222223,0.13444444444444445,0.6733333333333333,-0.0625,-0.1463247674791533,0.0
1588960090.2823298,0.46819392073874566,-2.315903039630627,-9.576387841477493,-0.5222222222222223,0.13444444444444445,0.6733333333333333,-0.012803001154290117,-0.07530300115429012,0.14909099653712968
1588960090.2923298,0.4530555081451139,-2.3061110162902274,-9.518333048870684,-0.5222222222222223,0.13444444444444445,0.6733333333333333,0.04340307409303825,-0.01909692590696175,0.1006938518139235
1588960090.3023298,0.45,-2.309402322280057,-9.537609289120226,-0.5222222222222223,0.1595173038579292,0.6931826803690088,-0.05502902850070979,-0.11752902850070979,0.0625
1588960090.3123298,0.4682406988322621,-2.2917593011677377,-9.603842445912917,-0.5222222222222223,0.16111111111111112,0.6944444444444444,-0.17650436770163846,-0.4100109192540961,-0.05150436770163845
1588960090.3223298,0.4870356775146604,-2.29851783875733,-9.695178387573304,-0.5222222222222223,0.16111111111111112,0.6944444444444444,-0.13426350776668605,-0.7569189533998836,-0.009263507766686066
1588960090.3323298,0.4983367163897281,-2.2833265672205436,-9.693326567220543,-0.5222222222222223,0.16111111111111112,0.6944444444444444,-0.1771044774358006,-0.9688134323074018,-0.05210447743580061
1588960090.3423297,0.4887783387465029,-2.2856108306267484,-9.61705920185227,-0.5222222222222223,0.16111111111111112,0.6944444444444444,-0.11736461716564299,-0.929864617165643,-0.16770307425153552
1588960090.3523297,0.46258758719086873,-2.2958041376030436,-9.54258758719087,-0.5183527971535264,0.15014774008313958,0.6905750193757486,0.010051720038046927,-0.7661724199429296,-0.21372413998097653
1588960090.3623297,0.4234271186440678,-2.282284745762712,-9.512284745762711,-0.5155555555555555,0.14222222222222222,0.6877777777777778,0.007139830508474575,-0.35533898305084743,0.0339406779661017
1588960090.3723297,0.4013282423943836,-2.289335878802808,-9.594022909225274,-0.5155555555555555,0.14222222222222222,0.6877777777777778,0.0,-0.19580151496489717,0.004150757482448579
1588960090.3823297,0.4207287131305857,-2.2951821782826465,-9.6,-0.5155555555555555,0.14222222222222222,0.6877777777777778,0.0,-0.09033415720037974,0.0
1588960090.3923297,0.46452516608490035,-2.2877374169575497,-9.581606125436325,-0.5155555555555555,0.14222222222222222,0.6877777777777778,-0.038320572007656796,-0.07664114401531359,0.0
1588960090.4023297,0.48471857017644143,-2.28,-9.579437140352884,-0.5155555555555555,0.1385522231961011,0.6841077787516567,-0.12148212720551808,-0.03652680919172288,0.0
1588960090.4123297,0.5008521513579494,-2.290852151357949,-9.622556454073848,-0.5155555555555555,0.13444444444444445,0.68,-0.1196740540128166,0.0625,0.0339129729935917
1588960090.4223297,0.489027780209008,-2.294756945052252,-9.665729164843244,-0.5155555555555555,0.13444444444444445,0.68,-0.12803818684684998,-0.03580728027027501,0.029730906576575004
1588960090.4323297,0.47,-2.2954310091203296,-9.647413945278023,-0.5155555555555555,0.13444444444444445,0.68,-0.11961238599588114,0.010775228008237714,0.06788761400411886
1588960090.4423296,0.45519188000601973,-2.3,-9.610127920004013,-0.5155555555555555,0.13444444444444445,0.68,0.06090099994983529,0.06329950002508236,0.001599000050164709
1588960090.4523296,0.4265540306769692,-2.3,-9.577590051128283,-0.5155555555555555,0.13444444444444445,0.68,0.10346269173105754,-0.028012436089647482,-0.06897512782070503
1588960090.4623296,0.4154401151555783,-2.3054401151555783,-9.571760460622313,-0.5155555555555555,0.13444444444444445,0.68,0.0,0.005501439444729264,0.06800143944472926
1588960090.4723296,0.4609383611312545,-2.3168230601885424,-9.630938361131255,-0.5155555555555555,0.13444444444444445,0.68,-0.042644126178390133,0.10514412617839014,-0.045576504713560534
1588960090.4823296,0.4565426556617946,-2.308271327830897,-9.60894964740814,-0.5155555555555555,0.13444444444444445,0.68,-0.1358042010568919,0.3815647036991216,0.058260502642229706
1588960090.4923296,0.41594192744823294,-2.324058072551767,-9.575188385489646,-0.5155555555555555,0.13444444444444445,0.68,-0.15742740931029114,0.5925725906897089,0.3077903627588354
1588960090.5023296,0.42303133371459534,-2.3169686662854048,-9.51054359931373,-0.5155555555555555,0.13958265191115926,0.6895423852953275,-0.20757833428648828,0.8314458357162207,0.6026566685729766
1588960090.5123296,0.4177762747892461,-2.3148158168071693,-9.517039542017923,-0.5155555555555555,0.14222222222222222,0.6944444444444444,-0.11110171743278824,1.3541948477016352,1.1041948477016352
1588960090.5223296,0.41,-2.3130995755217545,-9.626605942695436,-0.5155555555555555,0.14222222222222222,0.6944444444444444,-0.19188295896710295,1.5862553059780686,1.379382958967103
1588960090.5323296,0.45989432035737077,-2.281488959795788,-9.655744479897894,-0.5155555555555555,0.14222222222222222,0.6944444444444444,-0.1609029993618379,0.7785784939374601,1.482048500319081
1588960090.5423295,0.54578607895865,-2.2520583421021865,-9.614116684204372,-0.5155555555555555,0.14222222222222222,0.6944444444444444,-0.125,0.026337006508437566,1.6121353618613352
1588960090.5523295,0.5949383745714021,-2.244938374571402,-9.570246501714392,-0.5248835964126484,0.14551447193649028,0.6911521947301764,-0.125,-0.25,1.4714461125011584
1588960090.5623295,0.5533232678524025,-2.2833405229625696,-9.556668104592514,-0.5344444444444445,0.14888888888888888,0.6877777777777778,2.6961109636319813e-05,-0.5417295759224847,0.6665408481550306
1588960090.5723295,0.5104014682618913,-2.3,-9.59429743054169,-0.5344444444444445,0.14888888888888888,0.6877777777777778,0.031877294159205045,-0.718122705840795,0.1912637649552303
1588960090.5823295,0.4868788192831362,-2.3093635421505914,-9.611272915698818,-0.5344444444444445,0.14888888888888888,0.6877777777777778,0.05852213844119644,-0.7890147589607976,-0.03901475896079763
1588960090.5923295,0.44609148541057436,-2.32031185297445,-9.545779632436124,-0.5344444444444445,0.14888888888888888,0.6877777777777778,0.12694908109031142,-0.9658263783645329,-0.09472454054515571
1588960090.6023295,0.41,-2.304189586463709,-9.52581041353629,-0.5344444444444445,0.15599050543324405,0.6961705973301975,0.09881508460181615,-1.1351301692036324,-0.09881508460181615
1588960090.6123295,0.422977803530041,-2.2935110982349793,-9.53648890176502,-0.5344444444444445,0.16111111111111112,0.7022222222222222,0.043888727937243716,-0.9847218198431094,-0.125
1588960090.6223295,0.4370012030477209,-2.2970012030477207,-9.62401443657265,-0.5344444444444445,0.16111111111111112,0.7022222222222222,0.0,-0.6124548857104666,-0.125
1588960090.6323295,0.48612128489942963,-2.2934112450143673,-9.640233735043102,-0.5344444444444445,0.16111111111111112,0.7022222222222222,-0.041179718660205006,-0.5,-0.04264056267958999
1588960090.6423295,0.5048234381834812,-2.300353123633038,-9.598940629100888,-0.5344444444444445,0.16111111111111112,0.7022222222222222,0.034560534059728795,-0.37058595458702825,-0.03235351135324293
1588960090.6523294,0.47711771746514414,-2.304279429366286,-9.558558858732573,-0.523638922136318,0.1572973973553018,0.7060359359780315,0.017739300617863038,-0.17849286707857537,0.04476069938213696
1588960090.6623294,0.4334289547957248,-2.293357238698931,-9.563285522602138,-0.5155555555555555,0.15444444444444444,0.7088888888888889,-0.0625,-0.125,0.125
1588960090.6723294,0.4064263446979069,-2.2967868276510464,-9.624294621208373,-0.5155555555555555,0.15444444444444444,0.7088888888888889,-0.10491767281904102,-0.16741767281904102,-0.044670691276164076
1588960090.6823294,0.4063821908750275,-2.2936178091249726,-9.618089045624862,-0.5155555555555555,0.15444444444444444,0.7088888888888889,-0.125,-0.1476113070310778,-0.0851113070310778
1588960090.6923294,0.4203404419061506,-2.29,-9.605170220953076,-0.5155555555555555,0.15444444444444444,0.7088888888888889,-0.09268611904327925,-0.06037223808655852,0.002127761913441481
1588960090.7023294,0.4495679796696315,-2.2753240152477763,-9.590432020330368,-0.5188168855004941,0.14846533954539037,0.7056275589439504,-0.0013500635324015242,0.09172490470139771,-0.029224904701397714
1588960090.7123294,0.4820187719984356,-2.2780281579976536,-9.576009385999217,-0.5222222222222223,0.14222222222222222,0.7022222222222222,0.0625,0.14994133750488853,-0.012324012514665625
1588960090.7223294,0.4964684312773191,-2.3029368625546383,-9.625279018941233,-0.5222222222222223,0.14222222222222222,0.7022222222222222,0.10292769548324429,0.125,0.0625
1588960090.7323294,0.4675016604990986,-2.3035003320998197,-9.591502988898378,-0.5222222222222223,0.14222222222222222,0.7022222222222222,0.16562292437612677,0.08437707562387323,0.021877075623873234
1588960090.7423294,0.4385136676665681,-2.303828777444477,-9.552342445111046,-0.5222222222222223,0.14222222222222222,0.7022222222222222,0.09178056388806738,0.11035971805596631,0.04785971805596631
1588960090.7523293,0.4207930204064388,-2.3097356598645202,-9.540528680270958,-0.5222222222222223,0.14222222222222222,0.7022222222222222,-0.05589149661300999,0.18419574830650498,0.121695748306505
1588960090.7623293,0.426845879588364,-2.3,-9.546845879588364,-0.5222222222222223,0.13444444444444445,0.6877777777777778,-0.125,0.2730734948545499,0.0625
1588960090.7723293,0.43224630875004694,-2.296938422812488,-9.588985235000187,-0.5222222222222223,0.13444444444444445,0.6877777777777778,-0.125,0.1875,0.0625
1588960090.7823293,0.47686695047690897,-2.2984334752384545,-9.666266099046181,-0.5222222222222223,0.13444444444444445,0.6877777777777778,-0.04593616963948914,0.029372339278978282,-0.01656383036051086
1588960090.7923293,0.49492687243012545,-2.3049268724301255,-9.614926872430125,-0.5222222222222223,0.13444444444444445,0.6877777777777778,0.0625,-0.23506057096757405,-0.09329295268828397
1588960090.8023293,0.4773599251607253,-2.292640074839275,-9.581519476125077,-0.5204621723293724,0.13972459412299384,0.6877777777777778,0.045999532254533154,-0.4080009354909337,0.0
1588960090.8123293,0.4621847582326789,-2.3,-9.537815241767321,-0.5155555555555555,0.15444444444444444,0.6877777777777778,0.024422630522878387,-0.5,-0.012211315261439194
1588960090.8223293,0.4467448383326841,-2.283255161667316,-9.603489676665369,-0.5155555555555555,0.15444444444444444,0.6877777777777778,0.125,-0.01160888196338139,-0.09738507985975847
1588960090.8323293,0.49695979837414445,-2.2330402016258555,-9.611520100812928,-0.5155555555555555,0.15444444444444444,0.6877777777777778,0.04800042005386573,0.0285018902423958,-0.2404993699192014
1588960090.8423293,0.5699782308289322,-2.1000478921763492,-9.560017415336853,-0.5155555555555555,0.15444444444444444,0.6877777777777778,0.0,-8.163439150432605e-05,-0.5623911541446609
1588960090.8523293,0.523472908823048,-2.1424111965951873,-9.54032149287936,-0.5189424710354487,0.14823509939797383,0.6985030101307724,-0.03175233262399738,0.3462616631199869,-0.6537383368800131
1588960090.8623292,0.4033436330144394,-2.3113250935884486,-9.570662546794225,-0.5222222222222223,0.14222222222222222,0.7088888888888889,-0.16246137619585238,0.5,-0.1334749539485412
1588960090.8723292,0.4007066779374472,-2.3196466610312765,-9.626590025359256,-0.5222222222222223,0.14222222222222222,0.7088888888888889,-0.1852916314454776,0.5,0.4463334742180896
1588960090.8823292,0.48553301949051875,-2.211700470764222,-9.631772405297196,-0.5222222222222223,0.14222222222222222,0.7088888888888889,-0.05673643803070966,0.3634728760614193,0.892290685907871
1588960090.8923292,0.54,-2.146821116776913,-9.57645043651232,-0.5222222222222223,0.14222222222222222,0.7088888888888889,-0.021026395971141247,0.165894416115435,1.0835263959711412
1588960090.9023292,0.54,-2.1799289582116415,-9.5300994585037,-0.5222222222222223,0.14222222222222222,0.7088888888888889,-0.06241119776455173,0.0003552089417930837,1.1249111977645518
1588960090.9123292,0.6479069010416666,-2.0848372395833334,-9.555162760416666,-0.5288888888888889,0.13444444444444445,0.7022222222222222,-0.0625,-0.5236918131510416,0.8729654947916666
1588960090.9223292,0.7267212635273471,-2.0432787364726526,-9.635737545091157,-0.5288888888888889,0.13444444444444445,0.7022222222222222,-0.027664034318026713,-0.5973359656819733,0.00512454908842741
1588960090.9323292,0.7175991334651973,-2.0165594800791182,-9.653118960158237,-0.5288888888888889,0.13444444444444445,0.7022222222222222,-0.028001083168503343,-0.40099133465197323,-0.9695205802015635
1588960090.9423292,0.696452123315639,-1.9903218150265414,-9.613547876684361,-0.5288888888888889,0.13444444444444445,0.7022222222222222,-0.082662885361372,-0.125,-1.8669546243364639
1588960090.9523292,0.752715813480445,-1.988984805991309,-9.5477917835239,-0.5257247545570041,0.13813593449831008,0.6916751077826062,-0.125,-0.03600872191573952,-2.671637593614202
1588960090.9623291,0.8705026599510488,-2.020071808564435,-9.500071808564435,-0.5222222222222223,0.14222222222222222,0.68,-0.2194232052915832,-0.12634641058316645,-4.16455286526286
1588960090.9723291,0.8993878357030015,-2.0518680884676144,-9.51,-0.5222222222222223,0.14222222222222222,0.68,-0.2734498420221169,-0.21487460505529227,-6.07397808056872
1588960090.9823291,0.7520935444227572,-2.0986839441914262,-9.51,-0.5222222222222223,0.14222222222222222,0.68,-0.15459860478565748,0.1727323248752982,-7.88160558085737
1588960090.9923291,0.3259646104694028,-2.0539710449295114,-9.493987131079782,-0.5222222222222223,0.14222222222222222,0.68,-0.012560323063517953,1.6377613999419112,-8.424738600058088
1588960091.002329,0.14768710702454196,-2.102102629977689,-9.50573592049219,-0.5222222222222223,0.14222222222222222,0.6839706578324657,-0.1888141437360557,2.1888141437360558,-6.693124197146913
1588960091.012329,0.07115081101226646,-2.070946640092039,-9.508849188987734,-0.5222222222222223,0.14222222222222222,0.6877777777777778,-0.22218677588190494,3.418155412959992,-3.497447863497156
1588960091.022329,0.11894985845581107,-1.501289797184628,-9.47,-0.5222222222222223,0.14222222222222222,0.6877777777777778,-0.0010446155039361138,6.254769845270873,-0.8694812308527553
1588960091.032329,0.2232823613740374,-0.5487665643551619,-9.430550460401772,-0.5222222222222223,0.14222222222222222,0.6877777777777778,0.46489551360988074,11.143730816592843,-0.370731404730835
1588960091.042329,0.4100448964136961,-0.572314599448261,-9.352292151241413,-0.5222222222222223,0.14222222222222222,0.6877777777777778,0.5,12.364888164656245,-1.087078081895386
1588960091.052329,0.6312330580596356,-0.6377969698879993,-9.276255647313453,-0.5222222222222223,0.14451294766997974,0.6805238138598789,0.4785244489272731,8.227444892727311,-5.6982128222908655
1588960091.062329,0.706747676043502,-0.7392709156084817,-9.276018591651983,-0.5222222222222223,0.14888888888888888,0.6666666666666666,0.49848107418433685,2.8037433926727022,-12.631299744820463
1588960091.072329,0.7208270220345692,-0.8,-9.356033777543212,-0.5222222222222223,0.14888888888888888,0.6666666666666666,0.6575422219290143,0.35537999736112946,-19.818251088534108
1588960091.082329,0.7206969834724162,-0.8463272396662013,-9.383860603305518,-0.5222222222222223,0.14888888888888888,0.6666666666666666,0.7840150826379193,1.9038248449524304,-23.57272623956879
1588960091.092329,0.6833151962689467,-0.9240108822386319,-9.392673921492422,-0.5222222222222223,0.14888888888888888,0.6666666666666666,0.9542120093276331,4.246672172561213,-26.209240186552663
1588960091.102329,0.632371605000251,-0.9627139916662483,-9.402371605000251,-0.5253300868517496,0.1452159579630838,0.6700570644443329,1.141962447914052,6.472494854159345,-28.8358821979015
1588960091.112329,0.6113148250414178,-0.9978086249309704,-9.381314825041418,-0.5339087749831262,0.1350775083532752,0.6794156333149255,1.3613039058185652,7.086650936291982,-30.108062653747677
1588960091.122329,0.6345991074748978,-1.0143040163629602,-9.388903123837856,-0.5344444444444445,0.13444444444444445,0.68,1.2837555782818892,6.059333162885832,-32.12816683711417
1588960091.132329,0.6227681209206458,-1.0809227069735488,-9.434463758158708,-0.5344444444444445,0.13444444444444445,0.68,1.375,5.369233081415321,-32.841334592923396
1588960091.142329,0.641294828166486,-1.1074103436670282,-9.371294828166487,-0.5344444444444445,0.13444444444444445,0.68,1.3568642253468457,5.60267239445047,-33.14313577465315
1588960091.152329,0.6215540804373292,-1.1577704021866457,-9.353108160874658,-0.5366892272983644,0.13340839081955833,0.6812087292290339,1.2833609918000781,6.497047051932839,-33.04180495900039
1588960091.162329,0.6476459857185052,-1.1576496342755878,-9.40529197143701,-0.5488888888888889,0.12777777777777774,0.6877777777777778,1.1911724464443942,7.544114964296263,-31.985310214222423
1588960091.172329,0.6883534807651284,-1.1000483538363082,-9.483365569224206,-0.5488888888888889,0.12777777777777774,0.6877777777777778,1.3438255528692313,7.61455814904359,-31.479116298087177
1588960091.182329,0.7334409321514188,-1.2068818643028376,-9.539677203545743,-0.5488888888888889,0.12777777777777774,0.6877777777777778,1.5215058259463679,7.648523303785471,-31.310482522160896
1588960091.192329,0.7441361932463331,-1.21689785506525,-9.511727613507333,-0.5488888888888889,0.12777777777777774,0.6877777777777778,1.549574396105209,7.8835908214213495,-31.213351207789582
1588960091.202329,0.7702319142648272,-1.1973260643013797,-9.459536171470345,-0.5488888888888889,0.12777777777777774,0.6877777777777778,1.4680252679224153,8.332111026426716,-31.37644946415517
1588960091.212329,0.8294032379518071,-1.0615515813253014,-9.341193524096385,-0.5752372824631862,0.13436487617135207,0.6877777777777778,1.6845161897590362,8.870524284638554,-32.05504047439759
1588960091.222329,0.8835844362623146,-1.1063013235147776,-9.379885759777093,-0.5755555555555556,0.13444444444444445,0.6877777777777778,1.48844163598368,8.39811672803264,-33.81035799582048
1588960091.232329,0.9239837640574962,-1.1589634691293662,-9.455020294928131,-0.5755555555555556,0.13444444444444445,0.6877777777777778,1.6374492626796753,8.156123156699188,-35.48678967751545
1588960091.242329,0.955221568481418,-1.2292485290831905,-9.415973039398228,-0.5755555555555556,0.13444444444444445,0.6877777777777778,1.7350674015044314,8.400168503761078,-36.85344362106204
1588960091.2523289,0.9994235263567904,-1.1902882368216048,-9.405144118410803,-0.5720485299633573,0.12716062206064804,0.6877777777777778,1.8580238898987276,9.36779407945988,-39.42308815891976
1588960091.2623289,1.042295456166631,-1.1909829517083956,-9.394426135958343,-0.5611111111111111,0.10444444444444444,0.6877777777777778,2.082990049218917,10.899573792709894,-42.044033989585564
1588960091.2723289,1.02,-1.2104791764014289,-9.425098201769591,-0.5611111111111111,0.10444444444444444,0.6877777777777778,2.2397879203533155,12.20615682890433,-43.942949896748715
1588960091.2823288,1.02,-1.1662241683372774,-9.481997497852072,-0.5611111111111111,0.10444444444444444,0.6877777777777778,2.3583281205251496,12.956911429992614,-45.08883849840978
1588960091.2923288,0.9763421613838106,-1.0235397262271477,-9.385368645535243,-0.5611111111111111,0.10444444444444444,0.6877777777777778,2.5,13.794984780270857,-46.84753043945829
1588960091.3023288,0.9610520751690574,-0.9547343382607586,-9.32420830067623,-0.5611111111111111,0.10444444444444444,0.6877777777777778,2.5,13.460514144323133,-47.51647171135374
1588960091.3123288,0.99,-0.9642024280311534,-9.324202428031153,-0.5688888888888889,0.10444444444444444,0.7088888888888889,2.5772941958657847,12.046204474415873,-48.18417678346314
1588960091.3223288,0.99,-1.0076614226259346,-9.367661422625934,-0.5688888888888889,0.10444444444444444,0.7088888888888889,2.6225639819020152,11.231348325763724,-48.36525592760806
1588960091.3323288,0.98,-1.1036711661107175,-9.472734233222145,-0.5688888888888889,0.10444444444444444,0.7088888888888889,2.357911042361603,10.044932508339238,-47.04445397431687
1588960091.3423288,0.98,-1.13991703969996,-9.479983407939992,-0.5688888888888889,0.10444444444444444,0.7088888888888889,2.3126037003750497,9.501244404500596,-46.00238510862614
1588960091.3523288,1.0736259866982718,-1.236043311163786,-9.398791337767243,-0.5696946637107271,0.10202711997892998,0.7088888888888889,2.3523375831358018,9.085162416864199,-43.94370066508642
1588960091.3623288,1.1047559735638028,-1.283566980172852,-9.386433019827148,-0.5755555555555556,0.08444444444444445,0.7088888888888889,2.1800687913065584,9.28715604346721,-42.37977011311642
1588960091.3723288,1.1432083521444694,-1.2779164785553048,-9.395291873589164,-0.5755555555555556,0.08444444444444445,0.7088888888888889,2.1450522009029345,9.662761004514673,-39.94088177200903
1588960091.3823287,1.1614509235784136,-1.2014118073161897,-9.44423542194857,-0.5755555555555556,0.08444444444444445,0.7088888888888889,2.1338237957261863,9.892892068091271,-38.141914161535674
1588960091.3923287,1.1999270541082163,-1.2122629258517035,-9.377518236472946,-0.5755555555555556,0.08444444444444445,0.7088888888888889,1.9844889779559118,9.999544088176354,-36.58074649298597
1588960091.4023287,1.2285081718618365,-1.3189509688289807,-9.375967312552653,-0.5763843489656464,0.07914016661986334,0.7098834409809979,1.9281760741364786,10.215471777590565,-35.285549705139005
1588960091.4123287,1.2531723891273248,-1.3799517167381974,-9.419951716738197,-0.5811111111111111,0.048888888888888885,0.7155555555555555,1.833534513590844,10.146939824749643,-33.44051770386266
1588960091.4223287,1.3240048192771086,-1.3959951807228914,-9.460024096385542,-0.5811111111111111,0.048888888888888885,0.7155555555555555,1.7249698795180723,9.725045180722892,-31.92468373493976
1588960091.4323287,1.34,-1.3572658435227363,-9.524260968592662,-0.5811111111111111,0.048888888888888885,0.7155555555555555,1.6359298829217614,10.006158595061136,-30.634542575721248
1588960091.4423287,1.340152523506146,-1.2504575705184378,-9.448779811950832,-0.5811111111111111,0.048888888888888885,0.7155555555555555,1.6884532719134122,10.607841105558581,-29.48665419321223
1588960091.4523287,1.3504910955207772,-1.2806138694009714,-9.369754452239611,-0.581329375787012,0.048888888888888885,0.7158283864004317,1.75,9.472375876956287,-28.618093969239073
1588960091.4623287,1.3920669442403462,-1.3382677769613847,-9.354133888480693,-0.5988888888888889,0.048888888888888885,0.7377777777777778,1.75,6.823692750428607,-27.881642378969712
1588960091.4723287,1.3989153400277572,-1.3656613601110297,-9.367830680055514,-0.5988888888888889,0.048888888888888885,0.7377777777777778,1.75,5.411211119275043,-27.28240774757123
1588960091.4823287,1.4361323648672473,-1.3745992736504355,-9.475400726349564,-0.5988888888888889,0.048888888888888885,0.7377777777777778,1.5962545396847785,4.225827280420296,-26.029618137583302
1588960091.4923286,1.4657103064066852,-1.396782729805014,-9.453217270194985,-0.5988888888888889,0.048888888888888885,0.7377777777777778,1.457607938718663,4.410689415041783,-24.96666086350975
1588960091.5023286,1.4492460508926137,-1.4303769745536932,-9.429246050892614,-0.5985956864582387,0.0486375725197601,0.7391181317464646,1.4375,4.67807563615767,-23.3349464536701
1588960091.5123286,1.4316484507751368,-1.4391757746124314,-9.411648450775138,-0.5917521753014422,0.04277170581393452,0.7704027541775345,1.4375,4.458105634689211,-22.400073947429146
1588960091.5223286,1.4424789245841876,-1.3674367737525632,-9.374789245841876,-0.5911111111111111,0.042222222222222223,0.7733333333333333,1.2970067213488266,3.9845067213488266,-19.67622180451128
1588960091.5323286,1.4579983883243048,-1.3999979854053812,-9.448000402918924,-0.5911111111111111,0.042222222222222223,0.7733333333333333,1.225005036486547,3.812525182432735,-17.650095693244392
1588960091.5423286,1.4887130911128172,-1.4387130911128172,-9.436139273338451,-0.5911111111111111,0.042222222222222223,0.7733333333333333,1.1089136389102152,3.1516363891021517,-15.524790944743012
1588960091.5523286,1.4800099599526901,-1.43000995995269,-9.41002987985807,-0.5911111111111111,0.042222222222222223,0.7733333333333333,1.0001244994086278,2.063744994086278,-14.00174299172079
1588960091.5623286,1.52,-1.4450625333638374,-9.38253126668192,-0.5844444444444444,0.06222222222222223,0.8066666666666666,0.9058591664760162,1.844140833523984,-11.650387497140242
1588960091.5723286,1.5163032213259255,-1.4629574229392595,-9.398132913082964,-0.5844444444444444,0.06222222222222223,0.8066666666666666,0.8125,1.946741946685186,-10.097507879694428
1588960091.5823286,1.47,-1.4871213552118994,-9.494276157871955,-0.5844444444444444,0.06222222222222223,0.8066666666666666,0.7767259866997206,1.9641214634242317,-7.829759866997206
1588960091.5923285,1.47,-1.4128509030811,-9.461267068036046,-0.5844444444444444,0.06222222222222223,0.8066666666666666,0.5704191752252784,1.3967777318695156,-5.766691752252784
1588960091.6023285,1.5092452524204143,-1.4427043770170118,-9.414213872176184,-0.5844444444444444,0.06222222222222223,0.8066666666666666,0.4807390574574704,1.0479562298298817,-3.970520206606879
1588960091.6123285,1.4741295593587858,-1.4520185084798265,-9.374037016959653,-0.5516316459726202,0.06754321656900454,0.8634239396990113,0.4375,0.7253470339967475,-1.416317373964222
1588960091.6223285,1.4751861575672378,-1.4044415272982862,-9.36240692121638,-0.5433333333333333,0.06888888888888889,0.8777777777777778,0.4375,0.49767303040952593,0.5660724991214108
1588960091.6323285,1.4677788011903075,-1.4377788011903074,-9.46733456142837,-0.5433333333333333,0.06888888888888889,0.8777777777777778,0.30972350148788436,0.04584100892730622,3.8610599404846253
1588960091.6423285,1.430632173728213,-1.400632173728213,-9.422758608473856,-0.5433333333333333,0.06888888888888889,0.8777777777777778,0.2632902171602664,-0.23275869703840157,5.718391313589343
1588960091.6523285,1.390160470447523,-1.3104279211933951,-9.370213960596697,-0.5433333333333333,0.06888888888888889,0.8777777777777778,0.18783431343233994,-0.9341568656766005,8.860958835841723
1588960091.6623285,1.3787898369510854,-1.3175796739021708,-9.363736721016304,-0.4244444444444445,0.03,0.9722222222222222,-0.08585450635190557,-2.120886265879764,12.368894418325498
1588960091.6723285,1.3320195676433189,-1.2237025406794175,-9.38235616225054,-0.4244444444444445,0.03,0.9722222222222222,-0.1832925674097527,-2.393933446656113,15.17189324734643
1588960091.6823285,1.3923523826182562,-1.3347047652365127,-9.445295234763487,-0.4244444444444445,0.03,0.9722222222222222,-0.06985119568205103,-2.9227976086358978,18.694762175466654
1588960091.6923285,1.405908137238769,-1.3604523202237948,-9.403180228731282,-0.4244444444444445,0.03,0.9722222222222222,-0.11647528591410235,-2.7187281450551257,21.980210990208985
1588960091.7023284,1.3800259173934506,-1.3000604739180517,-9.36004319565575,-0.4244444444444445,0.03,0.9722222222222222,-0.06255399456968899,-2.1255939402665787,24.62235426608524
1588960091.7123284,1.4108058709498752,-1.103910274162282,-9.281492661312656,-0.3566666666666667,-0.09333333333333334,0.8711111111111111,-0.09123165328163943,-3.206158266408197,27.296645666020492
1588960091.7223284,1.378142110853402,-1.064863113172783,-9.340436780612578,-0.3566666666666667,-0.09333333333333334,0.8711111111111111,-0.15266457850128975,-3.7571708429974207,28.720624336158497
1588960091.7323284,1.3734013975155281,-1.1379365942028985,-9.424331004140786,-0.3566666666666667,-0.09333333333333334,0.8711111111111111,-0.02125873447204969,-4.090844979296066,29.8575698757764
1588960091.7423284,1.3985788529471601,-1.2099480293698792,-9.378578852947161,-0.3566666666666667,-0.09333333333333334,0.8711111111111111,-0.1875,-4.365793014481496,31.374025550685236
1588960091.7523284,1.3908215428434036,-1.2642492000961734,-9.370821542843403,-0.3566666666666667,-0.09333333333333334,0.8711111111111111,-0.1875,-4.656692143372357,32.39217250180325
1588960091.7623284,1.3502558395862478,-1.2382046716689983,-9.36205116791725,-0.4697167229546728,-0.1586903971248369,0.8004548259311073,-0.28686040103438043,-4.6875,33.543284210860996
1588960091.7723284,1.3473177148300184,-1.2885417186401469,-9.330729140679926,-0.4988888888888889,-0.17555555555555555,0.7822222222222223,-0.3582357176876148,-4.504557129249541,34.95589294219037
1588960091.7823284,1.3218438687392056,-1.3618438687392056,-9.443203223949338,-0.4988888888888889,-0.17555555555555555,0.7822222222222223,-0.8464838802533103,-4.655955670696604,37.129879101899824
1588960091.7923284,1.2717770006833071,-1.3135540013666145,-9.399111499658346,-0.4988888888888889,-0.17555555555555555,0.7822222222222223,-1.0902656356766751,-5.277765635676675,38.911040686924714
1588960091.8023283,1.2886357972587323,-1.3472715945174647,-9.390682101370635,-0.4988888888888889,-0.17555555555555555,0.7822222222222223,-1.3536843321676917,-5.541184332167692,40.43886912657261
1588960091.8123283,1.2579555257570678,-1.3627936082243826,-9.366558721644877,-0.5911111111111111,-0.22,0.6533333333333333,-1.7412699742988043,-5.758730025701196,42.46710386635378
1588960091.8223283,1.1983642315529277,-1.2742748104352475,-9.356543073788288,-0.5911111111111111,-0.22,0.6533333333333333,-2.025558881985503,-5.607347304339112,43.94540618632462
1588960091.8323283,1.1843538096669672,-1.2252383338343855,-9.41258476133213,-0.5911111111111111,-0.22,0.6533333333333333,-2.244471723953636,-6.5267812406052705,45.083752964558904
1588960091.8423283,1.1712683797995833,-1.094586367695208,-9.408731620200417,-0.5911111111111111,-0.22,0.6533333333333333,-2.515854747494791,-9.114027929358071,47.087201111221354
1588960091.8523283,1.1879140787776565,-1.28601190594305,-9.392085921222344,-0.5911111111111111,-0.22,0.6533333333333333,-2.7239259847207062,-9.790259450342296,48.23159291596389
1588960091.8623283,1.107306780307427,-1.211920340922281,-9.351022601024756,-0.5666666666666667,-0.12777777777777774,0.64,-2.8862217487190542,-7.007952020495133,50.38466098462865
1588960091.8723283,1.086442038237684,-1.1493261147130513,-9.281473460792279,-0.5666666666666667,-0.12777777777777774,0.64,-2.9731581740096504,-5.61696921584559,51.42789808811581
1588960091.8823283,0.939604687699036,-1.1290399558405162,-9.439039955840515,-0.5666666666666667,-0.12777777777777774,0.64,-3.127470701881024,-5.45338308352087,53.69985350940512
1588960091.8923283,0.8772716657466774,-0.9776597596705023,-9.287659759670502,-0.5666666666666667,-0.12777777777777774,0.64,-3.517052089083266,-7.957834858392426,55.64776044541633
1588960091.9023283,0.914135515688657,-1.0924065470659712,-9.384752340790508,-0.5666666666666667,-0.12777777777777774,0.64,-3.783177578443285,-11.33948609820599,58.19211457365449
1588960091.9123282,0.9349123867069487,-1.1771057401812688,-9.377631419939577,-0.5575535414568646,-0.06398590130916414,0.5969197717354817,-3.905702416918429,-12.16941087613293,60.22424471299094
1588960091.9223282,0.904242484836366,-1.2261616565575773,-9.40671710102424,-0.5544444444444444,-0.042222222222222223,0.5822222222222222,-4.011994823257571,-10.138575062765225,63.38541458374991
1588960091.9323282,0.8490507336043839,-1.192214954923104,-9.468734311472513,-0.5544444444444444,-0.042222222222222223,0.5822222222222222,-4.128955276648401,-8.4960447233516,65.3152620646986
1588960091.9423282,0.817936435086914,-1.263439274855143,-9.427248580115885,-0.5544444444444444,-0.042222222222222223,0.5822222222222222,-4.262897280706786,-8.443785497102862,67.45007099420573
1588960091.9523282,0.7938741322930412,-1.3035431128449315,-9.395165509724055,-0.5544444444444444,-0.042222222222222223,0.5822222222222222,-4.413286673168493,-9.24586225689863,69.05422451379725
1588960091.9623282,0.9840104692378113,-1.4247158517405694,-9.403631604891904,-0.5277777777777778,0.048888888888888885,0.6133333333333333,-4.96138148165536,-10.58638148165536,72.82874815145185
1588960091.9723282,1.068054270736972,-1.3163243909959914,-9.370107924761024,-0.5277777777777778,0.048888888888888885,0.6133333333333333,-5.10777058279371,-10.84763336416898,75.61014107308048
1588960091.9823282,0.9629704363243909,-1.2839909034844281,-9.459025015417824,-0.5277777777777778,0.048888888888888885,0.6133333333333333,-4.956207360083257,-11.70649162619488,72.73043984158187
1588960091.9923282,0.648057239757475,-1.3184186277176086,-9.420971380121262,-0.5277777777777778,0.048888888888888885,0.6133333333333333,-5.054405165656146,-14.923803972227999,67.3767887424211
1588960092.0023282,0.6077977571229742,-1.4928763858004448,-9.441101121438512,-0.5277777777777778,0.048888888888888885,0.6133333333333333,-4.8866573213457265,-17.230336831496263,66.11867991009295
1588960092.0123281,0.6459676326384183,-1.6819352652768367,-9.515295571411487,-0.5277777777777778,0.07376339228374147,0.6257705850307597,-4.870799617331686,-20.815183162594174,66.72849234663371
1588960092.0223281,0.6185135505064331,-1.6821283876266082,-9.433412263892691,-0.5277777777777778,0.07555555555555556,0.6266666666666667,-4.825802422666301,-21.393580618669585,67.05848788666849
1588960092.0323281,0.5074941060156666,-1.744408890409917,-9.568120579511751,-0.5277777777777778,0.07555555555555556,0.6266666666666667,-4.933584540649479,-19.640219788577078,67.31264734960834
1588960092.0423281,0.475595862803255,-1.9278237888812837,-9.54419689710244,-0.5277777777777778,0.07555555555555556,0.6266666666666667,-4.883743535630086,-17.44721556772378,68.11010342991862
1588960092.052328,0.5065186632173592,-1.8869626735652816,-9.567388997413019,-0.5277777777777778,0.07555555555555556,0.6266666666666667,-4.932060411277123,-14.266539847420939,68.93472493532549
1588960092.062328,0.3970773216598919,-1.8575644347165767,-9.481461339170055,-0.5077777777777778,0.12777777777777774,0.6344444444444445,-4.693588913208559,-10.962032932058785,68.88574423772725
1588960092.072328,0.34087104122928485,-1.8107258676910707,-9.509564479385357,-0.5077777777777778,0.12777777777777774,0.6344444444444445,-4.810685330772324,-9.029942042256668,67.89042468843525
1588960092.082328,0.34,-1.7430156192065258,-9.567415183537264,-0.5077777777777778,0.12777777777777774,0.6344444444444445,-4.8125,-9.0,66.97788775723025
1588960092.092328,0.31114875239923223,-1.624595009596929,-9.57,-0.5077777777777778,0.12777777777777774,0.6344444444444445,-4.692286468330134,-10.021815019193857,65.97579174664108
1588960092.102328,0.33454147320613936,-1.546375580381582,-9.455473125038017,-0.5077777777777778,0.12777777777777774,0.6344444444444445,-4.636371930820543,-11.851982421280995,64.60817020133412
1588960092.112328,0.29673257517015594,-1.6824162143534074,-9.46065348496597,-0.4977777777777778,0.15444444444444444,0.67,-4.28799431377617,-13.919927091410356,62.21979732058241
1588960092.122328,0.2515626346170414,-1.8540619884552427,-9.469687473076592,-0.4977777777777778,0.15444444444444444,0.67,-3.9492197596278107,-14.54101377401568,60.074225144309466
1588960092.132328,0.1960034671289505,-2.153124035585697,-9.6088482273827,-0.4977777777777778,0.15444444444444444,0.67,-3.744655239746252,-14.851767140380622,58.50545310803345
1588960092.142328,0.11,-2.388357469141802,-9.628631224284836,-0.4977777777777778,0.15444444444444444,0.67,-3.494867091068131,-14.94605484821978,55.827092849969226
1588960092.152328,0.11,-2.347592574594227,-9.594660478828523,-0.4977777777777778,0.15444444444444444,0.67,-3.367476795606959,-15.158372007321734,54.63811675899828
1588960092.162328,0.07602856837530725,-2.33,-9.546028568375306,-0.509101588319342,0.18935952694760094,0.67,-3.047098190432088,-15.196919638086417,52.74491059024685
1588960092.172328,0.10643953155799482,-2.1988176863912186,-9.569151625246395,-0.5111111111111111,0.1955555555555556,0.67,-3.0455494144474935,-14.640907026630078,51.22461639547018
1588960092.182328,0.049067761357416535,-2.2972032840722494,-9.66766940339354,-0.5111111111111111,0.1955555555555556,0.67,-2.9854337712096335,-12.178490695128627,49.26138341543514
1588960092.192328,0.03070191570881226,-2.242105747126437,-9.62175478927203,-0.5111111111111111,0.1955555555555556,0.67,-2.6984674329501916,-9.538400383141763,47.02304597701149
1588960092.202328,0.037752325313244676,-2.2787616265662236,-9.565733722807288,-0.5111111111111111,0.1955555555555556,0.67,-2.5421439003766624,-7.7416788377277275,45.193226804519945
1588960092.212328,0.006389981554325838,-2.283277996310865,-9.543277996310865,-0.5529369118435056,0.19406177695797006,0.6924066789637828,-2.3319499077716292,-5.989624308287219,42.208761139631534
1588960092.222328,-0.12078082563824008,-2.33539041281912,-9.558463470939706,-0.5733333333333334,0.19333333333333333,0.7033333333333334,-1.961508266567083,-3.817144639462249,35.98024383826724
1588960092.232328,-0.14417218779577476,-2.453377502366198,-9.673377502366199,-0.5733333333333334,0.19333333333333333,0.7033333333333334,-1.893211913138204,-3.5546357394146115,33.39238374377199
1588960092.242328,-0.17593374713264065,-2.430843340979625,-9.60762042909189,-0.5733333333333334,0.19333333333333333,0.7033333333333334,-1.712914080420996,-4.850715996491702,29.7985680070166
1588960092.252328,-0.13393911177685114,-2.466060888223149,-9.597676814703858,-0.5733333333333334,0.19333333333333333,0.7033333333333334,-1.447599540504433,-5.974121746083155,26.97599540504433
1588960092.262328,-0.11064110834638896,-2.311539950235001,-9.50641108346389,-0.8520203292408619,0.09038552514361195,0.52239476136352,-1.375,-7.127396092526034,23.149867139741346
1588960092.272328,-0.11802965589491497,-2.3802965589491496,-9.564237247159319,-0.8711111111111111,0.08333333333333333,0.51,-1.224443951970344,-6.384534410508502,20.327861834152632
1588960092.282328,-0.15976828725456255,-2.4079536574509124,-9.61181462980365,-0.8711111111111111,0.08333333333333333,0.51,-1.0383689227953905,-4.5470581507492955,17.301402764726248
1588960092.292328,-0.1787515271243274,-2.5412729068649114,-9.690012216994619,-0.8711111111111111,0.08333333333333333,0.51,-0.7812118218918146,-2.702876842296795,13.952647773647683
1588960092.3023279,-0.15984661577976342,-2.486104257859133,-9.632822052599211,-0.8711111111111111,0.08333333333333333,0.51,-0.6660275657490142,-2.2480826972470425,11.253258058097892
1588960092.3123279,-0.06496819838490675,-2.1183759737011365,-9.523471378546416,-1.3000493103694706,0.743746992543891,-0.09844978044577835,-0.4655653719717001,-2.5501590080754664,7.1488869434717355
1588960092.3223279,-0.07947382117206203,-2.069824607057354,-9.539473821172061,-1.3755555555555556,0.86,-0.20555555555555555,-0.13048102945768708,-1.6425392942645987,3.0021761476007076
1588960092.3323278,-0.13904850479324654,-2.1459195061627456,-9.658097009586493,-1.3755555555555556,0.86,-0.20555555555555555,-0.0195562414406312,-0.4651186558469431,0.09051851889704254
1588960092.3423278,-0.11384605922150953,-2.105769088832264,-9.64384605922151,-1.3755555555555556,0.86,-0.20555555555555555,0.07532070995518847,0.1266035497759424,-2.1322159739917406
1588960092.3523278,-0.07096487196323047,-1.9177189757058437,-9.550204530531845,-1.3755555555555556,0.86,-0.20555555555555555,0.20431303348653973,0.1767174162836507,-4.836260669730795
1588960092.3623278,-0.08506202464717127,-1.8237344938382072,-9.491203481514622,-0.9543743080128162,0.6407072843372514,0.3527706601953155,0.17168117297758978,0.5715723756456664,-7.1597388864033835
1588960092.3723278,-0.07073718611674182,-1.9565597981218714,-9.509262813883257,-0.7033333333333334,0.51,0.6855555555555556,0.2469283911802424,2.094283911802424,-9.706997476523394
1588960092.3823278,-0.07,-2.0621861822899774,-9.593026273110606,-0.7033333333333334,0.51,0.6855555555555556,0.32983295491404474,2.444331819656179,-11.027327278624716
1588960092.3923278,-0.05043560805822171,-2.1069570720388144,-9.587828288155258,-0.7033333333333334,0.51,0.6855555555555556,0.375,2.1766493513342473,-13.38036599514819
1588960092.4023278,-0.07891173256708083,-2.0805441337164594,-9.56648528876118,-0.7033333333333334,0.51,0.6855555555555556,0.5776652737868793,1.896966945242624,-15.992921354567162
1588960092.4123278,-0.10825406422141609,-2.0039674862286714,-9.503967486228671,-0.5584286503351397,0.3293277053756699,0.719488930688044,0.6359120986161494,3.7321644498186215,-19.155779759505577
1588960092.4223278,-0.23669524641412287,-2.336300340198602,-9.591356197131297,-0.5277777777777778,0.2911111111111111,0.7266666666666667,0.625,4.125,-19.625
1588960092.4323277,-0.3012928666995282,-2.300897119921132,-9.643034293359623,-0.5277777777777778,0.2911111111111111,0.7266666666666667,0.6766160833744103,4.537928666995282,-20.296009083867332
1588960092.4423277,-0.27426271932094615,-2.3246716008488173,-9.641065679830238,-0.5277777777777778,0.2911111111111111,0.7266666666666667,0.6316604989389784,3.6198889809016097,-19.655746985145697
1588960092.4523277,-0.27,-2.3224277306213965,-9.632427730621398,-0.5277777777777778,0.2911111111111111,0.7266666666666667,0.5776733163837284,3.9259401525464446,-18.426659593209482
1588960092.4623277,-0.27,-2.209444118283225,-9.52865710842629,-0.4878548204911645,0.22866751125256207,0.7399743190955378,0.6200811883941538,5.098961391094768,-16.27748315978123
1588960092.4723277,-0.2556873227852211,-2.2047708924049263,-9.522385446202463,-0.4844444444444445,0.22333333333333333,0.7411111111111112,0.5951819224692106,5.381317503950131,-15.543547488149606
1588960092.4823277,-0.22220581865434594,-2.2102353450765233,-9.556852801039561,-0.4844444444444445,0.22333333333333333,0.7411111111111112,0.5,5.923713633410338,-13.275553620415824
1588960092.4923277,-0.26,-2.1935278582930757,-9.626472141706923,-0.4844444444444445,0.22333333333333333,0.7411111111111112,0.37317632850241544,4.6729106280193236,-10.858586956521739
1588960092.5023277,-0.20820874013031035,-2.1611565550977327,-9.587630462581444,-0.4844444444444445,0.22333333333333333,0.7411111111111112,0.19111423468041489,2.973642346804149,-9.260490033896929
1588960092.5123277,-0.18,-2.1743232024904713,-9.555290056075512,-0.4713689387337888,0.2157059550021175,0.7416559238490551,0.09435428349065075,1.8834599688691105,-8.227814252359762
1588960092.5223277,-0.18,-2.2430745654716295,-9.54,-0.4577777777777778,0.20777777777777776,0.7422222222222222,0.0625,0.8586951042464814,-7.129851897406945
1588960092.5323277,-0.14683188057143798,-2.1217995023809912,-9.567640099523802,-0.4577777777777778,0.20777777777777776,0.7422222222222222,0.0970501244047521,0.4588496267857437,-6.190597760714462
1588960092.5423276,-0.09494308323811942,-2.01,-9.583735770809529,-0.4577777777777778,0.20777777777777776,0.7422222222222222,0.046697135119123184,1.3929372434513987,-4.904471351191232
1588960092.5523276,-0.1023086769064942,-2.0490401845863646,-9.58,-0.4577777777777778,0.20777777777777776,0.7422222222222222,-0.1394292306655888,3.2548630759902992,-3.879783077337645
1588960092.5623276,0.23416792135329023,-1.586942697723851,-9.260554423877425,-0.4531481317470158,0.19929009338804754,0.7329629301606984,-0.46701465769196704,9.154531263838456,-3.6979175892303604
1588960092.5723276,0.163262429989688,-1.2070323715550881,-9.403421962512889,-0.4511111111111111,0.1955555555555556,0.7288888888888889,0.14605490628222495,18.75232651596336,-5.185325130921811
1588960092.5823276,-0.05868152735984106,-1.12391480908002,-9.57629816821993,-0.4511111111111111,0.1955555555555556,0.7288888888888889,0.5882986648748137,21.30983778375062,-6.503993324374068
1588960092.5923276,0.10062901312116138,-1.2122398450586265,-9.35017640284757,-0.4511111111111111,0.1955555555555556,0.7288888888888889,0.8171663438721385,18.38187137946678,-7.725198256909548
1588960092.6023276,-0.009543636261197835,-1.611516141754465,-9.379156008789227,-0.4511111111111111,0.1955555555555556,0.7288888888888889,0.6575687362668319,9.661709814637444,-9.039836751366273
1588960092.6123276,-0.08606036671368122,-2.1769703808180534,-9.438333145275035,-0.4511111111111111,0.1914309669330826,0.6967170976335998,0.4839016220028209,-7.691315232722143,-10.908147038081806
1588960092.6223276,-0.014610970901011669,-2.563112232791907,-9.572789533855346,-0.4511111111111111,0.19,0.6855555555555556,-0.030835436484825007,-19.775031547272373,-14.029177182424124
1588960092.6323276,-1.8162304979377129,-15.01452487696017,-16.090164385199355,-0.4511111111111111,0.19,0.6855555555555556,1.1998724769362583,-9.377118327455317,-54.413007850638614
1588960092.6423275,-2.031441700364268,-1.8314767904287663,-10.86399091000234,-0.4511111111111111,0.19,0.6855555555555556,98.95428057013,127.69374310730876,-431.14282282859335
1588960092.6523275,-2.3635265797392178,0.7332196589769318,-4.650004012036108,-0.4511111111111111,0.19,0.6855555555555556,117.64452106318957,244.49089769307923,-665.3385531594785
1588960092.6623275,-7.898448088328852,-8.186872781004372,-4.1396720504032665,-0.4452437275250089,0.19684528085045253,0.6835997610268548,90.54047935436206,264.8783374720381,-684.471224885587
1588960092.6723275,-11.99562645011601,-7.5417285382830626,-7.822494199535963,-0.4311111111111111,0.21333333333333332,0.6788888888888889,75.3372969837587,122.19975348027842,-507.9927494199536
1588960092.6823275,4.4472276414817715,4.39527592610693,-18.726521161176816,-0.4311111111111111,0.21333333333333332,0.6788888888888889,-0.37491814094418885,-94.6268607662985,-289.3525437396149
1588960092.6923275,0.22204949238578653,2.6489038705583754,-6.544398794416242,-0.4311111111111111,0.21333333333333332,0.6788888888888889,-93.67426435596447,-135.19773159898477,-249.53407558692894
1588960092.7023275,-0.0212831763698631,3.464148269324853,-6.325033482142856,-0.4311111111111111,0.21333333333333332,0.6788888888888889,-45.17878069196428,-90.18375332528132,-185.3462487386864
1588960092.7123275,2.1051056650683715,4.94091280412005,-15.256331024684782,-0.48649854969514,0.16298111643876162,0.6574891967086959,24.575919019712305,-19.119833288936245,-118.3643003019002
1588960092.7223275,2.034963131026659,2.509609567025903,-10.070707128001512,-0.5777777777777777,0.08,0.6222222222222222,5.2614979202117595,42.0342987804878,-88.85778266212895
1588960092.7323275,1.931007532254456,1.1990834514132298,-10.54661645163696,-0.5777777777777777,0.08,0.6222222222222222,-0.4947423372361852,87.533251920352,-55.54766854351555
1588960092.7423275,3.343153749869615,-1.4470632105976846,-9.643325857932616,-0.5777777777777777,0.08,0.6222222222222222,3.197731954730364,79.43482059038281,-28.75812297903411
1588960092.7523274,5.178130138184363,-3.3634843449361553,-9.318000699667659,-0.5777777777777777,0.08,0.6222222222222222,3.2549741997551163,32.27280479272346,-14.585610897323772
1588960092.7623274,4.613491505565319,-2.562729935559461,-9.511628588166374,-0.5795254833040422,0.021743149124519946,0.6362038664323374,3.246301991798477,-4.398506151142355,-3.0771821909783243
1588960092.7723274,2.643140479492768,-1.3152308301961562,-9.25,-0.5811111111111111,-0.031111111111111114,0.6488888888888888,1.1576926887259757,-12.435661036259164,2.4194571032296412
1588960092.7823274,2.0569062521977637,-1.8535480694844926,-9.628760812996694,-0.5811111111111111,-0.031111111111111114,0.6488888888888888,-0.16591796188198893,-10.702576657992827,-0.2565053801251844
1588960092.7923274,2.0691932483957967,-1.9792085929508043,-9.479223937505811,-0.5811111111111111,-0.031111111111111114,0.6488888888888888,0.20995013019622433,-4.900402794568958,-0.4950537059425276
1588960092.8023274,2.1,-2.029567524769425,-9.542737369198177,-0.5811111111111111,-0.031111111111111114,0.6488888888888888,0.11761598296633924,-1.183181399927243,0.14985502129207595
1588960092.8123274,2.1487094002882166,-2.0104151424454053,-9.51474725640173,-0.5756989555235316,-0.020286799935951914,0.6272402665385705,-0.3234432158297306,0.26641482374459596,0.3315094640283782
1588960092.8223274,2.1389319609141437,-2.0732041172575695,-9.478640823451514,-0.5733333333333334,-0.015555555555555557,0.6177777777777778,-0.20448970685607656,-0.3392009771464114,0.3125
1588960092.8323274,2.2040015683638603,-2.0266134543214025,-9.412460090741051,-0.5733333333333334,-0.015555555555555557,0.6177777777777778,-0.30481221643421275,-0.6913438917828936,0.35288536940570214
1588960092.8423274,2.1397597185653914,-2.008908334623979,-9.616419452618537,-0.5733333333333334,-0.015555555555555557,0.6177777777777778,-0.23485242383344027,-0.7465885456999358,0.2128819390667522
1588960092.8523273,2.0959623837894963,-2.0220188081052517,-9.658216293210396,-0.5733333333333334,-0.015555555555555557,0.6177777777777778,-0.07511755065782419,-0.6379114273023847,0.125
1588960092.8623273,2.12,-2.0156953503050703,-9.510887439511887,-0.5729536433129954,-0.01960558243916123,0.6170183977371017,0.03559593940669051,-0.3607616242373238,0.1321191878813381
1588960092.8723273,2.1551948246484542,-2.0326262474956467,-9.373520886775141,-0.57,-0.05111111111111112,0.6111111111111112,0.214736598198738,-0.1277957477484225,0.1875
1588960092.8823273,2.2061756109442237,-1.970878054721117,-9.323541446780872,-0.57,-0.05111111111111112,0.6111111111111112,0.014695136802792892,-0.009207294795810672,0.11579270520418933
1588960092.8923273,2.173712937011359,-1.9662870629886413,-9.493242366130698,-0.57,-0.05111111111111112,0.6111111111111112,-0.19941178639917392,-0.09761764272016521,-0.05476471455966957
1588960092.9023273,2.144902738674175,-2.0024513693370873,-9.568132198617866,-0.57,-0.05111111111111112,0.6111111111111112,-0.25243153314563604,0.029426350140772967,-0.09435788328640901
1588960092.9123273,2.1799367638750056,-1.9900632361249944,-9.43411382502499,-0.5828481367194479,-0.051997189505555805,0.6084528759277771,0.125,0.23773713546872963,0.024920954843756792
1588960092.9223273,2.2001913760522247,-1.9747129359216629,-9.355478440130563,-0.6022222222222222,-0.05333333333333334,0.6044444444444445,0.1556519498367978,0.24760779934719118,0.0931519498367978
1588960092.9323273,2.1528890815348816,-2.033296071542638,-9.52792489848063,-0.6022222222222222,-0.05333333333333334,0.6044444444444445,-0.04444324040698999,0.0657423461240133,0.04768558653100333
1588960092.9423273,2.1538304908584114,-2.030211886426985,-9.542762791137148,-0.6022222222222222,-0.05333333333333334,0.6044444444444445,-0.2992054258988047,0.02394056786507298,0.11170542589880474
1588960092.9523273,2.17,-1.9952897033848096,-9.48471029661519,-0.6022222222222222,-0.05333333333333334,0.6044444444444445,-0.3137070974367076,0.0024141948734152097,0.09556064615506142
1588960092.9623272,2.180656847528153,-1.9853284237640765,-9.430730491067004,-0.5992619867977352,-0.0503730979088464,0.6156933390574948,0.016421188203824155,0.10811853967834614,0.0
1588960092.9723272,2.1543147827203284,-2.0375802897062285,-9.453265506985899,-0.5966666666666667,-0.04777777777777778,0.6255555555555555,0.32434420266598196,0.20098369600102703,0.0
1588960092.9823272,2.1568419333006603,-2.032421293379075,-9.467052906718942,-0.5966666666666667,-0.04777777777777778,0.6255555555555555,0.17368550024504656,0.19210483325165115,0.0
1588960092.9923272,2.171167559357263,-1.9955837796786313,-9.478578423535055,-0.5966666666666667,-0.04777777777777778,0.6255555555555555,-0.11040550803421537,0.0015876069230154055,0.05520275401710768
1588960093.0023272,2.164562306564587,-1.99,-9.512626160612477,-0.5966666666666667,-0.04777777777777778,0.6255555555555555,-0.27851441602866917,-0.2269567519139925,0.08222837595699625
1588960093.0123272,2.178226747027203,-1.99,-9.43063951783678,-0.5966666666666667,-0.04777777777777778,0.6255555555555555,-0.3639171689200196,0.02925150676005861,-0.045875753380029305
1588960093.0223272,2.147545749957243,-2.009939000057009,-9.484725500256541,-0.6022222222222222,-0.03555555555555556,0.6322222222222222,-0.046398437945385104,-0.06211875035630808,0.07822031241092298
1588960093.0323272,2.168008958130477,-1.9819910418695228,-9.366923855890944,-0.6022222222222222,-0.03555555555555556,0.6322222222222222,0.175055988315482,0.118777994157741,0.11255598831548198
1588960093.0423272,2.1568455887700924,-2.0068455887700924,-9.506308822459815,-0.6022222222222222,-0.03555555555555556,0.6322222222222222,-0.023069859626154626,0.04110753509346134,0.0
1588960093.0523272,2.1667380737056297,-2.0167380737056297,-9.481630963147186,-0.6022222222222222,-0.03555555555555556,0.6322222222222222,-0.1875,-0.020387039339814606,0.0
1588960093.0623271,2.152564475873544,-2.0076934276206324,-9.497693427620632,-0.5985179792937696,-0.034130846736919955,0.6285179792937696,-0.17147202579034942,-0.07691607737104825,0.016027974209650582
1588960093.0723271,2.166124204766457,-2.025917196822362,-9.495503180934172,-0.5877777777777777,-0.03,0.6177777777777778,-0.09948248013976332,0.11353503972047335,0.024223720209644993
1588960093.0823271,2.172093110993737,-2.023430166754697,-9.462674111521919,-0.5877777777777777,-0.03,0.6177777777777778,0.05595902814457104,0.2005819437108579,0.014897570361427609
1588960093.092327,2.165067105659998,-2.0450223685533326,-9.509865788680004,-0.5877777777777777,-0.03,0.6177777777777778,-0.0005592138333165853,0.0625,0.1875
1588960093.102327,2.154844611101642,-2.041614870367214,-9.496770259265572,-0.5877777777777777,-0.03,0.6177777777777778,-0.2036105903073689,0.010092939795087408,0.1088894096926311
1588960093.112327,2.144930184577976,-2.005069815422024,-9.482604723133036,-0.595164499134215,-0.03,0.6270111794733244,-0.2865310577312751,-0.0365310577312751,0.025968942268724902
1588960093.122327,2.1560444607753078,-1.9891644313797536,-9.453955539224692,-0.6055555555555555,-0.03,0.64,-0.13022230387653866,0.089833272092596,0.0625
1588960093.132327,2.1410191341008593,-2.0136730447002864,-9.483673044700287,-0.6055555555555555,-0.03,0.64,0.09182611750716177,0.27932611750716174,0.016586941246419115
1588960093.142327,2.1564440180370337,-2.012888036074067,-9.504223927851866,-0.6055555555555555,-0.03,0.64,0.16110045092583708,0.25970090185167416,-0.0625
1588960093.152327,2.15663404311599,-1.99778865229467,-9.49904113212538,-0.6055555555555555,-0.03,0.64,-0.041462769474937176,-0.03485815368337521,-0.04867907684168761
1588960093.162327,2.1670548753961842,-1.9977670747622895,-9.410712199366106,-0.6041172083773537,-0.03143834717820176,0.6379863139505175,-0.1875,-0.01840702877384874,-0.03236281150953949
1588960093.172327,2.1370349389803445,-2.0153100406797706,-9.47937991864046,-0.6,-0.03555555555555556,0.6322222222222222,-0.1581877542485648,-0.1620632627456944,-0.09568775424856481
1588960093.182327,2.1561096740817383,-2.011670977754785,-9.525561303673047,-0.6,-0.03555555555555556,0.6322222222222222,0.010443610967408173,0.125,0.07294361096740817
1588960093.192327,2.153238011068325,-2.026761988931675,-9.53542895019254,-0.6,-0.03555555555555556,0.6322222222222222,0.14523756917703007,0.14523756917703007,0.14702486164593986
1588960093.202327,2.1694238526109233,-2.0134568843344596,-9.462304589556307,-0.6,-0.03555555555555556,0.6322222222222222,0.23199539409135506,0.246399078818271,-0.06610092118172899
1588960093.212327,2.1584678912442015,-2.05774312995361,-9.495403673732604,-0.5952334394264039,-0.03555555555555556,0.6312008163850231,-0.08165135944748393,0.16834864055251608,-0.11542432027625804
1588960093.222327,2.1504700383782347,-1.99,-9.47,-0.5688888888888889,-0.03555555555555556,0.6255555555555555,-0.1816245202720675,0.059562260136033746,-0.0625
1588960093.232327,2.16,-1.9991743135903668,-9.48223241812049,-0.5688888888888889,-0.03555555555555556,0.6255555555555555,-0.043386846686736064,0.03822630662652787,-0.043386846686736064
1588960093.242327,2.1586915220341405,-2.016074566102421,-9.499532176273123,-0.5688888888888889,-0.03555555555555556,0.6255555555555555,0.008177987286622385,0.1331779872866224,0.008177987286622385
1588960093.252327,2.15,-1.9964975087654548,-9.44299501753091,-0.5688888888888889,-0.03555555555555556,0.6255555555555555,0.001585855323860491,0.1875,0.0828047148920465
1588960093.262327,2.1481103861752775,-2.01,-9.464331158525834,-0.5747676874546915,-0.03555555555555556,0.6268152981053704,-0.1368100864045142,0.1520697407864574,0.08956974078645741
1588960093.272327,2.143279556863424,-2.0165591137268475,-9.44,-0.6,-0.03555555555555556,0.6322222222222222,-0.1875,0.0,-0.0625
1588960093.282327,2.15,-2.0278270108335943,-9.449778451248823,-0.6,-0.03555555555555556,0.6322222222222222,-0.13996586198488173,-0.006790591145016895,-0.0625
1588960093.292327,2.1569736701844153,-2.016973670184415,-9.523026329815584,-0.6,-0.03555555555555556,0.6322222222222222,0.22820728067370216,0.002878157978893514,0.002878157978893514
1588960093.302327,2.168120618267597,-2.03,-9.498723709605581,-0.6,-0.03555555555555556,0.6322222222222222,0.1875,0.14849227165503703,0.07801545668992593
1588960093.312327,2.1612017287738574,-2.03,-9.457210372643143,-0.6,-0.03555555555555556,0.6322222222222222,0.1875,0.23497839032678447,-0.09495678065356891
1588960093.322327,2.15291219542987,-2.01,-9.448736586289609,-0.5811111111111111,-0.048888888888888885,0.64,-0.15109755712662543,-0.036402442873374574,0.036402442873374574
1588960093.332327,2.1564365524934623,-2.01,-9.509197922571914,-0.5811111111111111,-0.048888888888888885,0.64,-0.01795690616827899,-0.125,0.1027284530841395
1588960093.3423269,2.1512158021843346,-2.01,-9.572705186893991,-0.5811111111111111,-0.048888888888888885,0.64,0.054901236347907584,-0.07940741808744547,0.03970370904372274
1588960093.3523269,2.1587750063078976,-2.01,-9.527349962152615,-0.5811111111111111,-0.048888888888888885,0.64,0.007656210575640705,0.20406273654615575,-0.10203136827307788
1588960093.3623269,2.1850650929338875,-2.0090130185867774,-9.43,-0.5817690987199261,-0.04702459066391307,0.6385743601809009,0.04399409850207826,0.11883136616735943,0.056331366167359426
1588960093.3723269,2.1439477295898364,-2.000789545917967,-9.43,-0.5872514138324663,-0.03149136451171586,0.626696010770397,-0.11019601403811466,0.06743466198729511,0.004934661987295114
1588960093.3823268,2.1419156504065042,-2.003831300813008,-9.479156504065042,-0.5877777777777777,-0.03,0.6255555555555555,-0.11302718495934959,-0.08908155487804878,-0.011972815040650406
1588960093.3923268,2.1498091689250227,-2.019618337850045,-9.558091689250226,-0.5877777777777777,-0.03,0.6255555555555555,-0.06369269421860885,0.05892191734417343,-0.061307305781391146
1588960093.4023268,2.174853579817165,-2.015146420182835,-9.467426789908583,-0.5877777777777777,-0.03,0.6255555555555555,0.125,0.0625,0.0625
1588960093.4123268,2.16067861910475,-2.02932138089525,-9.460339309552376,-0.5877777777777777,-0.03,0.6255555555555555,0.125,0.0625,0.0625
1588960093.4223268,2.1621195783524514,-2.02,-9.44907620517206,-0.5811111111111111,-0.042222222222222223,0.6255555555555555,0.07201054118871889,0.04925263529717972,-0.125
1588960093.4323268,2.1699172693301603,-2.02,-9.519255423971444,-0.5811111111111111,-0.042222222222222223,0.6255555555555555,-0.12293173325401108,0.0005170666864972306,-0.125
1588960093.4423268,2.153153487604669,-1.9963069752093388,-9.550539537185992,-0.5811111111111111,-0.042222222222222223,0.6255555555555555,-0.12837210741244895,-0.01970929752918368,0.0625
1588960093.4523268,2.16,-2.0117489452742285,-9.510761601983484,-0.5811111111111111,-0.042222222222222223,0.6255555555555555,0.021861815927858755,-0.040638184072141245,0.08436181592785875
1588960093.4623268,2.160165886648208,-2.0201658866482077,-9.420165886648208,-0.5812217022099162,-0.042222222222222223,0.6259057607017715,0.125,0.0645735831025949,0.1854264168974051
1588960093.4723268,2.168788305033658,-2.028788305033658,-9.43,-0.5877777777777777,-0.042222222222222223,0.6466666666666666,0.10985381292072742,0.17614035969054556,0.0625
1588960093.4823267,2.1466136934214055,-2.01,-9.474021985521729,-0.5877777777777777,-0.042222222222222223,0.6466666666666666,-0.125,0.0,0.04133558388378385
1588960093.4923267,2.1424999155947195,-2.01,-9.540000675242243,-0.5877777777777777,-0.042222222222222223,0.6466666666666666,-0.125,0.0,0.015624472466997536
1588960093.5023267,2.1495803369458795,-2.01,-9.483357304432966,-0.5877777777777777,-0.042222222222222223,0.6466666666666666,-0.125,0.0,0.05987710591174584
1588960093.5123267,2.16,-2.0030688073394494,-9.473862385321102,-0.5877777777777777,-0.041540265035677884,0.6437115188583078,0.06889334862385321,0.006393348623853211,0.0
1588960093.5223267,2.16,-2.024832618378112,-9.42,-0.5877777777777777,-0.03555555555555556,0.6177777777777778,0.076555797294801,0.0625,0.032296135136799325
1588960093.5323267,2.1546374180844845,-2.0064249453896563,-9.441450327662062,-0.5877777777777777,-0.03555555555555556,0.6177777777777778,-0.0625,0.05132795434267606,0.10265590868535213
1588960093.5423267,2.1431292912335076,-1.993282322808377,-9.526870708766491,-0.5877777777777777,-0.03555555555555556,0.6177777777777778,-0.0625,0.0,0.02051451755235574
1588960093.5523267,2.17,-2.0021015940155875,-9.489492029922062,-0.5877777777777777,-0.03555555555555556,0.6177777777777778,-0.049365037402577056,0.039404887792268826,0.023095112207731174
1588960093.5623267,2.16890819026939,-2.01,-9.446724570808168,-0.5882023704507927,-0.035919492132425575,0.6182023704507927,0.006823810816312682,0.18067618918368733,-0.12158809459184367
1588960093.5723267,2.1522987492243884,-2.0145974984487767,-9.399194996897554,-0.5955555555555555,-0.042222222222222223,0.6255555555555555,0.06753126939028771,0.0625,-0.0625
1588960093.5823267,2.1591474804872473,-2.0282949609744945,-9.42658992194899,-0.5955555555555555,-0.042222222222222223,0.6255555555555555,-0.10368701218118287,0.0625,-0.0625
1588960093.5923266,2.1579664573927766,-2.01,-9.54,-0.5955555555555555,-0.042222222222222223,0.6255555555555555,-0.2743710761145598,-0.02437107611455982,0.012709641295146725
1588960093.6023266,2.150569624717833,-2.01,-9.54,-0.5955555555555555,-0.042222222222222223,0.6255555555555555,-0.13568046345936796,0.11431953654063204,0.05893984551354401
1588960093.6123266,2.15920663987253,-2.01,-9.457140241147233,-0.5955555555555555,-0.042222222222222223,0.6255555555555555,-0.00991700159337916,0.125,0.12004149920331042
1588960093.6223266,2.16,-2.0347253591785326,-9.417032854428623,-0.6037973419483997,-0.06877908948805347,0.61914527725001,0.1545334948658284,0.17651116495527613,0.125
1588960093.6323266,2.158194219212058,-2.0163884384241153,-9.431669369455308,-0.6055555555555555,-0.07444444444444444,0.6177777777777778,0.1137138700753601,-0.056430649623199464,0.1137138700753601
1588960093.6423266,2.1519661887105554,-2.0039323774211115,-9.522135245157777,-0.6055555555555555,-0.07444444444444444,0.6177777777777778,0.037922641118054295,-0.27563396167708143,0.07478867944097285
1588960093.6523266,2.1536807811328735,-2.0221064062890424,-9.49,-0.6055555555555555,-0.07444444444444444,0.6177777777777778,-0.04933496069348607,-0.11183496069348607,0.11183496069348607
1588960093.6623266,2.131129797604829,-2.0294351011975853,-9.487457955389134,-0.6057752384231612,-0.07353432970722101,0.6177777777777778,-0.003530617515090868,-0.0625,0.06779592627263631
1588960093.6723266,2.1633570867467173,-2.01,-9.417714435342086,-0.6133333333333333,-0.042222222222222223,0.6177777777777778,-0.15267880522201024,-0.10401820783301538,0.22232119477798976
1588960093.6823266,2.1402696782635906,-2.0099101072454695,-9.48044946377265,-0.6133333333333333,-0.042222222222222223,0.6177777777777778,-0.25,-0.24943817028418627,0.12387634056837254
1588960093.6923265,2.167074937740548,-2.002925062259452,-9.528537468870274,-0.6133333333333333,-0.042222222222222223,0.6177777777777778,-0.24085918043921214,-0.19664081956078786,0.009140819560787865
1588960093.7023265,2.1499000800224928,-2.0198001600449857,-9.519200640179942,-0.6133333333333333,-0.042222222222222223,0.6177777777777778,-0.18562650042174017,-0.24750200056232022,0.061875500140580054
1588960093.7123265,2.14082877349309,-2.0016575469861797,-9.446630187944718,-0.6133333333333333,-0.042222222222222223,0.6177777777777778,-0.01553950299543655,-0.02071933732724876,0.00517983433181219
1588960093.7223265,2.151561006905168,-2.01,-9.446877986189664,-0.5811111111111111,-0.03555555555555556,0.6255555555555555,0.0,0.16798741368540124,0.0625
1588960093.7323265,2.1586422650301365,-2.01,-9.432715469939728,-0.5811111111111111,-0.03555555555555556,0.6255555555555555,0.0,0.07947168712329693,0.0625
1588960093.7423265,2.178625986837082,-2.007251973674164,-9.49450394734833,-0.5811111111111111,-0.03555555555555556,0.6255555555555555,-0.025762746804709333,-0.11641241773176356,0.0625
1588960093.7523265,2.1722212042084688,-1.9944424084169377,-9.468884816833876,-0.5811111111111111,-0.03555555555555556,0.6255555555555555,-0.14585242109120894,-0.07638252630293035,0.0625
1588960093.7623265,2.150428617351859,-1.9997856913240704,-9.47957138264814,-0.5811111111111111,-0.03555555555555556,0.6255555555555555,-0.06517885844911955,-0.0013394292245597766,0.0013394292245597766
1588960093.7723265,2.160759075907591,-2.0107590759075906,-9.43924092409241,-0.5733333333333334,-0.048888888888888885,0.6322222222222222,0.0,-0.11076732673267327,0.06724422442244224
1588960093.7823265,2.165911835610148,-2.024088164389852,-9.454528986339112,-0.5733333333333334,-0.048888888888888885,0.6322222222222222,-0.025551027436574447,0.08805102743657445,0.08667345884513833
1588960093.7923265,2.1534262218045113,-2.029721334586466,-9.53800822368421,-0.5733333333333334,-0.048888888888888885,0.6322222222222222,-0.125,0.15537917058270675,-0.07320694313909774
1588960093.8023264,2.171287994287589,-1.985151977150356,-9.478712005712412,-0.5733333333333334,-0.048888888888888885,0.6322222222222222,-0.125,-0.01609992859486269,-0.10890007140513731
1588960093.8123264,2.179382442055696,-2.017529768222784,-9.470617557944305,-0.5733333333333334,-0.048888888888888885,0.6322222222222222,-0.125,-0.11728052569620008,-0.00771947430379992
1588960093.8223264,2.15,-2.0030592143203156,-9.434588821480473,-0.5955555555555555,-0.03,0.6177777777777778,0.009560044750986136,-0.11543995524901386,0.0625
1588960093.8323264,2.151241561281734,-2.0187584387182658,-9.472415612817343,-0.5955555555555555,-0.03,0.6177777777777778,0.04698048397832082,-0.0625,0.07801951602167918
1588960093.8423264,2.160991134613889,-2.010991134613889,-9.556035461544443,-0.5955555555555555,-0.03,0.6177777777777778,-0.0625,-0.050110817326386184,0.16272163465277237
1588960093.8523264,2.1691455400886537,-2.0191455400886538,-9.523417839645385,-0.5955555555555555,-0.03,0.6177777777777778,-0.0625,0.05181925110817327,-0.041138502216346545
1588960093.8623264,2.151343535724933,-2.0075623571499555,-9.476468250024842,-0.5955555555555555,-0.03,0.6177777777777778,-0.023632366093610253,-0.05410290171916923,0.09297053562555899
1588960093.8723264,2.1472146308319493,-2.0216438924958475,-9.428356107504152,-0.5955555555555555,-0.03400812823997182,0.6177777777777778,0.0,0.010274328099048768,0.05222567190095123
1588960093.8823264,2.1570270599955275,-2.03,-9.427027059995527,-0.5955555555555555,-0.03555555555555556,0.6177777777777778,0.0,-0.025338249944090924,0.0
1588960093.8923264,2.1696041622723756,-2.001187513182873,-9.535645784996133,-0.5955555555555555,-0.03555555555555556,0.6177777777777778,0.060026014202348314,0.11757804260704494,0.0
1588960093.9023263,2.17,-2.0142699320013286,-9.518595101998006,-0.5955555555555555,-0.03555555555555556,0.6177777777777778,-0.026687075008303182,0.0804064624958484,0.04459353750415159
1588960093.9123263,2.15233215792021,-2.0288339210398947,-9.465830394800527,-0.5955555555555555,-0.03555555555555556,0.6177777777777778,-0.11771200649934316,0.11771200649934316,-0.1583480259973726
1588960093.9223263,2.142532863531644,-2.0150657270632877,-9.452532863531644,-0.5988742828748249,-0.04551173751336375,0.6235855505864992,-0.125,0.03166079414554818,-0.0008215882910963535
1588960093.9323263,2.1680815846599133,-2.0180815846599134,-9.475755246020261,-0.6,-0.048888888888888885,0.6255555555555555,0.011990095875542691,-0.07449009587554269,-0.038519808248914614
1588960093.9423263,2.15,-2.000516433161277,-9.527934267354892,-0.6,-0.048888888888888885,0.6255555555555555,0.11854458548404087,-0.17781687822606132,0.18104458548404087
1588960093.9523263,2.15,-2.00778569962112,-9.48667854943168,-0.6,-0.048888888888888885,0.6255555555555555,0.0,0.0,0.05558031131600067
1588960093.9623263,2.15,-1.992129192407473,-9.46319378861121,-0.6,-0.048888888888888885,0.6255555555555555,0.0,0.0,0.006653726273353366
1588960093.9723263,2.16,-2.029028216119459,-9.45,-0.6,-0.03,0.6177777777777778,-0.0625,0.006073649253379811,-0.10677905223986056
1588960093.9823263,2.1574613924495583,-2.020846202516814,-9.45676962013451,-0.6,-0.03,0.6177777777777778,-0.05721123426991306,0.05192246853982612,0.07307753146017389
1588960093.9923263,2.1320681981335246,-2.0286212012443166,-9.52586360373295,-0.6,-0.03,0.6177777777777778,-0.004308746111509931,-0.053882507776980136,0.1745737616654702
1588960094.0023263,2.16,-2.0104635670522084,-9.468609298843376,-0.6,-0.03,0.6177777777777778,-0.0625,0.06829458815260737,-0.002897294076303687
1588960094.0123262,2.16,-2.016872068328011,-9.449383795015967,-0.6,-0.03,0.6177777777777778,-0.0625,0.14840085410013903,-0.04295042705006952
1588960094.0223262,2.16,-2.012138620386643,-9.432138620386644,-0.6,-0.03436743311853154,0.635247510251904,-0.11163362258347978,0.08923275483304043,-0.013366377416520213
1588960094.0323262,2.1672546419098144,-2.017254641909814,-9.43,-0.6,-0.03555555555555556,0.64,-0.1703415119363395,0.01715848806366048,0.0
1588960094.0423262,2.169930859355358,-2.02,-9.539792578066072,-0.6,-0.03555555555555556,0.64,0.0,0.0008642580580278574,0.062067870970986073
1588960094.0523262,2.1595468031449343,-2.019546803144934,-9.509093606289868,-0.6,-0.03555555555555556,0.64,0.005664960688325174,0.11083759827918707,0.002832480344162587
1588960094.0623262,2.1517692107995847,-2.0117692107995846,-9.493538421599169,-0.6,-0.03555555555555556,0.64,0.1028848650051921,-0.13221216251298024,0.05144243250259605
1588960094.0723262,2.1673373217150043,-2.0086686608575017,-9.423328347856245,-0.5877777777777777,-0.042222222222222223,0.6255555555555555,-0.06666043482030606,-0.12916043482030606,0.004160434820306065
1588960094.0823262,2.1309710842328866,-1.9904855421164434,-9.468786144708892,-0.5877777777777777,-0.042222222222222223,0.6255555555555555,-0.12348268088611436,-0.18598268088611436,0.06098268088611436
1588960094.0923262,2.146895538448804,-2.0153433076732057,-9.537582153795217,-0.5877777777777777,-0.042222222222222223,0.6255555555555555,-0.0722014423474878,-0.2402985576525122,0.009701442347487793
1588960094.1023262,2.1410409944638795,-2.028438508304181,-9.5173975138403,-0.5877777777777777,-0.042222222222222223,0.6255555555555555,0.003253107699623,0.0,0.006506215399246
1588960094.1123261,2.155286485752131,-2.007070271371803,-9.481783785619672,-0.5877777777777777,-0.042222222222222223,0.6255555555555555,0.04777026797541011,0.0,0.09554053595082022
1588960094.1223261,2.1496039430295375,-2.0,-9.458811829088614,-0.6133333333333333,-0.03555555555555556,0.6044444444444445,0.05507393180383077,0.18007393180383077,-0.0024753560653897424
1588960094.1323261,2.142247070792114,-2.0,-9.436741212376342,-0.6133333333333333,-0.03555555555555556,0.6044444444444445,-0.08286742264786359,0.04213257735213641,-0.04845580754928787
1588960094.142326,2.1302238330145307,-2.0,-9.547314003825633,-0.6133333333333333,-0.03555555555555556,0.6044444444444445,-0.125,0.061101043659183195,0.18190417463673278
1588960094.152326,2.1592730668305715,-2.029273066830571,-9.481696177395333,-0.6133333333333333,-0.03555555555555556,0.6044444444444445,-0.0640144441029763,0.0625,0.1875
1588960094.162326,2.1522093598872853,-2.03,-9.456628079661856,-0.6133333333333333,-0.03555555555555556,0.6044444444444445,0.08357450211340009,-0.08357450211340009,0.04142549788659991
1588960094.172326,2.1413497562227355,-2.0126995124454705,-9.424049268668206,-0.585460325606592,-0.0413223847403986,0.6159781028141305,-0.09125609443161406,-0.01687195278419297,-0.054064023607903515
1588960094.182326,2.1581339246551976,-1.9918660753448023,-9.483468736293192,-0.5811111111111111,-0.042222222222222223,0.6177777777777778,-0.125,0.0,-0.0625
1588960094.192326,2.15249251497006,-2.00501497005988,-9.542552395209581,-0.5811111111111111,-0.042222222222222223,0.6177777777777778,-0.07807821856287425,-0.04692178143712575,0.07826534431137724
1588960094.202326,2.15,-2.01,-9.5001491723997,-0.5811111111111111,-0.042222222222222223,0.6177777777777778,-0.12484461208364553,-0.12484461208364553,0.06265538791635447
1588960094.212326,2.13403553589812,-2.0339466961528196,-9.4600888397453,-0.5811111111111111,-0.042222222222222223,0.6177777777777778,-0.125,-0.125,0.0625
1588960094.222326,2.1402687779977083,-2.039731222002292,-9.420403166996563,-0.6,-0.03,0.6322222222222222,-0.0008399312428377956,-0.002519793728513387,-0.058300343785811025
1588960094.232326,2.154833836858006,-2.025166163141994,-9.442250755287008,-0.6,-0.03,0.6322222222222222,-0.04635574018126888,-0.13906722054380666,0.16927870090634442
1588960094.242326,2.16,-2.0161924992262894,-9.461422502321131,-0.6,-0.03,0.6322222222222222,-0.03870312016430802,-0.09231248065723209,0.08342184115015616
1588960094.252326,2.16,-2.010292181301522,-9.479123456095435,-0.6,-0.03,0.6322222222222222,-0.0018261331345131235,0.055195467461947506,-0.17471706805840814
1588960094.262326,2.154149140701821,-2.01,-9.468298281403642,-0.6,-0.03,0.6322222222222222,-0.03656787061361669,0.025932129386383312,-0.1509321293863833
1588960094.272326,2.15,-2.0055378590078328,-9.455537859007833,-0.5881009573542211,-0.032478967217870615,0.6292474615607775,-0.034611618798955614,0.05577676240208877,-0.06922323759791123
1588960094.282326,2.15,-2.005644960784757,-9.48386976470854,-0.5733333333333334,-0.03555555555555556,0.6255555555555555,-0.03528100490473069,0.08971899509526932,0.0
1588960094.292326,2.15,-2.018440349897636,-9.535321049692909,-0.5733333333333334,-0.03555555555555556,0.6255555555555555,0.09575656058068119,0.0625,0.10550437372045413
1588960094.302326,2.1579111921376333,-2.02,-9.5162664235871,-0.5733333333333334,-0.03555555555555556,0.6255555555555555,0.17444495086020828,0.013055049139791705,0.0755550491397917
1588960094.312326,2.16,-1.990683964426515,-9.473354955533145,-0.5733333333333334,-0.03555555555555556,0.6255555555555555,0.05008108324928945,-0.045806305583570184,0.016693694416429816
1588960094.322326,2.16,-2.012771454537586,-9.433782836369932,-0.5878984242389271,-0.03191428282915711,0.6204577737385977,-0.04096431817198252,-0.021535681828017482,0.04096431817198252
1588960094.332326,2.143915059347181,-2.0058725890207714,-9.436084940652819,-0.5955555555555555,-0.03,0.6177777777777778,0.08829631862017806,-0.15079631862017806,0.012234560459940653
1588960094.342326,2.1477036235803135,-2.0077036235803134,-9.517036235803136,-0.5955555555555555,-0.03,0.6177777777777778,-0.06759058950784205,-0.1393523526230395,-0.04814764737696051
1588960094.352326,2.1671228683865325,-2.0271228683865323,-9.531438565806733,-0.5955555555555555,-0.03,0.6177777777777778,-0.0714910362920857,-0.125,-0.008991036292085704
1588960094.362326,2.1627447334586094,-2.0227447334586093,-9.464702601127485,-0.5955555555555555,-0.03,0.6177777777777778,-0.10784541588369104,-0.03430916823261794,-0.04534541588369103
1588960094.372326,2.1414076576576577,-2.0014076576576576,-9.44929617117117,-0.5883252002002002,-0.04755943443443443,0.6115803303303303,0.04930320945945946,0.0,-0.004398930180180179
1588960094.382326,2.1679902523607564,-2.009330084120252,-9.422009747639244,-0.5877777777777777,-0.048888888888888885,0.6111111111111112,0.004186974248424208,0.0,-0.05831302575157579
1588960094.3923259,2.163849398064364,-2.01,-9.493807223227634,-0.5877777777777777,-0.048888888888888885,0.6111111111111112,-0.03844126209772602,-0.11532378629317806,0.014382524195452037
1588960094.4023259,2.16,-2.0030183706070286,-9.4911285942492,-0.5877777777777777,-0.048888888888888885,0.6111111111111112,-0.10613518370607028,-0.012959265175718854,0.19340555111821087
1588960094.4123259,2.1665051647811118,-2.0065051647811116,-9.450484505656664,-0.5877777777777777,-0.048888888888888885,0.6111111111111112,-0.04368544023610428,0.02184272011805214,0.08737088047220856
1588960094.4223258,2.16244487365202,-2.0024448736520197,-9.44,-0.59365398715954,-0.03881538709158217,0.6220240713915267,0.0,0.047219539674875265,-0.09443907934975053
1588960094.4323258,2.1725582245621733,-2.0062791122810864,-9.452558224562173,-0.5955555555555555,-0.03555555555555556,0.6255555555555555,0.0,-0.01598890351358269,0.03197780702716538
1588960094.4423258,2.172514216366158,-2.01,-9.53485783633842,-0.5955555555555555,-0.03555555555555556,0.6255555555555555,-0.04678614771151179,-0.015713852288488213,-0.015358443134535382
1588960094.4523258,2.161893256063934,-2.001893256063934,-9.511359536383605,-0.5955555555555555,-0.03555555555555556,0.6255555555555555,-0.011832850399588729,0.05066714960041127,-0.011832850399588729
1588960094.4623258,2.1532760436328955,-2.006723956367104,-9.479828130898687,-0.5955555555555555,-0.03555555555555556,0.6255555555555555,-0.08404945458880565,-0.1055989091776113,0.0
1588960094.4723258,2.15,-2.01,-9.439126743480898,-0.5895524223435078,-0.0407010983087393,0.6307010983087393,-0.07676053668890237,-0.13926053668890237,0.04823946331109764
1588960094.4823258,2.1586208796713757,-2.0013791203286244,-9.43,-0.5877777777777777,-0.042222222222222223,0.6322222222222222,-0.11638049794609759,-0.1788804979460976,0.0625
1588960094.4923258,2.15212972762814,-2.0,-9.500832451346739,-0.5877777777777777,-0.042222222222222223,0.6322222222222222,-0.07581079767587533,-0.039932393027625995,0.013310797675875327
1588960094.5023258,2.1577521384042915,-2.0,-9.504495723191416,-0.5877777777777777,-0.042222222222222223,0.6322222222222222,0.082852595080462,0.048450865026820666,0.048450865026820666
1588960094.5123258,2.147358391913089,-2.0,-9.468395979782722,-0.5877777777777777,-0.042222222222222223,0.6322222222222222,-0.07252512635798522,0.02299497472840295,0.18101507581479115
1588960094.5223258,2.1629570089717505,-2.015304672647834,-9.434695327352166,-0.5877777777777777,-0.042222222222222223,0.6432755969123244,-0.04401869392655838,-0.09565420404896109,0.10651869392655838
1588960094.5323257,2.1556524509300172,-2.02,-9.43,-0.5877777777777777,-0.042222222222222223,0.6466666666666666,-0.08967218168739081,-0.035327818312609185,0.017663909156304593
1588960094.5423257,2.157121529795135,-2.012878470204865,-9.529701417131887,-0.5877777777777777,-0.042222222222222223,0.6466666666666666,-0.035980877560815416,-0.04450956121959229,0.0
1588960094.5523257,2.16,-2.0022411866300924,-9.50792949304074,-0.5877777777777777,-0.042222222222222223,0.6466666666666666,-0.09698516712384435,0.03448516712384435,0.048492583561922174
1588960094.5623257,2.16,-1.9951346388329831,-9.480269277665966,-0.5877777777777777,-0.042222222222222223,0.6466666666666666,-0.09459149270614506,0.0016829854122901097,0.0625
1588960094.5723257,2.1573915152419687,-1.9926084847580314,-9.459566060967875,-0.5860387879390901,-0.045410370259816174,0.6411598655108225,-0.04619697026230365,-0.0951060594753927,0.0625
1588960094.5823257,2.15,-2.0040438126906985,-9.438087625381396,-0.5811111111111111,-0.054444444444444434,0.6255555555555555,0.02527382931686551,-0.08640468273253796,0.0625
1588960094.5923257,2.15,-2.0165408849061883,-9.476163539624753,-0.5811111111111111,-0.054444444444444434,0.6255555555555555,0.0625,0.0625,0.0625
1588960094.6023257,2.15,-2.0241741248878062,-9.524174124887805,-0.5811111111111111,-0.054444444444444434,0.6255555555555555,-0.01032343890242339,-0.08314687780484678,0.026088280548788305
1588960094.6123257,2.165434172546504,-2.009710551635664,-9.489131654906991,-0.5811111111111111,-0.054444444444444434,0.6255555555555555,-0.1268090522771007,-0.1231909477228993,0.09646357841565106
1588960094.6223257,2.1723376932223544,-2.003831153388823,-9.452337693222354,-0.5836652133703263,-0.04209961685823754,0.6255555555555555,-0.1635552913198573,0.009334126040428062,0.11566587395957194
1588960094.6323256,2.16,-2.01,-9.429956557561232,-0.5877777777777777,-0.022222222222222227,0.6255555555555555,-0.030842727136544082,0.09361424237884802,0.0
1588960094.6423256,2.1652595829049788,-2.01,-9.483114994859744,-0.5877777777777777,-0.022222222222222227,0.6255555555555555,0.0625,0.0953723931561169,0.0
1588960094.6523256,2.17,-1.9912669946159507,-9.496289654103885,-0.5877777777777777,-0.022222222222222227,0.6255555555555555,-0.015554189100205285,0.08597290544989736,-0.07805418910020528
1588960094.6623256,2.1579136447967615,-1.9920863552032384,-9.463956822398382,-0.5877777777777777,-0.022222222222222227,0.6255555555555555,-0.0625,0.0625,-0.08723013998988025
1588960094.6723256,2.156418600351299,-2.012837200702598,-9.440744198946103,-0.5956227337626986,-0.022222222222222227,0.6205633108378786,-0.022383747804381994,0.022383747804381994,-0.0625
1588960094.6823256,2.1670706340507895,-2.0129293659492107,-9.472423804304736,-0.6,-0.022222222222222227,0.6177777777777778,0.04419146281743348,0.0,-0.0625
1588960094.6923256,2.1551768326522374,-2.032234751021644,-9.534469502043288,-0.6,-0.022222222222222227,0.6177777777777778,0.0625,0.0,-0.0625
1588960094.7023256,2.1577969188364423,-2.016609243490673,-9.503218486981346,-0.6,-0.022222222222222227,0.6177777777777778,0.0625,0.048730742727764925,0.03496148545552985
1588960094.7123256,2.16,-2.01,-9.480008933844127,-0.6,-0.022222222222222227,0.6177777777777778,5.5836525794585035e-05,-0.031166245211308133,5.5836525794585035e-05
1588960094.7223256,2.16,-2.0064885888020214,-9.459465766406066,-0.5984393728008984,-0.03353676941570806,0.6177777777777778,-0.040553680012635235,-0.08110736002527047,-0.0625
1588960094.7323256,2.17357745429385,-2.0,-9.44,-0.5955555555555555,-0.054444444444444434,0.6177777777777778,0.04242954466828113,0.1272886340048434,-0.02007045533171887
1588960094.7423255,2.166318006960982,-1.993159003480491,-9.501568968675581,-0.5955555555555555,-0.054444444444444434,0.6177777777777778,0.19076868474079503,0.14474377175306832,0.0
1588960094.7523255,2.1463552851637298,-2.0104670722544054,-9.509532927745594,-0.5955555555555555,-0.054444444444444434,0.6177777777777778,0.1220807984099668,0.08236026613665559,0.0
1588960094.7623255,2.14,-2.0085742024965327,-9.477148404993066,-0.5955555555555555,-0.054444444444444434,0.6177777777777778,0.02679438280166435,0.02679438280166435,0.0
1588960094.7723255,2.14,-2.0,-9.447232142857143,-0.5955555555555555,-0.044041005291005283,0.6177777777777778,0.0,0.07979910714285715,-0.02659970238095238
1588960094.7823255,2.135060650334681,-2.009878699330638,-9.434939349665319,-0.5955555555555555,-0.03,0.6177777777777778,0.03087093540824301,0.09488719377527098,-0.03162906459175699
1588960094.7923255,2.144296007892604,-2.010469328071597,-9.492418695606215,-0.5955555555555555,-0.03,0.6177777777777778,0.032716650223741234,0.059566699552517526,0.0
1588960094.8023255,2.1552812717030636,-2.0,-9.531125086812255,-0.5955555555555555,-0.03,0.6177777777777778,0.08847615556755922,0.125,-0.029492051855853078
1588960094.8123255,2.1550841205578046,-2.0050841205578047,-9.494747638326587,-0.5955555555555555,-0.03,0.6177777777777778,0.1239484930274404,0.1567757534862798,-0.030724246513720202
1588960094.8223255,2.1552772664147533,-2.0147227335852467,-9.461109065659013,-0.5850605920327846,-0.03262374088069273,0.6282727413005487,0.0625,0.21701708490779317,-0.059034169815586346
1588960094.8323255,2.143885558713252,-2.001656676139756,-9.458343323860245,-0.5733333333333334,-0.03555555555555556,0.64,0.024284741957824853,0.13535422587347457,-0.010354225873474565
1588960094.8423254,2.15979566658956,-2.0031971110597064,-9.502992777649267,-0.5733333333333334,-0.03555555555555556,0.64,-0.04124097206158275,0.0625,-0.019981944123165493
1588960094.8523254,2.17,-2.01,-9.52,-0.5733333333333334,-0.03555555555555556,0.64,-0.022293118515696778,-0.05812064445290968,-0.10270688148430322
1588960094.8623254,2.17,-2.0150848947851743,-9.489490631288955,-0.5733333333333334,-0.03555555555555556,0.64,-0.06356118481467732,-0.06143881518532268,-0.15678059240733866
1588960094.8723254,2.1593069622268932,-2.0146534811134464,-9.449306962226894,-0.5852144864145629,-0.03258526728524818,0.6358415964215697,-0.09158425695904199,-0.03341574304095802,-0.08725277087712593
1588960094.8823254,2.136042283729956,-2.003021141864978,-9.426042283729956,-0.5955555555555555,-0.03,0.6322222222222222,0.02473572668777449,-0.018882136656112755,0.0
1588960094.8923254,2.1483495500619556,-2.012233033374637,-9.493398200247821,-0.5955555555555555,-0.03,0.6322222222222222,0.0625,-0.03822822929574032,0.0
1588960094.9023254,2.16,-2.0141842688613143,-9.522552806583942,-0.5955555555555555,-0.03,0.6322222222222222,0.026151680383214006,0.010196639233571989,0.0
1588960094.9123254,2.16,-2.01,-9.484666971074626,-0.5955555555555555,-0.03,0.6322222222222222,0.0,0.09416628615671715,-0.03166628615671716
1588960094.9223254,2.16,-2.01,-9.452128482615704,-0.5955555555555555,-0.03218653260674905,0.635283367871671,-0.02459849182592678,0.05120452452221966,-0.08709849182592677
1588960094.9323254,2.164976561752607,-2.005023438247393,-9.459906247010428,-0.5955555555555555,-0.03555555555555556,0.64,-0.09360351095379317,-0.03139648904620683,-0.125
1588960094.9423254,2.17,-2.0,-9.507403587443946,-0.5955555555555555,-0.03555555555555556,0.64,-0.051597533632287,0.0,-0.07606502242152466
1588960094.9523253,2.169052959023004,-2.000473520488498,-9.548105918046009,-0.5955555555555555,-0.03555555555555556,0.64,0.06545950305311264,0.0,0.0
1588960094.9623253,2.1574604383883678,-2.0025395616116324,-9.495079123223265,-0.5955555555555555,-0.03555555555555556,0.64,0.055058390109052904,0.023313869963649026,-0.04662773992729805
1588960094.9723253,2.1634254046886334,-1.9932872976556832,-9.46013810703295,-0.5929987684900242,-0.037747087326010995,0.6326948940984819,-0.0625,0.08304561034801972,-0.125
1588960094.9823253,2.155849023743638,-2.0,-9.44,-0.5877777777777777,-0.042222222222222223,0.6177777777777778,-0.007665402403390295,0.0884436016022602,-0.125
1588960094.9923253,2.163675237124716,-2.004216508583523,-9.456866034334091,-0.5877777777777777,-0.042222222222222223,0.6177777777777778,0.09864682135298268,0.026353178647017323,-0.125
1588960095.0023253,2.1439721685913082,-2.023972168591308,-9.50013915704346,-0.5877777777777777,-0.042222222222222223,0.6177777777777778,0.0,0.125,-0.10017394630432407
1588960095.0123253,2.1524609266366315,-2.0250781467267367,-9.465078146726738,-0.5877777777777777,-0.042222222222222223,0.6177777777777778,0.01538079147894766,0.10961920852105234,-0.07788079147894766
1588960095.0223253,2.1631833984291173,-2.01,-9.440449804712648,-0.5877777777777777,-0.042222222222222223,0.6135332465389549,0.002811279454053829,0.10229248036396413,-0.14489624018198205
1588960095.0323253,2.1662689685506926,-2.013731031449307,-9.42,-0.5877777777777777,-0.042222222222222223,0.6044444444444445,-0.0084052672091489,0.14086210688365958,-0.14086210688365958
1588960095.0423253,2.1662701938610662,-2.0137298061389335,-9.501512520193861,-0.5877777777777777,-0.042222222222222223,0.6044444444444445,0.14831128836833601,0.02331128836833602,-0.0625
1588960095.0523252,2.1579196033528247,-2.0039598016764124,-9.52583920670565,-0.5877777777777777,-0.042222222222222223,0.6044444444444445,0.08724876047757743,0.0,0.013002479044845139
1588960095.0623252,2.1641672700232863,-2.004722423341095,-9.481665459953428,-0.5877777777777777,-0.042222222222222223,0.6044444444444445,0.032984854118153537,-0.029515145881846463,0.0625
1588960095.0723252,2.173661148977605,-2.006830574488802,-9.446830574488802,-0.5916515200692416,-0.042222222222222223,0.6111354538569729,0.0,-0.042691090555014605,0.0625
1588960095.0823252,2.152555311862711,-2.007444688137289,-9.447444688137288,-0.6,-0.042222222222222223,0.6255555555555555,0.02326465042902767,0.0,0.03923534957097233
1588960095.0923252,2.1486430703337103,-2.015678464833145,-9.503215351668551,-0.6,-0.042222222222222223,0.6255555555555555,-0.018528784378530602,0.027009594792843532,0.054019189585687064
1588960095.1023252,2.1568744565833744,-2.019376630249877,-9.556874456583374,-0.6,-0.042222222222222223,0.6255555555555555,-0.06639606093826786,0.023430707292178582,0.10546535364608929
1588960095.1123252,2.15,-2.0301686966357226,-9.517228988785742,-0.6,-0.042222222222222223,0.6255555555555555,0.0625,-0.021536235982178575,0.04201811799108929
1588960095.1223252,2.15,-2.0128122543001776,-9.459374181000593,-0.6,-0.042222222222222223,0.6255555555555555,0.0625,0.05078227374925859,0.005858863125370706
1588960095.1323252,2.1643062964582422,-2.0181020988194143,-9.418102098819414,-0.5733333333333334,-0.03555555555555556,0.6322222222222222,0.0625,-0.023723764757324003,0.0
1588960095.1423252,2.141693951165372,-2.0116939511653715,-9.432021365149833,-0.5733333333333334,-0.03555555555555556,0.6322222222222222,0.0625,-0.09323841564927858,-0.010587194783573808
1588960095.1523252,2.15,-2.02,-9.53004077039442,-0.5733333333333334,-0.03555555555555556,0.6322222222222222,0.04175160498837767,0.04175160498837767,-0.08324839501162233
1588960095.1623251,2.15,-2.0184052971288673,-9.503621188515469,-0.5733333333333334,-0.03555555555555556,0.6322222222222222,0.0,-0.009966892944580459,-0.10506621411083908
1588960095.1723251,2.152418812759026,-2.0124188127590257,-9.455487123445845,-0.5768271739852597,-0.03421177068943003,0.6287283815702959,0.015117579743912247,-0.07761757974391224,0.015117579743912247
1588960095.1823251,2.155727906880753,-2.0178639534403766,-9.420680232798118,-0.5877777777777777,-0.03,0.6177777777777778,0.04914970900235274,-0.11164970900235274,0.07585029099764726
1588960095.192325,2.145167618574621,-2.0151676185746212,-9.50134094859697,-0.5877777777777777,-0.03,0.6177777777777778,0.0,0.0020952321827663323,0.06040476781723367
1588960095.202325,2.1548870856435762,-2.010225828712848,-9.520451657425696,-0.5877777777777777,-0.03,0.6177777777777778,0.06108857054470171,0.0014114294552982909,0.030544285272350855
1588960095.212325,2.16,-2.0,-9.47980951440979,-0.5877777777777777,-0.03,0.6177777777777778,0.09976189301223845,-0.0625,0.0625
1588960095.222325,2.1564467312348667,-2.003553268765133,-9.435786924939467,-0.5854089319343556,-0.03,0.6177777777777778,0.040292070217917676,-0.08470792978208233,0.018084140435835352
1588960095.232325,2.1548904314041364,-2.01,-9.42467129421241,-0.5811111111111111,-0.03,0.6177777777777778,0.030565196275852264,-0.09443480372414774,-0.0625
1588960095.242325,2.16,-2.01,-9.486922978505628,-0.5811111111111111,-0.03,0.6177777777777778,0.02991459825997953,0.002670803480040937,0.03525620522006141
1588960095.252325,2.1692375576403244,-2.01,-9.506906105899189,-0.5811111111111111,-0.03,0.6177777777777778,0.028867367626013673,0.004765264747972654,0.06726526474797265
1588960095.262325,2.173606014563385,-2.0078686715211282,-9.47786867152113,-0.5811111111111111,-0.03,0.6177777777777778,0.022537591021157044,-0.049179197007052346,0.0
1588960095.272325,2.1555696347686486,-2.001856544922883,-9.471856544922883,-0.5811111111111111,-0.03,0.6177777777777778,-0.09018978269594632,-0.01160340576801789,0.0
1588960095.282325,2.169273465509049,-2.0096367327545246,-9.448546931018099,-0.5877777777777777,-0.03,0.6255555555555555,0.002270420284220984,-0.17841831886311607,0.0625
1588960095.292325,2.151156321541186,-2.0005781607705933,-9.412312643082373,-0.5877777777777777,-0.03,0.6255555555555555,0.05888649518379335,0.04804598073517341,0.0625
1588960095.302325,2.162493602919586,-2.007506397080414,-9.5525447795629,-0.5877777777777777,-0.03,0.6255555555555555,-0.04691498175259029,0.0625,-0.015585018247409706
1588960095.312325,2.1684512004832133,-1.9969024009664267,-9.49535360144964,-0.5877777777777777,-0.03,0.6255555555555555,-0.01935999395983289,0.033460009060250664,-0.05282000302008356
1588960095.322325,2.156066691750541,-1.9819666541247296,-9.458200075251623,-0.5877777777777777,-0.03240368837466947,0.6255555555555555,-0.10041682344088045,-0.10041682344088045,0.012291588279559777
1588960095.332325,2.148255887969446,-1.987248037343518,-9.412751962656483,-0.5877777777777777,-0.042222222222222223,0.6255555555555555,0.0,0.017199766603012943,0.07969976660301295
1588960095.342325,2.17,-1.9990040317221214,-9.477012095166364,-0.5877777777777777,-0.042222222222222223,0.6255555555555555,-0.02969379956581454,0.003112400868370918,0.06561240086837092
1588960095.352325,2.17,-2.0154449464566535,-9.530889892913306,-0.5877777777777777,-0.042222222222222223,0.6255555555555555,-0.03403091535408502,-0.00556183070817004,-0.02846908464591498
1588960095.362325,2.17,-2.01,-9.496501292420579,-0.5877777777777777,-0.042222222222222223,0.6255555555555555,0.0,0.0625,-0.02053802217960477
