time,acc_x,acc_y,acc_z,mag_x,mag_y,mag_z,gyr_x,gyr_y,gyr_z
1588960115.4907,-0.16,-3.05,-10.24,-0.5244444444444439,0.258888888888889,0.68,-18.8125,-23.125,-10.6875
1588960115.5007,-0.035583900331856363,-3.026671981312223,-10.411072137043698,-0.5244444444444439,0.258888888888889,0.68,-20.805101596247614,-19.96599746936354,-9.861299338141233
1588960115.5107,0.2,-3.09,-10.11,-0.497777777777778,0.25222222222222196,0.6855555555555559,-24.75,-17.0625,-7.0625
1588960115.5207,0.25750808889831855,-3.1417572800084868,-10.13875404444916,-0.497777777777778,0.25222222222222196,0.6855555555555559,-25.361023444544635,-15.301314777488994,-4.510578555137114
1588960115.5307,0.29070665423777425,-3.3658669152445144,-10.04847985085329,-0.497777777777778,0.25222222222222196,0.6855555555555559,-24.650831779721784,-9.52757735192887,-0.4759137924853003
1588960115.5407,0.26405650988706675,-3.423239150188222,-9.754621608757734,-0.497777777777778,0.25222222222222196,0.6855555555555559,-23.42747230755917,-6.593150988706677,1.1468213188524945
1588960115.5507,0.11600693884137486,-3.537994795868969,-9.551607632725513,-0.497777777777778,0.25222222222222196,0.6855555555555559,-21.90006505163789,-4.027604082620623,3.4898980857673068
1588960115.5607,0.17047727372151011,-3.5554494947285535,-9.410210857867797,-0.493004068419441,0.24472067894483562,0.694421015792467,-21.259919506540093,-1.691453585021217,8.148516448663546
1588960115.5707,0.20329630469281343,-3.356481523464067,-9.589398095669916,-0.49,0.24,0.7,-24.80052000680118,1.7160295284515983,14.1181704828837
1588960115.5807,0.21849739486416078,-2.785078154075177,-10.118678358764422,-0.49,0.24,0.7,-31.425675125604762,3.6716307685150724,14.4375
1588960115.5907,0.47963658695180983,-2.694724369626472,-10.175457336897622,-0.49,0.24,0.7,-39.203360938516006,6.034069973267828,13.069352376995882
1588960115.6007,0.4644848638104183,-2.891696770464562,-9.986060797630229,-0.49,0.24,0.7,-42.470451240878546,7.454544017773282,10.749244770970305
1588960115.6107,0.3403677501792003,-3.2812893071960607,-9.902392557733663,-0.4838650128297022,0.2328425149679861,0.7132924722023106,-43.955139542493846,7.3573604575061555,5.691321641163087
1588960115.6207,-0.05664369289950305,-3.633518192017952,-9.142493989421382,-0.4833333333333329,0.23222222222222197,0.714444444444444,-40.30124018272159,6.671381631671743,3.586412085270075
1588960115.6306999,-0.37017212018002676,-3.8824057292300207,-8.844467218099988,-0.4833333333333329,0.23222222222222197,0.714444444444444,-29.52038985524875,8.530071615375258,3.4832479321250456
1588960115.6406999,-0.4305230308326052,-4.235240710689468,-8.814738484583698,-0.4833333333333329,0.23222222222222197,0.714444444444444,-18.800009362127078,10.466985499105396,4.763075770815129
1588960115.6506999,-0.30422744304437876,-4.316292706834674,-8.576471202036332,-0.4833333333333329,0.23222222222222197,0.714444444444444,-10.731291797758137,11.423476506300295,5.678862784778106
1588960115.6606998,-0.18509514139590855,-4.074947352587245,-8.826342132972323,-0.48060841188661574,0.2158726935419173,0.7133544758657572,-0.9028843261131163,11.017839011732852,5.943446337244284
1588960115.6706998,-0.7020871554947188,-2.725218910249862,-11.825023188346579,-0.47777777777777797,0.198888888888889,0.7122222222222221,5.061437626412242,8.177185271824627,2.978308170061495
1588960115.6806998,-0.12903411102805218,-1.9736625093441398,-9.544758232678916,-0.47777777777777797,0.198888888888889,0.7122222222222221,-19.950456387457216,11.756681059920526,0.9573046582995632
1588960115.6906998,0.003642254554346497,-2.8700687125565474,-9.71569800709133,-0.47777777777777797,0.198888888888889,0.7122222222222221,-44.16685872356034,4.053369910747035,-1.9598590903533437
1588960115.7006998,0.11355007923064313,-3.1741970384132014,-9.520318561827223,-0.47777777777777797,0.198888888888889,0.7122222222222221,-42.76003701983498,-5.363033440795585,-8.175492459428447
1588960115.7106998,0.144816660179058,-3.3509778123783573,-9.435305566368237,-0.49127407984083715,0.2061993858397127,0.7161586436572812,-34.95142078629817,-10.4558339820942,-14.452466913195796
1588960115.7206998,-0.12013377808988762,-3.284573384831461,-9.372744030898877,-0.5044444444444439,0.21333333333333301,0.72,-24.13720154494382,-11.064940308988763,-21.13238895716292
1588960115.7306998,-0.1403013516507866,-3.2798116552182583,-9.31,-0.5044444444444439,0.21333333333333301,0.72,-20.584118103257257,-7.942208619543541,-21.669648792377576
1588960115.7406998,-0.41028249982365805,-3.4530722296677716,-9.414138040488114,-0.5044444444444439,0.21333333333333301,0.72,-20.670846705932142,-1.1847512696621285,-17.443178211187135
1588960115.7506998,-0.6004882548272046,-3.57365883655147,-9.370274259008731,-0.5044444444444439,0.21333333333333301,0.72,-20.42111210183249,0.9009193211167139,-15.651672610994957
1588960115.7606997,-0.6061085615947225,-3.072359099383336,-9.368254696687222,-0.4851755979412651,0.18392298867058643,0.7321697977914811,-17.63134142406425,0.769311092786462,-11.862474006883694
1588960115.7706997,-0.6775279135024822,-2.6711243892388294,-9.432022330801985,-0.4833333333333329,0.181111111111111,0.733333333333333,-13.789334000510195,1.7535088106591314,-10.593401081218971
1588960115.7806997,-0.8204429772586197,-2.5011754415665033,-9.561839907454432,-0.4833333333333329,0.181111111111111,0.733333333333333,-9.308772078325152,1.2559622058574573,-11.818037215732746
1588960115.7906997,-0.7615712275697242,-2.5113896652082572,-9.501571227569725,-0.4833333333333329,0.181111111111111,0.733333333333333,-7.10121330686352,-1.637831756066534,-12.0625
1588960115.8006997,-0.6725671945989554,-2.6291223302619846,-9.475743280540105,-0.4833333333333329,0.181111111111111,0.733333333333333,-5.863171945989555,-4.042238121523502,-10.66257536834954
1588960115.8106997,-0.49885183706070285,-2.71874321086262,-9.296392571884983,-0.4891621405750798,0.16265322151224706,0.733333333333333,-4.071373302715655,-4.890709864217253,-7.603132488019169
1588960115.8206997,-0.6086827919834139,-2.7092764340013824,-9.22353121400599,-0.49,0.16,0.733333333333333,-3.539888562543193,-4.830318475005759,-6.575254837595024
1588960115.8306997,-0.5448863175737922,-2.8349681247005933,-9.259080959575487,-0.49,0.16,0.733333333333333,-2.6786283487489406,-3.8763081770276746,-4.149795482182998
1588960115.8406997,-0.291382338230118,-2.9325809080972935,-9.332580908097293,-0.49,0.16,0.733333333333333,-1.9697613512161687,-1.7595137641021843,-2.0224731850095403
1588960115.8506997,-0.3583095395398271,-2.9096619079079655,-9.362802401401776,-0.49,0.16,0.733333333333333,-1.6228869244247839,0.2808038663717577,-0.7303719156636889
1588960115.8606997,-0.32608499425335685,-2.89650379839094,-9.416573599080538,-0.4926106890676734,0.1644754669731542,0.7407924449552571,-1.5616274913800354,2.86536386062288,0.08653253160653712
1588960115.8706996,-0.1791145964735234,-2.855352087012587,-9.393058335435764,-0.4971831014430461,0.17231388818807847,0.753856480313465,-1.341171894710285,5.694544017884675,0.8948697193956212
1588960115.8806996,-0.16,-2.763242115729633,-9.484644964658582,-0.497777777777778,0.17333333333333303,0.755555555555556,-0.9674402330155848,7.344150563084971,1.09858850485269
1588960115.8906996,-0.19897167502604735,-2.732205664994791,-9.416467979937487,-0.497777777777778,0.17333333333333303,0.755555555555556,-0.4852832497395266,7.200354062174409,1.2711437813476776
1588960115.9006996,-0.16819451516694553,-2.753888848476031,-9.354166727285953,-0.497777777777778,0.17333333333333303,0.755555555555556,-0.26302102276860406,6.689236742562014,1.2378473485124026
1588960115.9106996,-0.14,-2.8080000767872226,-9.276799892497888,-0.497777777777778,0.1640444256742343,0.7335999556340496,0.3825011518083391,7.055001247792367,1.1875
1588960115.9206996,-0.1741411387713131,-2.8285352846928284,-9.242929430614344,-0.497777777777778,0.16111111111111098,0.726666666666667,0.6158455293301768,7.7301097639715906,0.8674268240189397
1588960115.9306996,-0.13994497998255462,-2.813977991993022,-9.384198072062803,-0.497777777777778,0.16111111111111098,0.726666666666667,1.0255502001744536,8.613600400348908,1.0628438751090337
1588960115.9406996,-0.153829552009229,-2.7782272639876946,-9.388227263987694,-0.497777777777778,0.16111111111111098,0.726666666666667,1.0257101999615459,9.80539800038454,0.9760652999423187
1588960115.9506996,-0.1163137922009945,-2.809317587019105,-9.528533106516619,-0.497777777777778,0.16111111111111098,0.726666666666667,0.48122628238680976,10.635881477361947,0.5006379220099451
1588960115.9606996,-0.06142894530227688,-2.8587139492279507,-9.715141585972258,-0.497777777777778,0.16111111111111098,0.726666666666667,-0.1705312745354619,11.356245092907615,-0.04821054697723115
1588960115.9706995,0.3154501237677509,-2.4836374690580625,-9.627760455117905,-0.5044444444444439,0.17555555555555602,0.72,-4.961713423372563,11.606931536891475,-3.2793975550440786
1588960115.9806995,0.405188220531723,-2.431788487177476,-9.677580189789035,-0.5044444444444439,0.17555555555555602,0.72,-11.339113108775782,9.957018077013567,-7.82966532036703
1588960115.9906995,0.14953475093863003,-2.521975881101095,-9.3260425281589,-0.5044444444444439,0.17555555555555602,0.72,-17.313182345104416,6.959326392373306,-12.765221378272228
1588960116.0006995,0.09697907807450247,-2.5833662187446844,-9.467521687361796,-0.5044444444444439,0.17555555555555602,0.72,-23.03067060724613,4.005241112434088,-17.181333985371662
1588960116.0106995,-0.241292481438879,-2.673725399979086,-9.212200355536964,-0.5091398329208638,0.16957960658556734,0.7191462930042875,-28.77255699048416,2.0190630555265083,-20.33578374986929
1588960116.0206995,-0.49079306160325503,-2.7061895924048827,-9.368920693839675,-0.516666666666667,0.16,0.717777777777778,-31.899709561710328,2.556648850738811,-20.427176279534585
1588960116.0306995,-0.27740224439871086,-2.5656494389003224,-9.48259775560129,-0.516666666666667,0.16,0.717777777777778,-32.769073020618954,3.9955393546382947,-16.55680891546616
1588960116.0406995,-0.13798380062305296,-2.3519082035306336,-9.32090010384216,-0.516666666666667,0.16,0.717777777777778,-28.32971443406023,6.925742471443407,-10.192281931464175
1588960116.0506995,-0.17431185486393494,-2.29224255378306,-9.511732527021861,-0.516666666666667,0.16,0.717777777777778,-23.947123822680986,10.314726479685817,-5.771474125047789
1588960116.0606995,-0.050018018018018,-2.1846306306306307,-9.771531531531533,-0.5255545545545547,0.14359159159159138,0.717777777777778,-22.302871621621623,20.76824324324324,-0.5148085585585584
1588960116.0706995,0.020161001432892855,-2.5058103805126573,-9.213220028657858,-0.5311111111111111,0.133333333333333,0.717777777777778,-22.375,26.25,1.625
1588960116.0806994,0.4793313380042174,-2.256422692333855,-9.326202979389157,-0.5311111111111111,0.133333333333333,0.717777777777778,-20.254880620365963,32.840805897557985,4.159925345214612
1588960116.0906994,0.3568821884285964,-2.2554418807900714,-9.611693934626814,-0.5311111111111111,0.133333333333333,0.717777777777778,-12.508541994406572,32.981638918021325,7.156198654081455
1588960116.1006994,0.21496085821977384,-2.4349608582197737,-9.625039141780226,-0.5311111111111111,0.133333333333333,0.717777777777778,-7.8125,31.5,8.5625
1588960116.1106994,0.32682179105099723,-2.449746160098368,-9.60021153325136,-0.5329707975278283,0.13147364691661617,0.7155461540777174,-7.938028833128399,31.3117067503074,9.441201831898798
1588960116.1206994,0.3873685537233484,-2.3573681335994117,-9.67052662535448,-0.5366666666666671,0.12777777777777802,0.7111111111111109,-8.213815513076357,30.792764678080033,11.569074939607184
1588960116.1306994,0.3478632232001154,-2.540204876641177,-9.531692396479585,-0.5366666666666671,0.12777777777777802,0.7111111111111109,-8.007800100995528,29.640600201991056,12.93119679699899
1588960116.1406994,0.6284094823219533,-2.606111842771756,-9.907010434606423,-0.5366666666666671,0.12777777777777802,0.7111111111111109,-2.257730979637322,15.356403859791309,6.837535457400467
1588960116.1506994,0.5857686263885126,-2.328589542129504,-9.868285559468978,-0.5366666666666671,0.12777777777777802,0.7111111111111109,0.5015307504741262,4.416069493362232,1.5184231915470061
1588960116.1606994,0.44,-2.2937902844224802,-9.64056437621576,-0.5453494383400807,0.1180735035545511,0.7008960856129774,0.14667505651648172,0.7651214447189948,0.057459518427001734
1588960116.1706994,0.45446601285086236,-2.281067974298275,-9.591504903618533,-0.555555555555556,0.10666666666666699,0.6888888888888891,-0.15564338856949617,0.29126225904633074,-0.01061887047683463
1588960116.1806993,0.48206781599803905,-2.2810339079990194,-9.638271263992158,-0.555555555555556,0.10666666666666699,0.6888888888888891,-0.06896192499387205,-0.19179058746629624,0.006461924993872048
1588960116.1906993,0.45254774986917845,-2.2994904500261644,-9.657802524856097,-0.555555555555556,0.10666666666666699,0.6888888888888891,0.023288281658817356,-0.35171171834118264,0.032842343668236525
1588960116.2006993,0.40405078351257845,-2.301898432974843,-9.57569529892453,-0.555555555555556,0.10666666666666699,0.6888888888888891,0.06091301523192286,0.14162616039700054,0.02531739695361543
1588960116.2106993,0.414002980222162,-2.2913343267407207,-9.535997019777838,-0.5546660043950755,0.10948357867485507,0.6927436105843043,-0.0999813736114874,0.5165859523164454,0.045820915740991605
1588960116.2206993,0.8164892417551441,-2.1924316452128156,-9.533050361740111,-0.548888888888889,0.12777777777777802,0.717777777777778,0.18255396739641078,-1.0038669782955933,-0.4706834891477967
1588960116.2306993,1.0345070517125587,-2.162579583613163,-9.61224580255205,-0.548888888888889,0.12777777777777802,0.717777777777778,0.5400226662189389,-2.7745634654130287,-3.072267461383479
1588960116.2406993,0.18465608087165908,-2.3764404072193215,-9.550261068593091,-0.548888888888889,0.12777777777777802,0.717777777777778,0.8952894404310612,-3.7693104332069716,-5.228078880862123
1588960116.2506993,-0.28210615681211204,-2.52358672774545,-9.559192415854543,-0.548888888888889,0.12777777777777802,0.717777777777778,0.5375592511363837,-1.2261967403031533,-3.4952488547728118
1588960116.2606993,-0.19894379246448424,-2.4958931439159975,-9.628210623841877,-0.5528421522201633,0.12382451444650341,0.7138245144465034,-0.6730350525015442,6.4086087090796795,-0.046035361334156866
1588960116.2706993,0.6073352162271209,-2.179121153211312,-9.654890144151414,-0.563333333333333,0.11333333333333301,0.703333333333333,-1.906760077761068,18.41792218391226,3.6138378938488063
1588960116.2806993,0.6349362902666328,-2.2802548389334687,-9.625573387600305,-0.563333333333333,0.11333333333333301,0.703333333333333,0.3742036283329094,12.493246016696343,2.2595564600050877
1588960116.2906992,0.5053727333781062,-2.2824378777703154,-9.450982202820684,-0.563333333333333,0.11333333333333301,0.703333333333333,0.4375,6.239422431161854,1.149408159838818
1588960116.3006992,0.4196060566456937,-2.2950984858385763,-9.452931797389892,-0.563333333333333,0.11333333333333301,0.703333333333333,0.590672317544482,7.263257080711712,1.273248025615653
1588960116.3106992,0.4969864613910022,-2.294383573953154,-9.555616426046846,-0.554566185427025,0.11966516237677795,0.7067427797413418,0.8595893488288504,11.894697627748158,2.0436653836937637
1588960116.3206992,0.6113068037250012,-2.288198056078571,-9.609009719607146,-0.5433333333333329,0.12777777777777802,0.7111111111111109,1.073762149508931,14.304332476718741,2.5
1588960116.3306992,0.6525186166346294,-2.288345744423086,-9.704247338750061,-0.5433333333333329,0.12777777777777802,0.7111111111111109,1.125,12.247207504805596,2.2131150354564104
1588960116.3406992,0.67,-2.3022423871929085,-9.757576128070912,-0.5433333333333329,0.12777777777777802,0.7111111111111109,0.9988657203988843,8.433731803767241,1.5742463607534483
1588960116.3506992,0.6214811562248921,-2.31,-9.623394682262374,-0.5433333333333329,0.12777777777777802,0.7111111111111109,0.3350679198041817,2.518313589566322,0.4467572264055756
1588960116.3606992,0.5428913534896864,-2.31,-9.522228383724215,-0.5453079573639757,0.1234336049103642,0.7032126149885404,-0.0444290406894603,0.05271616275784119,0.02221452034473015
1588960116.3706992,0.53,-2.318469402344867,-9.502704103517301,-0.548888888888889,0.11555555555555601,0.6888888888888891,-0.125,1.2484071168144124,0.1419006469831284
1588960116.3806992,0.53,-2.317118012835434,-9.548984471120274,-0.548888888888889,0.11555555555555601,0.6888888888888891,-0.125,3.443905247231736,0.47140915439098197
1588960116.3906991,0.5384454892741699,-2.2984454892741697,-9.571995298266236,-0.548888888888889,0.11555555555555601,0.6888888888888891,0.1917058477813694,7.25159785483397,1.2805980017631502
1588960116.4006991,0.5878223234624146,-2.31,-9.552419134396356,-0.548888888888889,0.11555555555555601,0.6888888888888891,0.7263097949886105,10.237898633257403,1.9019646924829157
1588960116.4106991,0.6975395095367847,-2.3062302452316077,-9.633717075386013,-0.549726612170754,0.1172310021192859,0.6888888888888891,0.8743415077202543,11.159329586739329,2.1318659173478656
1588960116.4206991,0.7356348773841962,-2.287182561307902,-9.60197093551317,-0.5539594308204666,0.12569663941871045,0.6888888888888891,0.2394187102633969,6.595821980018165,1.2191643960036331
1588960116.430699,0.7207004440855874,-2.30343964473153,-9.666178845377473,-0.555555555555556,0.128888888888889,0.6888888888888891,-0.18312222446507873,2.1281666330238194,0.32563332660476385
1588960116.440699,0.6305460005460005,-2.32,-9.63986076986077,-0.555555555555556,0.128888888888889,0.6888888888888891,-0.07876057876057876,0.5548048048048049,0.07106538356538356
1588960116.450699,0.5594288809019743,-2.314714440450987,-9.559428880901974,-0.555555555555556,0.1253651825228805,0.6909443842690608,0.2901737359066516,3.402158159371769,0.616951713357294
1588960116.460699,0.5387784944118951,-2.3043892472059473,-9.538778494411895,-0.555555555555556,0.11848172035952094,0.6949597371976873,0.6128360248141401,8.338891179656343,1.4558736645167643
1588960116.470699,0.6947450878763606,-2.3227234603967393,-9.524319134900814,-0.555555555555556,0.11555555555555601,0.696666666666667,0.9630324412194318,13.490964990811856,2.4515973236582953
1588960116.480699,0.8731812038673459,-2.2786370724607545,-9.659089302422288,-0.555555555555556,0.11555555555555601,0.696666666666667,0.8181853623037738,15.30114227050629,2.732956908202516
1588960116.490699,0.9623366250934413,-2.162242593539757,-9.782896093165991,-0.555555555555556,0.11555555555555601,0.696666666666667,-0.7044546956761224,12.191554864854231,1.6471849549514106
1588960116.500699,0.8893372467335732,-2.171302783563719,-9.526114372277977,-0.555555555555556,0.11555555555555601,0.696666666666667,-3.282285551978792,3.2574323044877866,-1.1997846051884113
1588960116.510699,0.7315927419354838,-2.293666474654378,-9.417888824884793,-0.5593538786482338,0.11906169994879709,0.692868343573989,-2.415286578341014,-2.6867979550691246,-2.3752340149769586
1588960116.520699,0.6988529274938526,-2.3505735362530737,-9.502843091646175,-0.57,0.128888888888889,0.6822222222222221,0.350061474047983,-4.801899880374825,-1.3428922708845616
1588960116.530699,0.7408282627592202,-2.32917173724078,-9.638895649654375,-0.57,0.128888888888889,0.6822222222222221,-0.23964671550974792,-3.677146715509748,-0.9930978103398319
1588960116.540699,0.7743771499062938,-2.2956228500937064,-9.591245700187413,-0.57,0.128888888888889,0.6822222222222221,-0.0665003084003511,-4.187929981258748,-0.7773571869143359
1588960116.550699,0.7633497635869069,-2.293330047282619,-9.573339905434763,-0.57,0.128888888888889,0.6822222222222221,-0.2708744089672673,-6.436390957883783,-1.0414407506800298
1588960116.560699,0.7212134367165011,-2.2962343300213575,-9.556234330021358,-0.5691631844491905,0.128888888888889,0.6830590377730316,-0.19534514578883833,-8.915009227876311,-1.5549160205218684
1588960116.570699,0.6376397608370703,-2.2684028400597906,-9.514028400597907,-0.563333333333333,0.128888888888889,0.6888888888888891,-0.24001775037369208,-10.240461509715994,-1.8975710014947682
1588960116.580699,0.5662502079916328,-2.2738750623974897,-9.517875395184102,-0.563333333333333,0.128888888888889,0.6888888888888891,-0.1007808600156885,-4.683574900758278,-1.282810680073213
1588960116.590699,0.6458441587379398,-2.311536798948283,-9.628614719579312,-0.563333333333333,0.128888888888889,0.6888888888888891,0.08076299605606185,2.475784888255086,-0.5971320105171684
1588960116.600699,0.7021020702936929,-2.289480982185845,-9.60526817525277,-0.563333333333333,0.128888888888889,0.6888888888888891,0.029628069330765533,5.302660086663457,-0.37170197400096294
1588960116.610699,0.7421992458338401,-2.2138032680533595,-9.52479949722256,-0.561310915586551,0.128888888888889,0.6888888888888891,-0.3125,4.468710720512509,-0.7275219965129951
1588960116.620699,0.6939442660449566,-2.341266880746052,-9.530844587164035,-0.555555555555556,0.128888888888889,0.6888888888888891,-0.2799303325561958,1.9771436348040294,-1.407569667443804
1588960116.630699,0.6570553692621176,-2.363527684631059,-9.579125419160237,-0.555555555555556,0.128888888888889,0.6888888888888891,-0.2095480289441173,0.7297740144720587,-1.194788173664704
1588960116.640699,0.6301373401575561,-2.350068670078778,-9.6396909846455,-0.555555555555556,0.128888888888889,0.6888888888888891,-0.12542918799236286,0.6877145939961814,-0.6900751279541771
1588960116.650699,0.7077374254049447,-2.2622625745950553,-9.628266410912191,-0.555555555555556,0.128888888888889,0.6888888888888891,-0.26916027280477406,3.4908780903665813,0.032504795396419435
1588960116.660699,0.8030895140664962,-2.1669104859335038,-9.622306905370843,-0.555555555555556,0.128888888888889,0.6888888888888891,-0.12017263427109973,4.533791560102301,0.1442455242966752
1588960116.670699,1.0383200470225193,-1.9600113882664119,-9.516118070607252,-0.5691966169909669,0.1162971398715865,0.6762971398715866,-0.3576191175930348,4.701404705925572,-0.5798097057418904
1588960116.6806989,0.8329423344601312,-2.167057665539869,-9.51,-0.57,0.11555555555555601,0.675555555555556,-0.3247551700139193,3.381134420361901,-2.634793199443229
1588960116.6906989,0.7286139436356461,-2.4053581441714607,-9.612009304064298,-0.57,0.11555555555555601,0.675555555555556,0.0041860501339536045,-0.19226755415256172,-3.987441849598139
1588960116.7006989,0.5805316608170131,-2.4750439243214055,-9.638141471620528,-0.57,0.11555555555555601,0.675555555555556,0.05862806587609811,-1.8799700421590413,-3.824115802371706
1588960116.7106988,0.6152103469019451,-2.4421844796470826,-9.508697413274513,-0.5707236592919368,0.11454243254684444,0.6772923378562044,0.046217665931421695,-0.9540354922799278,-1.774676659314217
1588960116.7206988,0.6488522157609786,-2.3917216763585323,-9.500286946059756,-0.5753961410779141,0.10800095804647665,0.6885062941425486,-0.05891317425305795,0.14983832965710842,-0.7233682574694205
1588960116.7306988,0.7753142181799496,-2.3339139818097734,-9.563285545449874,-0.575555555555556,0.10777777777777803,0.6888888888888891,0.029286136375314735,0.9882168182518885,-0.27928613637531474
1588960116.7406988,0.7896824418066903,-2.398570988130106,-9.599206104516725,-0.575555555555556,0.10777777777777803,0.6888888888888891,-0.06051526129181439,0.44940843224911364,-0.1894847387081856
1588960116.7506988,0.7455075957669332,-2.3151691985889777,-9.625169198588978,-0.575555555555556,0.10777777777777803,0.6888888888888891,-0.20259625440944462,-2.9356763955116727,-0.6400962544094446
1588960116.7606988,0.7008976654317267,-2.3002992218105756,-9.610299221810575,-0.575555555555556,0.10777777777777803,0.6888888888888891,-0.24906493184195133,-4.469142750784394,-0.6865649318419513
1588960116.7706988,0.6252818460490464,-2.3223590769754767,-9.562359076975477,-0.57,0.11555555555555601,0.6822222222222221,-0.07724423109673025,0.22625383174386915,-0.2134653865803815
1588960116.7806988,0.6706242157377199,-2.30705368346604,-9.57651684880564,-0.57,0.11555555555555601,0.6822222222222221,-0.018414478337249893,4.766697656909493,0.4709737400469987
1588960116.7906988,0.7353730629805202,-2.3,-9.62682308887384,-0.57,0.11555555555555601,0.6822222222222221,-0.1036778472692507,7.760793032705254,1.0274518981795004
1588960116.8006988,0.7913219041543736,-2.3004406347181243,-9.578678095845627,-0.57,0.11555555555555601,0.6822222222222221,-0.25,8.621404792281318,1.125
1588960116.8106987,0.8113887249820588,-2.3071295749940197,-9.558611275017942,-0.57,0.11555555555555601,0.6822222222222221,-0.25,7.618063750897058,1.125
1588960116.8206987,0.8010973395436962,-2.281646009315544,-9.531097339543695,-0.5500471917405683,0.12815732919309153,0.6885231090409903,-0.07278755822215205,4.647455001184179,0.6524334885924055
1588960116.8306987,0.8140202371541502,-2.3070101185770753,-9.562888695652173,-0.548888888888889,0.128888888888889,0.6888888888888891,-0.1314397233201581,0.6784150197628458,0.11919268774703556
1588960116.8406987,0.8007576284584981,-2.3003788142292487,-9.63583304347826,-0.548888888888889,0.128888888888889,0.6888888888888891,-0.00710276679841898,-1.5596501976284585,-0.17092687747035573
1588960116.8506987,0.7446762460529998,-2.292096606579,-9.608386426315999,-0.548888888888889,0.128888888888889,0.6888888888888891,-0.04939620888125025,-4.157310444062512,-0.6814620888125025
1588960116.8606987,0.7701729828155229,-2.248702628883578,-9.569654034368954,-0.5490714818608299,0.12883122795038135,0.6888888888888891,-0.0010811425970183226,-4.484323432343234,-0.7494594287014908
1588960116.8706987,0.7860839877091158,-2.129370092181632,-9.537832024581768,-0.5658664314707332,0.1235275596525168,0.6888888888888891,-0.10052492318197338,-3.0423886138613865,-0.6997375384090133
1588960116.8806987,0.7762869173635886,-2.2715129539739163,-9.56159132112989,-0.57,0.12222222222222198,0.6888888888888891,0.0625,-1.9185880753260425,-1.3357067664775717
1588960116.8906987,0.7190514065150009,-2.140688929177145,-9.586120825779286,-0.57,0.12222222222222198,0.6888888888888891,0.0625,-3.5538883852856893,-1.6934287092812446
1588960116.9006987,0.648313715772519,-2.3367283218577977,-9.58,-0.57,0.12222222222222198,0.6888888888888891,-0.1875,-1.144607235782431,-2.093802547037896
1588960116.9106987,0.5963461776731508,-2.5000548701700973,-9.58,-0.57,0.12222222222222198,0.6888888888888891,-0.1875,2.1033638954280756,-2.2330013098040604
1588960116.9206986,0.6929503492338513,-2.4964491851210133,-9.574899922392477,-0.563333333333333,0.11555555555555601,0.696666666666667,-0.04656225747649214,5.030624514952985,-1.1628054668182721
1588960116.9306986,0.7613747243660419,-2.339083517089305,-9.562291207276736,-0.563333333333333,0.11555555555555601,0.696666666666667,-0.0028640090959206176,4.917451936328556,0.19609202728776184
1588960116.9406986,0.8020075498355371,-2.3,-9.636010066447383,-0.563333333333333,0.11555555555555601,0.696666666666667,-0.10625786441201793,3.61268874588843,0.4687893220600896
1588960116.9506986,0.76,-2.3,-9.575917617945239,-0.563333333333333,0.11555555555555601,0.696666666666667,-0.04549007477182619,2.485955336473218,0.2414950373859131
1588960116.9606986,0.76,-2.3,-9.559176578590245,-0.563333333333333,0.11555555555555601,0.696666666666667,0.024264255873978874,2.172060848567095,0.20661787206301058
1588960116.9706986,0.7746704338739018,-2.3146704338739017,-9.564670433873902,-0.557628164604594,0.12044570018018942,0.6860713533132932,0.01665489414405697,1.954154894144057,0.27919021171188607
1588960116.9806986,0.7527135377113394,-2.2827135377113392,-9.61135676885567,-0.555555555555556,0.12222222222222198,0.6822222222222221,0.0625,1.4629394160438067,0.1875
1588960116.9906986,0.769477996722491,-2.2994779967224908,-9.619738998361244,-0.555555555555556,0.12222222222222198,0.6822222222222221,0.0625,1.6201062192733522,0.1875
1588960117.0006986,0.7845274492300826,-2.3,-9.556351632820055,-0.555555555555556,0.12222222222222198,0.6822222222222221,-0.022802294874655956,2.4379126218106077,0.551098852562672
1588960117.0106986,0.761126980584691,-2.3,-9.540751320389793,-0.555555555555556,0.12222222222222198,0.6822222222222221,-0.12030424756378785,2.9741733616008332,0.5023478762181061
1588960117.0206985,0.81,-2.2967928498923027,-9.50245005075388,-0.57,0.12222222222222198,0.6822222222222221,-0.16745531182689213,4.022410623653784,0.625
1588960117.0306985,0.81,-2.28780690614417,-9.569737844702468,-0.57,0.12222222222222198,0.6822222222222221,-0.0975863268021287,3.8826726536042573,0.6387068365989357
1588960117.0406985,0.81,-2.281465741412675,-9.626808327285922,-0.57,0.12222222222222198,0.6822222222222221,-0.018321767658442192,3.7241435353168844,0.6783391161707789
1588960117.0506985,0.833609424498416,-2.296390575501584,-9.572781151003168,-0.57,0.12222222222222198,0.6822222222222221,-0.054980365628299895,2.567185850052798,0.3674803656282999
1588960117.0606985,0.8543705451425554,-2.2756294548574445,-9.53125890971489,-0.57,0.12222222222222198,0.6822222222222221,-0.011728030953009505,1.875148495248152,0.3242280309530095
1588960117.0706985,0.8175482138497843,-2.299182737949928,-9.545913689749641,-0.575555555555556,0.128888888888889,0.661111111111111,0.1147842243741015,0.125,0.18239211218705076
1588960117.0806985,0.79,-2.296155075331,-9.532827068431999,-0.575555555555556,0.128888888888889,0.661111111111111,0.012823073606249683,0.21476151524374779,0.13782307360624968
1588960117.0906985,0.79,-2.3157394500572437,-9.640827525257597,-0.575555555555556,0.128888888888889,0.661111111111111,0.0625,0.6956421857111295,0.17418578142888705
1588960117.1006985,0.7891685481200518,-2.3,-9.568337096240104,-0.575555555555556,0.128888888888889,0.661111111111111,0.07029486137451459,1.1926965742496765,0.1275982871248382
1588960117.1106985,0.7765423402269785,-2.3,-9.543084680453957,-0.575555555555556,0.128888888888889,0.661111111111111,0.18866556037207624,1.2716103735813842,0.1670551867906921
1588960117.1206985,0.8423238649071796,-2.3,-9.49383806754641,-0.575555555555556,0.12286190014662371,0.6741695867193522,0.023987922165063735,1.9340332140460748,0.35700905837620217
1588960117.1306984,0.867878271823823,-2.3,-9.547582466290299,-0.575555555555556,0.12222222222222198,0.675555555555556,0.03978240330331731,1.5036975691690384,0.25945679559557694
1588960117.1406984,0.8508010266108335,-2.2981602053221666,-9.6444806159665,-0.575555555555556,0.12222222222222198,0.675555555555556,0.16450256652708362,0.010012832635418079,0.039502566527083616
1588960117.1506984,0.8146797412465346,-2.2911699353116335,-9.609470582195296,-0.575555555555556,0.12222222222222198,0.675555555555556,0.05518790430228976,-0.4780637129068693,-0.07712419139542048
1588960117.1606984,0.8491333812506417,-2.2997833453126604,-9.531949892186056,-0.575555555555556,0.12222222222222198,0.675555555555556,0.0013540917958722587,-0.31656227538761683,-0.18479181640825548
1588960117.1706984,0.8378572727456408,-2.3,-9.524285454508718,-0.59,0.128888888888889,0.675555555555556,-0.09821590932050997,-1.7901534055320956,-0.2053522720384701
1588960117.1806984,0.8279293049106992,-2.30103534754465,-9.546212085267902,-0.59,0.128888888888889,0.675555555555556,-0.006470922154065138,-3.3545609940014236,-0.5032354610770325
1588960117.1906984,0.7995001186159216,-2.315249940692039,-9.631499644152235,-0.59,0.128888888888889,0.675555555555556,-0.09531212932524487,-3.9320288406140915,-0.5476560646626224
1588960117.2006984,0.79,-2.290965830329914,-9.582575547546437,-0.59,0.128888888888889,0.675555555555556,0.17743926739672855,-3.459633611727197,-0.5625
1588960117.2106984,0.8029772658956794,-2.2964886329478396,-9.560534101156481,-0.59,0.128888888888889,0.675555555555556,0.10639208815200367,-3.0725143966840167,-0.5219460440760019
1588960117.2206984,0.7808462816017716,-2.3,-9.520846281601772,-0.5705641877345141,0.12402993582251734,0.6698867769781226,0.10805268499723196,-2.920552684997232,-0.40889463000553605
1588960117.2306983,0.77,-2.3237479406919275,-9.557495881383856,-0.563333333333333,0.12222222222222198,0.667777777777778,0.07552512355848434,-2.3438014827018123,-0.42447487644151566
1588960117.2406983,0.7515186226996984,-2.3,-9.634684820551056,-0.563333333333333,0.12222222222222198,0.667777777777778,-0.12025430406344258,-1.2413145609516385,-0.014237087809672281
1588960117.2506983,0.7657332158470871,-2.3,-9.584933744535196,-0.563333333333333,0.12222222222222198,0.667777777777778,-0.0758337004778527,-0.5750055071677908,-0.14749889856644188
1588960117.2606983,0.781152779360918,-2.3,-9.553270830958622,-0.563333333333333,0.12222222222222198,0.667777777777778,-0.02764756449713135,-0.1658853869827881,-0.08294269349139405
1588960117.2706983,0.7821821838598844,-2.315635632280231,-9.532182183859884,-0.5781003193757738,0.12222222222222198,0.6955744573870777,-0.14658405262716837,0.0,0.04886135087572279
1588960117.2806983,0.8179417475728155,-2.2989708737864074,-9.571320388349514,-0.582222222222222,0.12222222222222198,0.703333333333333,-0.16820388349514565,0.8510922330097087,0.07536407766990291
1588960117.2906983,0.8,-2.292458738795692,-9.658935675419386,-0.582222222222222,0.12222222222222198,0.703333333333333,0.007683558736537897,1.1875,0.1875
1588960117.3006983,0.7988042471042471,-2.31,-9.58,-0.582222222222222,0.12222222222222198,0.703333333333333,0.0699734555984556,1.1426592664092665,0.1837632722007722
1588960117.3106983,0.7826100386100386,-2.31,-9.58,-0.582222222222222,0.12222222222222198,0.703333333333333,0.1711872586872587,0.5353764478764479,0.13315637065637065
1588960117.3206983,0.7875028255816433,-2.28749152325507,-9.55749152325507,-0.577220338501127,0.111384807493182,0.6874940348831973,0.1875,-0.21899723839379004,0.031214680229458558
1588960117.3306983,0.873623312769609,-2.1677937288371445,-9.502753374460783,-0.575555555555556,0.10777777777777803,0.6822222222222221,0.0,-1.1737108052321537,-0.24063906025325849
1588960117.3406982,0.7869993216551614,-2.2707501695862096,-9.667374406448266,-0.575555555555556,0.10777777777777803,0.6822222222222221,-0.004688559913810303,-1.8640741590519134,-0.9750084793104824
1588960117.3506982,0.7200538685607119,-2.287486532859822,-9.608797134990622,-0.575555555555556,0.10777777777777803,0.6822222222222221,-0.1092908303738877,-3.0146991341127647,-1.8118266429911016
1588960117.3606982,0.7503030303030302,-2.3648484848484848,-9.559696969696969,-0.575555555555556,0.10777777777777803,0.6822222222222221,-0.05303030303030304,-1.928030303030303,-1.7575757575757576
1588960117.3706982,0.7428650376978645,-2.4014325188489325,-9.51762167923262,-0.5844954538875513,0.11259156918731425,0.6863483291446818,-0.038682252398057865,-0.8839532428058264,-1.4702709904077684
1588960117.3806982,0.7116049607404711,-2.406790078519058,-9.526790078519058,-0.59,0.11555555555555601,0.6888888888888891,0.04243799074411107,-1.5470659352087774,-1.0601860277676667
1588960117.3906982,0.7625145369451142,-2.3466472840731813,-9.64664728407318,-0.59,0.11555555555555601,0.6888888888888891,-0.125,-0.6351138136434549,-0.41130690682172744
1588960117.4006982,0.7823429300808397,-2.3202094265588804,-9.62020942655888,-0.59,0.11555555555555601,0.6888888888888891,-0.125,-0.2220222899825084,-0.2047611449912542
1588960117.4106982,0.79,-2.3021606479507946,-9.57864259180318,-0.59,0.11555555555555601,0.6888888888888891,-0.07600404969246696,-0.9934230558431276,-0.17399595030753304
1588960117.4206982,0.7711548692921576,-2.2988451307078424,-9.577690261415684,-0.596666666666667,0.134444444444444,0.6822222222222221,-0.07332689961397684,-2.423064133848031,-0.31610896653799225
1588960117.4306982,0.7879330759845591,-2.2820669240154405,-9.544133848030881,-0.596666666666667,0.134444444444444,0.6822222222222221,-0.23062258735524133,-2.2133365501930116,-0.3685408624517471
1588960117.4406981,0.79,-2.309857111928989,-9.58976185321498,-0.596666666666667,0.134444444444444,0.6822222222222221,-0.312202316518727,-2.063095366962546,-0.18839305044381902
1588960117.4506981,0.6985581049128645,-2.2917116209825728,-9.56256743147386,-0.596666666666667,0.134444444444444,0.6822222222222221,-0.14104644671162098,-1.9481976311410807,-0.3018023688589193
1588960117.4606981,0.740801184301329,-2.306933728100443,-9.500731951648449,-0.596666666666667,0.134444444444444,0.6822222222222221,-0.17791790031388438,0.17921601255537478,0.11084320251107499
1588960117.470698,0.7435259413116493,-2.302350627541099,-9.488227196393849,-0.57,0.10777777777777803,0.6888888888888891,-0.11030857786812798,2.147037133197808,0.367654288934064
1588960117.480698,0.7708632783922194,-2.31956836080389,-9.554316391961096,-0.57,0.10777777777777803,0.6888888888888891,0.0,2.3178954899513706,0.3151977449756853
1588960117.490698,0.7889133709170719,-2.310543314541464,-9.64456685458536,-0.57,0.10777777777777803,0.6888888888888891,0.0,2.4307085682316996,0.3716042841158497
1588960117.500698,0.8312192826518875,-2.3017561434696225,-9.61702457387849,-0.57,0.10777777777777803,0.6888888888888891,-0.1030482066297187,2.4375,0.375
1588960117.510698,0.8298695415836201,-2.29493477079181,-9.59986954158362,-0.57,0.10777777777777803,0.6888888888888891,-0.1566576825511868,2.247553904692879,0.375
1588960117.520698,0.8123465972480476,-2.293826701375976,-9.574693194496096,-0.5721259452088758,0.11330523532085457,0.6888888888888891,-0.1875,1.9189986984008924,0.375
1588960117.530698,0.815095172876429,-2.3,-9.55,-0.575555555555556,0.12222222222222198,0.6888888888888891,-0.23467241523884058,1.8290172457165217,0.4221724152388406
1588960117.540698,0.7797555544393658,-2.3,-9.63828888107556,-0.575555555555556,0.12222222222222198,0.6888888888888891,-0.06097221524603613,1.4237499372143252,0.2454166457381084
1588960117.550698,0.77273310228205,-2.3,-9.58913171597435,-0.575555555555556,0.12222222222222198,0.6888888888888891,-0.017081889262812462,1.0287370033653123,0.1137456677884374
1588960117.560698,0.7912083666767847,-2.2858610888821436,-9.555861088882144,-0.575555555555556,0.12222222222222198,0.6888888888888891,-0.13255229172990424,0.34479083308038305,0.0625
1588960117.570698,0.8,-2.2859317123054197,-9.53813657538916,-0.5795100304258355,0.13408564683306165,0.6888888888888891,-0.150426798091126,0.34743921145324397,0.025426798091126003
1588960117.580698,0.815863539445629,-2.29,-9.506204690831556,-0.582222222222222,0.14222222222222197,0.6888888888888891,-0.02585287846481875,0.7974413646055437,0.09914712153518125
1588960117.590698,0.8021149571292474,-2.298942521435376,-9.616252778659893,-0.582222222222222,0.14222222222222197,0.6888888888888891,0.11178151794220387,0.930890758971102,0.125
1588960117.600698,0.8183018684312962,-2.290849065784352,-9.575094394706111,-0.582222222222222,0.14222222222222197,0.6888888888888891,0.010613322304398612,0.47995328921759445,0.010613322304398612
1588960117.610698,0.7974561763498857,-2.2975146078833713,-9.547456176349884,-0.582222222222222,0.14222222222222197,0.6888888888888891,0.04696629927107151,-0.032162992710715044,-0.04696629927107151
1588960117.620698,0.7512901089440047,-2.309677472763999,-9.510967581708003,-0.5499639796755597,0.12931892520355726,0.6759855918702242,-0.11895261432497767,-0.5504052286499553,-0.0625
1588960117.630698,0.7683610451306413,-2.31,-9.555902612826603,-0.548888888888889,0.128888888888889,0.675555555555556,-0.18237826603325416,-0.1608521377672209,-0.17725653206650832
1588960117.640698,0.7798680344347647,-2.3001319655652352,-9.648812309912882,-0.548888888888889,0.128888888888889,0.675555555555556,0.05920086086911697,0.49175215217279244,0.12087607608639622
1588960117.650698,0.8281375191708881,-2.309627503834178,-9.592234976994934,-0.548888888888889,0.128888888888889,0.675555555555556,0.18284379792722033,1.161890888599712,0.24534379792722033
1588960117.660698,0.8229486619238231,-2.2958973238476466,-9.582948661923822,-0.548888888888889,0.128888888888889,0.675555555555556,0.05528741107168453,1.0112165480955793,0.25
1588960117.670698,0.7929257547618019,-2.300829698095279,-9.563755452857082,-0.5747598343387228,0.128888888888889,0.6791654549206487,0.0,0.2268010624973006,0.08078596726126203
1588960117.680698,0.7864595088611619,-2.31,-9.541770245569419,-0.596666666666667,0.128888888888889,0.6822222222222221,0.0,-0.6836157911467853,-0.11393596519113089
1588960117.690698,0.8087971018126207,-2.31,-9.596391305437862,-0.596666666666667,0.128888888888889,0.6822222222222221,0.05874094316443954,-0.3975543410133628,-0.007518113671120916
1588960117.700698,0.7727724822895338,-2.291386241144767,-9.590693120572384,-0.596666666666667,0.128888888888889,0.6822222222222221,0.0043320035773965065,-1.0148479606486385,-0.11633599284520699
1588960117.710698,0.7937190065889509,-2.29,-9.5583746578814,-0.596666666666667,0.128888888888889,0.6822222222222221,0.04941459706031424,-1.5566459706031424,-0.17441459706031423
1588960117.7206979,0.772885077186964,-2.29,-9.540961692395655,-0.5836113334603898,0.12286335048599178,0.6952775554284991,0.0625,-1.4615423098913665,-0.13101057747284162
1588960117.7306979,0.7939735277668455,-2.2979911759222817,-9.571964703689128,-0.582222222222222,0.12222222222222198,0.696666666666667,-0.037389699028522905,-1.237720601942954,-0.07505515048573855
1588960117.7406979,0.8,-2.3,-9.604425254705903,-0.582222222222222,0.12222222222222198,0.696666666666667,-0.02433553952202401,-0.9585132371321441,-0.02433553952202401
1588960117.7506979,0.8,-2.308596470067945,-9.628596470067945,-0.582222222222222,0.12222222222222198,0.696666666666667,0.0,-0.8125,-0.10745587584931451
1588960117.7606978,0.8185334661482601,-2.28528871180232,-9.58675524565406,-0.582222222222222,0.12222222222222198,0.696666666666667,-0.07722277561775008,-0.9669455512355002,-0.125
1588960117.7706978,0.7549496991134181,-2.3033556892829252,-9.551661077679269,-0.582222222222222,0.11017711220338827,0.696666666666667,-0.125,-2.052747025586844,-0.22923652900914143
1588960117.7806978,0.7529247319080057,-2.303537634045997,-9.55,-0.582222222222222,0.10777777777777803,0.696666666666667,-0.125,-2.492338723275106,-0.3307795744250354
1588960117.7906978,0.7456385311044121,-2.3,-9.607445875582352,-0.582222222222222,0.10777777777777803,0.696666666666667,0.009638770896135934,-1.5478898328309125,-0.19548163880515207
1588960117.8006978,0.7843090713140394,-2.3,-9.54138185737192,-0.582222222222222,0.10777777777777803,0.696666666666667,0.0625,-0.34959125200431096,-0.014227321714901556
1588960117.8106978,0.7830320489070026,-2.3069679510929975,-9.536967951092997,-0.582222222222222,0.10777777777777803,0.696666666666667,0.01895030566876621,-0.25,-0.04354969433123379
1588960117.8206978,0.7860077045945693,-2.303992295405431,-9.552015409189138,-0.5868948813513315,0.10777777777777803,0.6919940075375576,-0.11264446114817252,-1.226251996617495,-0.1751444611481725
1588960117.8306978,0.797567264233931,-2.292432735766069,-9.529730943064276,-0.59,0.10777777777777803,0.6888888888888891,-0.1875,-1.875,-0.25
1588960117.8406978,0.7821067067542263,-2.2989466466228867,-9.654199699343302,-0.59,0.10777777777777803,0.6888888888888891,-0.1315834586069573,-2.6578315795025977,-0.3618330827860854
1588960117.8506978,0.7624769893797138,-2.2941589964599047,-9.623271971679236,-0.59,0.10777777777777803,0.6888888888888891,-0.16150627212559643,-4.246757157149453,-0.630543904879175
1588960117.8606977,0.7454851592992647,-2.294514840700735,-9.59,-0.59,0.10777777777777803,0.6888888888888891,-0.24393550875919034,-5.453588771897976,-0.8689355087591903
1588960117.8706977,0.7212303448275862,-2.3,-9.552460689655174,-0.564973793103448,0.12759019157088133,0.6888888888888891,-0.2538448275862069,-5.859620689655173,-0.8201896551724138
1588960117.8806977,0.6949060629285166,-2.3,-9.55,-0.563333333333333,0.128888888888889,0.6888888888888891,-0.14544192886881951,-5.038535430950557,-0.7079419288688196
1588960117.8906977,0.69,-2.3,-9.591758241758242,-0.563333333333333,0.128888888888889,0.6888888888888891,-0.125,-3.5178571428571432,-0.5309065934065934
1588960117.9006977,0.6830825428621929,-2.313834914275614,-9.593082542862193,-0.563333333333333,0.128888888888889,0.6888888888888891,-0.125,-1.9097426795498733,-0.24059535733223358
1588960117.9106977,0.7035428663688714,-2.305874280178677,-9.571165706904903,-0.563333333333333,0.128888888888889,0.6888888888888891,-0.21328574888326784,-0.9887855874280178,-0.06614283407782143
1588960117.9206977,0.73,-2.2845648661630498,-9.54456486616305,-0.5669567558913,0.12164204377295539,0.685265466330922,-0.2445608270381206,-1.0326350377712763,-0.06793917296187939
1588960117.9306977,0.7029355038333276,-2.3016515969333375,-9.534587100766664,-0.57,0.11555555555555601,0.6822222222222221,-0.2213306202083405,-1.307338759583319,-0.125
1588960117.9406977,0.697890252481826,-2.314036582506058,-9.583670757445477,-0.57,0.11555555555555601,0.6822222222222221,-0.1381859219885875,-0.80274368795435,-0.0877286406628625
1588960117.9506977,0.7227431024405974,-2.3163715512202985,-9.588142243898506,-0.57,0.11555555555555601,0.6822222222222221,0.017144390253733446,-1.0973329269030008,-0.18196658538060018
1588960117.9606977,0.6958567081867453,-2.308618902728915,-9.575690548635542,-0.57,0.11555555555555601,0.6822222222222221,-0.008631857944280688,-1.864291147665684,-0.25
1588960117.9706976,0.6952713123452423,-2.3084237707817477,-9.546304916873009,-0.5578323310930319,0.12117140274338704,0.6766063750343909,-0.11514856738592147,-1.6083657587548639,-0.19735143261407853
1588960117.9806976,0.6944887638313244,-2.3127556180843376,-9.551022472337351,-0.555555555555556,0.12222222222222198,0.675555555555556,-0.1077773869728887,-1.2416608045933306,-0.1875
1588960117.9906976,0.6748561862388208,-2.32,-9.621150510089434,-0.555555555555556,0.12222222222222198,0.675555555555556,-0.0625,-0.11241629589681362,-0.09105349197788863
1588960118.0006976,0.6835406746362093,-2.299688988045686,-9.619377976091371,-0.555555555555556,0.12222222222222198,0.675555555555556,-0.0625,0.8625899070960008,0.12694382471446172
1588960118.0106976,0.7218195275031085,-2.2963639055006215,-9.587272188998757,-0.555555555555556,0.12222222222222198,0.675555555555556,-0.0625,1.2840976375155426,0.14772559062111434
1588960118.0206976,0.74,-2.306922941072585,-9.545385294637075,-0.5740167317491153,0.12683751627061218,0.6847861436523357,-0.10576838170365574,0.7692426561488197,0.08173161829634426
1588960118.0306976,0.74,-2.3038713507201245,-9.53,-0.582222222222222,0.128888888888889,0.6888888888888891,-0.08669594200077851,-0.3426892759828727,-0.014108115998442972
1588960118.0406976,0.74,-2.3,-9.583992777131664,-0.582222222222222,0.128888888888889,0.6888888888888891,-0.10468185713411274,-1.5499097141458038,-0.23122742853645098
1588960118.0506976,0.7199797588102441,-2.3066734137299187,-9.589979758810244,-0.582222222222222,0.128888888888889,0.6888888888888891,-0.1667088358119913,-2.542341372991861,-0.3959176716239826
1588960118.0606976,0.6942404532939628,-2.2994936355293087,-9.574746817764655,-0.582222222222222,0.128888888888889,0.6888888888888891,-0.12183522205817805,-3.039161944854555,-0.47033238897091095
1588960118.0706975,0.6736171185427436,-2.2836171185427436,-9.55085135562823,-0.5779669679173849,0.12463363458405118,0.6846336345840512,-0.10239300910785244,-2.6688908815979184,-0.38032097267644266
1588960118.0806975,0.6600427767118549,-2.2949358349322178,-9.530042776711854,-0.575555555555556,0.12222222222222198,0.6822222222222221,-0.06276735444909257,-2.0016041266945552,-0.21915103167363886
1588960118.0906975,0.65,-2.31,-9.562913241653357,-0.575555555555556,0.12222222222222198,0.6822222222222221,0.0,-0.991054384666329,-0.10061747633332034
1588960118.1006975,0.6731103296703297,-2.305377934065934,-9.611511736263736,-0.575555555555556,0.12222222222222198,0.6822222222222221,0.0,0.5777582417582418,0.08193956043956044
1588960118.1106975,0.6963609562263666,-2.2963609562263665,-9.575443824905467,-0.575555555555556,0.12222222222222198,0.6822222222222221,0.02274402358520797,1.2727440235852079,0.272744023585208
1588960118.1206975,0.7157576729138126,-2.296439418228453,-9.524242327086187,-0.575555555555556,0.11292084033667882,0.6822222222222221,0.022253636072167654,0.9100363607216766,0.2320072721443353
1588960118.1306975,0.7156816703995376,-2.307159164800231,-9.560114153601619,-0.575555555555556,0.10777777777777803,0.6822222222222221,0.0,0.0163282999783253,-0.03622390000722489
1588960118.1406975,0.6990098793336006,-2.299009879333601,-9.629455542998796,-0.575555555555556,0.10777777777777803,0.6822222222222221,0.06868825416499581,-0.5590971437424811,0.012376508329991626
1588960118.1506975,0.6726447280053728,-2.2957850906648756,-9.652644728005374,-0.575555555555556,0.10777777777777803,0.6822222222222221,0.016529550033579588,-0.5232454667562122,0.05268636668905305
1588960118.1606975,0.6423639891191295,-2.3,-9.58709196735739,-0.575555555555556,0.10777777777777803,0.6822222222222221,0.047725068005440435,0.5325588547083767,0.14696675734058726
1588960118.1706975,0.6516790842590084,-2.3,-9.55,-0.575555555555556,0.11339828110418776,0.6974778741081908,0.07983524112706583,2.705766560552696,0.4306590354917367
1588960118.1806974,0.6673830303825711,-2.307383030382571,-9.55738303038257,-0.575555555555556,0.11555555555555601,0.703333333333333,-0.029787879782137927,4.466098497276724,0.5922878797821379
1588960118.1906974,0.719536859995751,-2.31,-9.595383471425537,-0.575555555555556,0.11555555555555601,0.703333333333333,0.025958678563841084,5.361522732101126,0.7576880178457617
1588960118.2006974,0.74,-2.31,-9.588181482666142,-0.575555555555556,0.11555555555555601,0.703333333333333,0.017044755554462027,5.10794755554462,0.676134266663386
1588960118.2106974,0.7103928874106529,-2.3050654812351086,-9.565196443705327,-0.575555555555556,0.11555555555555601,0.703333333333333,-0.06168148456113981,5.091703711402849,0.7483629691222796
1588960118.2206974,0.686641433747412,-2.303320716873706,-9.553320716873706,-0.5737107128479414,0.11998317805383056,0.6985367422935357,-0.06273655861801242,5.789616491977226,0.9372634413819876
1588960118.2306974,0.7415159076731129,-2.3058484092326887,-9.564151590767311,-0.57,0.128888888888889,0.6888888888888891,-0.015342326887086713,6.978789769182782,1.0365525577043044
1588960118.2406974,0.822815496886104,-2.3045630993772206,-9.592815496886104,-0.57,0.128888888888889,0.6888888888888891,-0.15351937110763,5.92718641347954,0.85740314446185
1588960118.2506974,0.8414134779240898,-2.31,-9.611413477924089,-0.57,0.128888888888889,0.6888888888888891,-0.1875,2.4875338884585596,0.3655054221533695
1588960118.2606974,0.811731069476971,-2.31,-9.59667837626854,-0.57,0.128888888888889,0.6888888888888891,-0.16673985167837627,-0.5508025956284153,-0.0936402224824356
1588960118.2706974,0.72,-2.3065869842798232,-9.552695874238587,-0.5741714636579935,0.12433820126198689,0.6915434566712487,-0.10516269650220836,-1.2231071944403742,-0.12201191049337493
1588960118.2806973,0.7545798334739391,-2.3,-9.5,-0.582222222222222,0.11555555555555601,0.696666666666667,-0.163486226754209,2.0806197960605948,0.269082639474746
1588960118.2906973,0.81,-2.3,-9.540371446913229,-0.582222222222222,0.11555555555555601,0.696666666666667,-0.153035727023075,2.999463916330825,0.471964272976925
1588960118.3006973,0.7878465744612416,-2.3,-9.581138629784496,-0.582222222222222,0.11555555555555601,0.696666666666667,-0.15980821807655193,0.8092533772917336,0.1882739626889675
1588960118.3106973,0.7910476205513626,-2.3,-9.547823128177598,-0.582222222222222,0.11555555555555601,0.696666666666667,-0.06955782044399533,-1.2696428853380493,-0.208163269334007
1588960118.3206973,0.835575434800699,-2.2972122825996504,-9.5144245651993,-0.5843904468669383,0.11927251208935526,0.7006933695782828,0.05226970125655322,-2.9234313888657737,-0.41703940251310645
1588960118.3306973,0.7382425068119891,-2.296208749621556,-9.5,-0.59,0.128888888888889,0.7111111111111109,0.1875,-6.787078035119588,-0.8815234256736301
1588960118.3406973,0.6386965016747302,-2.2937393003349458,-9.550085597320432,-0.59,0.128888888888889,0.7111111111111109,0.1875,-4.0093389467807965,-0.4913181522143655
1588960118.3506973,0.7177884469983367,-2.296519229799889,-9.566961540400222,-0.59,0.128888888888889,0.7111111111111109,0.1875,1.813821576188316,0.3829326074902969
1588960118.3606973,0.7900067561561028,-2.3050016890390257,-9.59501182327318,-0.59,0.128888888888889,0.7111111111111109,0.15623944350608943,3.312352209085252,0.5624577740243577
1588960118.3706973,0.7874544565350288,-2.31,-9.604636263601908,-0.5843636141337571,0.1270100936001413,0.704848460148619,0.0897725883359824,2.0119284142315688,0.3318177650079472
1588960118.3806973,0.7285927948744879,-2.304371179497952,-9.54844323075307,-0.57,0.12222222222222198,0.6888888888888891,-0.017590064068900325,-0.1435248398277492,0.07129503203445016
1588960118.3906972,0.7207282559078619,-2.270364127953931,-9.60327715158538,-0.57,0.12222222222222198,0.6888888888888891,-0.125,0.16824019452930228,0.12727579971206854
1588960118.4006972,0.7574170495150587,-2.288708524757529,-9.668228688106177,-0.57,0.12222222222222198,0.6888888888888891,-0.125,1.5574272588055131,0.21471413986727922
1588960118.4106972,0.7753830653206177,-2.3,-9.598447587885559,-0.57,0.12222222222222198,0.6888888888888891,-0.15385584174613942,1.615297424284745,0.22114415825386058
1588960118.4206972,0.77,-2.3,-9.543912565860406,-0.5737200986408626,0.12222222222222198,0.6912562243876199,-0.09238384156885084,1.0271515247065524,0.14945353662754032
1588960118.4306972,0.7638321923260627,-2.3,-9.520748288489093,-0.582222222222222,0.12222222222222198,0.696666666666667,0.06717680305683808,0.10515841426524442,0.0625
1588960118.4406972,0.75,-2.2957648214870616,-9.54658696364232,-0.582222222222222,0.12222222222222198,0.696666666666667,-0.0625,-0.6058794628234523,0.009560268588273836
1588960118.4506972,0.7467091106122765,-2.296581778775447,-9.593545553061382,-0.582222222222222,0.12222222222222198,0.696666666666667,-0.10363611734654385,-0.6060235892870965,-0.041931941326728076
1588960118.4606972,0.7445836049695457,-2.3054163950304543,-9.569167209939092,-0.582222222222222,0.12222222222222198,0.696666666666667,-0.1588524689403394,-0.14061481364203626,0.028647531059660624
1588960118.4706972,0.754003984063745,-2.304003984063745,-9.567988047808765,-0.582222222222222,0.12489154493138546,0.6908831341301462,-0.125,0.08752490039840638,0.0625
1588960118.4806972,0.7716784675197611,-2.3041607662401193,-9.573356935039522,-0.582222222222222,0.128888888888889,0.6822222222222221,0.05747605499626662,-0.31294253199103994,0.0625
1588960118.4906971,0.7556545961002785,-2.3,-9.632604456824513,-0.582222222222222,0.128888888888889,0.6822222222222221,0.1875,-1.42383356545961,-0.16573816155988855
1588960118.5006971,0.7352608370702541,-2.3,-9.622086696562032,-0.582222222222222,0.128888888888889,0.6822222222222221,0.06902092675635275,-2.1744581464872943,-0.3421197683109118
1588960118.5106971,0.7363091179498913,-2.296845441025054,-9.58,-0.582222222222222,0.128888888888889,0.6822222222222221,-0.12164798078023109,-2.378352019219769,-0.375
1588960118.520697,0.7421235344206458,-2.29,-9.568185301630969,-0.582222222222222,0.128888888888889,0.6905362692226514,-0.2007720901290365,-2.3238418648064454,-0.3257720901290365
1588960118.530697,0.736139698176483,-2.29,-9.556139698176484,-0.582222222222222,0.128888888888889,0.703333333333333,-0.048253772793963534,-2.6293655680150914,-0.32674622720603647
1588960118.540697,0.7459954167860212,-2.2959954167860213,-9.619954167860213,-0.582222222222222,0.128888888888889,0.703333333333333,0.0,-2.8624140647378975,-0.4124713549126325
1588960118.550697,0.7443102333931777,-2.2943102333931775,-9.597412567324955,-0.582222222222222,0.128888888888889,0.703333333333333,0.03556104129263914,-3.3286714542190303,-0.5086220825852783
1588960118.560697,0.7355827643476656,-2.2855827643476654,-9.532331057390662,-0.582222222222222,0.128888888888889,0.703333333333333,0.11771544565417974,-3.8182540597896293,-0.5625
1588960118.570697,0.7168533513270355,-2.2843822162243215,-9.501235567551356,-0.5793007447393413,0.12499358557838096,0.6970034654537578,0.13272229719598141,-4.2816108112160745,-0.5625
1588960118.580697,0.7,-2.29,-9.49,-0.575555555555556,0.12,0.6888888888888891,0.0625,-4.5625,-0.5625
1588960118.590697,0.6340255422050933,-2.2994249225421295,-9.49942492254213,-0.575555555555556,0.12,0.6888888888888891,-0.05531153177661906,-4.267971170558452,-0.6803115317766191
1588960118.600697,0.7110599612290827,-2.290993337641213,-9.626093273023018,-0.575555555555556,0.12,0.6888888888888891,0.1063749192272555,-2.3923758885001893,-0.4060418012879075
1588960118.610697,0.8056200258485817,-2.0291689340861168,-9.593970988368138,-0.575555555555556,0.12,0.6888888888888891,-0.02910622576695463,-1.7166062257669545,-0.47946887116522685
1588960118.620697,0.9482735868308279,-1.665402353581389,-9.529776885926127,-0.575555555555556,0.12,0.6888888888888891,0.1046314876539011,-1.5828685123460988,-1.1481574382695054
1588960118.630697,0.6628552483639404,-2.160411681609825,-9.565511286649178,-0.575555555555556,0.12777777777777802,0.6822222222222221,0.08673638538933895,0.09570047856545683,-3.8916002392827282
1588960118.640697,0.5943668143893441,-2.2553799113663935,-9.625886459854918,-0.575555555555556,0.12777777777777802,0.6822222222222221,0.125,2.347325208586071,-4.24841703597336
1588960118.650697,0.57,-2.2551899576393355,-9.645189957639335,-0.575555555555556,0.12777777777777802,0.6822222222222221,0.0324372352458471,4.952524451640089,-3.8481031959014396
1588960118.660697,0.5969186350649873,-2.1438620176250454,-9.572317210575028,-0.575555555555556,0.12777777777777802,0.6822222222222221,-0.23074146915617078,6.682620920687296,-3.211586052875136
1588960118.670697,0.64,-2.008930037721693,-9.484732509430424,-0.5726634664591861,0.12278235115677569,0.6822222222222221,-0.5147890919700727,7.123585436508764,-2.690843632119709
1588960118.680697,0.6526696185286104,-2.117058583106267,-9.498190054495913,-0.563333333333333,0.10666666666666699,0.6822222222222221,-0.58512431880109,5.882637942779292,-2.40950272479564
1588960118.690697,0.7237792891056076,-2.2748828435775694,-9.563489541896574,-0.563333333333333,0.10666666666666699,0.6822222222222221,-0.8023274092133966,2.4160368279224946,-1.5693972154497626
1588960118.700697,0.7586575501631139,-2.102719086562095,-9.552047861643652,-0.563333333333333,0.10666666666666699,0.6822222222222221,-0.9666524221298655,-0.5410968851946194,-0.7126709344416141
1588960118.710697,0.8198787805808097,-1.8567383145684067,-9.476253436891644,-0.563333333333333,0.10666666666666699,0.6822222222222221,-0.9093664077708873,-2.8493111164629616,-0.19920800971360908
1588960118.720697,0.9769171154603967,-1.5731406804150794,-9.526628136083016,-0.5607332486828086,0.11186683596771618,0.6918796794955995,-0.7708935373702877,-7.3831275449888345,-0.62680612110863
1588960118.730697,1.236733562035449,-1.208710501238803,-8.991989136649513,-0.555555555555556,0.12222222222222198,0.7111111111111109,-0.8899406803887936,-18.80805102915952,-4.146593291404612
1588960118.740697,1.2911570441112632,-0.7478959495108024,-8.617936020302535,-0.555555555555556,0.12222222222222198,0.7111111111111109,-0.6162470364310282,-29.458048802885095,-8.770465322068988
1588960118.750697,1.0320507897285203,-0.2506920559655391,-9.927473035696398,-0.555555555555556,0.12222222222222198,0.7111111111111109,0.8280952599592615,-38.47424616823054,-14.022619127124587
1588960118.760697,0.9161621294208702,-0.38121782144900224,-9.13158663391325,-0.555555555555556,0.12222222222222198,0.7111111111111109,0.5350556920281321,-22.219747955715583,-17.857472153985935
1588960118.7706969,0.7961919103543427,-0.43767439512736817,-9.089244203654474,-0.555555555555556,0.12222222222222198,0.7111111111111109,0.7114824847730256,-1.6219199027492692,-17.769258757613485
1588960118.7806969,0.49523128009297696,-0.7235211688527312,-9.40613680889922,-0.582222222222222,0.12,0.6822222222222221,0.8224348331396314,27.8470882450606,-17.586644944379877
1588960118.7906969,0.371647650595019,-0.772784116468327,-9.41164765059502,-0.582222222222222,0.12,0.6822222222222221,0.967152547744653,33.48793348464401,-17.958095632437736
1588960118.8006968,0.4457813639140115,-0.7978861500266005,-9.439476069437054,-0.582222222222222,0.12,0.6822222222222221,0.7401196528147229,26.826334702764477,-18.713753177277294
1588960118.8106968,0.5858162631905648,-0.9373562440042886,-9.395769990406862,-0.582222222222222,0.12,0.6822222222222221,0.9507187799785565,14.901271796174031,-19.802875119914226
1588960118.8206968,0.7041116009997472,-0.8829441995001264,-9.30824033250021,-0.5806542665555836,0.11372817733344559,0.6822222222222221,1.23159875312421,-0.34093557808419206,-20.941094596871576
1588960118.8306968,0.7697462746677407,-0.8955432944019331,-9.281847764800645,-0.575555555555556,0.093333333333333,0.6822222222222221,1.3256343133306485,-9.62589609343536,-21.90805980668546
1588960118.8406968,0.8218041480349639,-0.9848866368559422,-9.378494932925872,-0.575555555555556,0.093333333333333,0.6822222222222221,1.2227448149562952,-11.764110003819967,-22.628286295305934
1588960118.8506968,0.8539769132713281,-1.0379538265426562,-9.464092346914688,-0.575555555555556,0.093333333333333,0.6822222222222221,1.088077168216798,-7.804959338558142,-22.7755771682168
1588960118.8606968,0.8418948605855773,-1.0560350464714743,-9.42792990705705,-0.575555555555556,0.093333333333333,0.6822222222222221,0.918640479776643,-0.5530886080599537,-22.51184287865986
1588960118.8706968,0.7947667410342646,-1.0856997768972063,-9.397383370517133,-0.5774453435154049,0.09362406994254063,0.6813500123945996,0.8831769671339615,6.46431187772635,-22.274530901401885
1588960118.8806968,0.7637027254452807,-1.1788918236641577,-9.387405450890562,-0.59,0.095555555555556,0.675555555555556,0.983784068066009,12.38868712308915,-22.553210170165023
1588960118.8906968,0.7665308482101564,-1.149592544630469,-9.410407455369532,-0.59,0.095555555555556,0.675555555555556,1.105864397373046,13.383949218388679,-22.90177539080566
1588960118.9006968,0.7762517051183204,-1.1625034102366407,-9.41103967736196,-0.59,0.095555555555556,0.675555555555556,1.1536422810034992,12.169203339066485,-23.356788594982504
1588960118.9106967,0.8240114454202466,-1.2540114454202467,-9.361604578168098,-0.59,0.095555555555556,0.675555555555556,1.077542920325925,10.292085103516058,-23.86765737452839
1588960118.9206967,0.8572562696173235,-1.2872562696173235,-9.37490250784693,-0.59,0.095555555555556,0.675555555555556,1.202211011064963,9.086960226372025,-24.324773707238197
1588960118.9306967,0.87,-1.3587306993642145,-9.438730699364214,-0.5965256332626908,0.095555555555556,0.7027456941500989,1.1888221881622767,6.912021268543748,-25.111778118377234
1588960118.9406967,0.9167196019487924,-1.406273660205245,-9.450604747589924,-0.596666666666667,0.095555555555556,0.703333333333333,1.2024282160257074,5.600717839742925,-25.949641080128536
1588960118.9506967,0.97,-1.4890526659057557,-9.572421327246046,-0.596666666666667,0.095555555555556,0.703333333333333,1.2736833523561064,5.1131583238219465,-26.228945866623185
1588960118.9606967,0.97,-1.4814538833632263,-9.51163106690581,-0.596666666666667,0.095555555555556,0.703333333333333,1.4636529159193434,5.018173542040328,-26.561392602858852
1588960118.9706967,0.989569203667374,-1.402800176162069,-9.439569203667373,-0.596523067889125,0.09541195677801399,0.7037880627955494,1.4388462385394563,5.7701935780918445,-26.505384954157826
1588960118.9806967,0.9727765544300756,-1.5119523962045083,-9.422776554430076,-0.5909255181433586,0.08981440703224762,0.7215136369904752,1.4913232674060135,6.557349011090203,-26.715293069624053
1588960118.9906967,0.9759024456893018,-1.4398374094821695,-9.407707337067906,-0.59,0.08888888888888902,0.724444444444444,1.4620935237054242,7.872967618527121,-27.137296761852713
1588960119.0006967,0.9973925741221479,-1.4756542902035796,-9.472177722366444,-0.59,0.08888888888888902,0.724444444444444,1.5516357255089492,8.320678627544746,-27.182067862754476
1588960119.0106966,0.9969159785342284,-1.3815420107328857,-9.4,-0.59,0.08888888888888902,0.724444444444444,1.4903624329194638,8.03329892671142,-27.081775134161074
1588960119.0206966,0.9803045604863463,-1.3898477197568269,-9.4,-0.59,0.08888888888888902,0.724444444444444,1.438451751519832,7.202728024317313,-27.185596496960336
1588960119.0306966,1.047267732148403,-1.567267732148403,-9.4731830669629,-0.596666666666667,0.083333333333333,0.7111111111111109,1.377817494445639,5.704404966673834,-26.491375809264436
1588960119.0406966,1.0284067966643677,-1.5421016991660919,-9.496813593328735,-0.596666666666667,0.083333333333333,0.7111111111111109,1.2368643802119255,4.911228760423851,-25.727330083390807
1588960119.0506966,1.0547049971785065,-1.5486762492946267,-9.549409994357013,-0.596666666666667,0.083333333333333,0.7111111111111109,1.1957734419085837,4.829046883817167,-25.06987507053734
1588960119.0606966,1.0712949066414559,-1.4460428976601276,-9.400431635547152,-0.596666666666667,0.083333333333333,0.7111111111111109,1.375,4.8205931665090995,-23.967627333963602
1588960119.0706966,1.0898822677853937,-1.5327839163318364,-9.40662742259513,-0.596666666666667,0.083333333333333,0.7111111111111109,1.375,4.93676417365871,-23.50294330536516
1588960119.0806966,1.1,-1.6214235554206944,-9.41,-0.6012692839356326,0.083333333333333,0.7221573925566293,1.3232205557241319,5.466014998482812,-22.317970003034375
1588960119.0906966,1.0958674705917126,-1.5039116470611416,-9.383249000019704,-0.602222222222222,0.083333333333333,0.724444444444444,1.150828308801797,5.9375,-20.443022058678647
1588960119.1006966,1.1202477232944097,-1.5214863397664578,-9.518761383527952,-0.602222222222222,0.083333333333333,0.724444444444444,1.00309654118012,5.9111793999689795,-19.4065345881988
1588960119.1106966,1.1295413352241253,-1.577248011344752,-9.472293323879374,-0.602222222222222,0.083333333333333,0.724444444444444,1.1192666903015667,4.923733132436684,-18.244833096984333
1588960119.1206965,1.1795891281888262,-1.567740205038544,-9.458972820472066,-0.6026330940333958,0.08340181196852864,0.7247411851969584,0.9349320511801638,4.044524358261146,-16.914388460621474
1588960119.1306965,1.1629225939759993,-1.4760742668679965,-9.41730648494,-0.6192996282462226,0.08617956767066702,0.7367781265728895,0.830766212349996,3.3153634864499724,-15.976895911149965
1588960119.1406965,1.1955734843123378,-1.4030047967287882,-9.430436109145239,-0.622222222222222,0.08666666666666702,0.7388888888888892,0.8517771486985924,3.1017771486985923,-14.684774317842258
1588960119.1506965,1.2153625855154517,-1.4491793662027208,-9.50299614688999,-0.622222222222222,0.08666666666666702,0.7388888888888892,0.7693225603522843,3.0193225603522844,-14.231274081937563
1588960119.1606965,1.1849905289232114,-1.3919962115692845,-9.44,-0.622222222222222,0.08666666666666702,0.7388888888888892,0.5124763223080285,3.7124526446160573,-13.2251657438438
1588960119.1706965,1.223187199475448,-1.407274879790179,-9.44,-0.622222222222222,0.08666666666666702,0.7388888888888892,0.6079679986886202,3.9034359973772403,-12.556724009179659
1588960119.1806965,1.22252122312793,-1.4051273387675802,-9.387563669383791,-0.6,0.036666666666667,0.7388888888888892,0.5472729336486886,3.295150620855683,-11.701665909954809
1588960119.1906965,1.2316452442159382,-1.461516709511568,-9.428097686375322,-0.6,0.036666666666667,0.7388888888888892,0.6669344473007712,2.584672236503856,-11.09495501285347
1588960119.2006965,1.2444700320268416,-1.518509989324386,-9.509569925270702,-0.6,0.036666666666667,0.7388888888888892,0.5625,2.025249733109654,-10.494624065883789
1588960119.2106965,1.2657922830562758,-1.5114025723145748,-9.459818006202022,-0.6,0.036666666666667,0.7388888888888892,0.5625,1.8475643078643689,-9.872725077525292
1588960119.2206964,1.27,-1.5944888740170655,-9.412449389325749,-0.6,0.036666666666667,0.7388888888888892,0.5625,1.5778086832859293,-8.811234733143717
1588960119.2306964,1.2676385980254528,-1.5352771960509055,-9.401807009872737,-0.581111111111111,0.054444444444444996,0.774444444444444,0.38975876234092005,1.8055700987273606,-7.683136089568039
1588960119.2406964,1.2639779080867313,-1.5080662757398064,-9.449944770216828,-0.581111111111111,0.054444444444444996,0.774444444444444,0.3629142233737897,2.16263807445793,-6.925759409518615
1588960119.2506964,1.2831364466719752,-1.467841116679938,-9.486863553328025,-0.581111111111111,0.054444444444444996,0.774444444444444,0.09190418754976815,1.9742874373506956,-6.2769860415007726
1588960119.2606964,1.3048301794751926,-1.5377735319823573,-9.47,-0.581111111111111,0.054444444444444996,0.774444444444444,0.23490568914002316,1.4471699119900812,-5.659434134840139
1588960119.2706964,1.338930872578711,-1.733852517327588,-9.47,-0.581111111111111,0.054444444444444996,0.774444444444444,0.1283410231915283,1.074193581170349,-5.020046139149169
1588960119.2806964,1.3320926430517712,-1.6609264305177112,-9.454185286103542,-0.5793539206781715,0.03950832576445702,0.7911377535573724,0.22384196185286104,0.8153950953678475,-4.505790190735695
1588960119.2906964,1.2985924868083458,-1.6671849736166917,-9.441260105533233,-0.578888888888889,0.035555555555556,0.795555555555556,0.357406085104323,1.1240787021348695,-3.5819365106259378
1588960119.3006964,1.2926719741261352,-1.6606878965045402,-9.501984077621595,-0.578888888888889,0.035555555555556,0.795555555555556,0.25834991914417216,1.4332006468466227,-2.795551374549073
1588960119.3106964,1.31,-1.729970173694368,-9.449821042166208,-0.578888888888889,0.035555555555556,0.795555555555556,0.3119407567694017,0.9975766126674075,-1.8712717117960114
1588960119.3206964,1.31,-1.72179367214457,-9.40076203286742,-0.578888888888889,0.035555555555556,0.795555555555556,0.15863135271068485,0.33323586174630104,-0.8492090180712322
1588960119.3306963,1.2868437671609005,-1.6947396119348344,-9.392104155226066,-0.56,0.027777777777778,0.81,0.06907548508145707,0.1875,0.5624342165476844
1588960119.3406963,1.2592961694948894,-1.6485923389897785,-9.417038305051106,-0.56,0.027777777777778,0.81,0.12060105934305845,0.18310105934305845,1.712978813138831
1588960119.3506963,1.2529991784450816,-1.633748973056352,-9.50925020538873,-0.56,0.027777777777778,0.81,0.05781378367956005,0.11094135103868015,2.9734105427292388
1588960119.3606963,1.2811285481950943,-1.6689106852438675,-9.502217862951227,-0.56,0.027777777777778,0.81,0.013861643445165404,-0.020915069664503794,3.896405487651527
1588960119.3706963,1.2724305031510676,-1.6624305031510676,-9.45900450735249,-0.56,0.027777777777778,0.81,0.036603118435275646,-0.0625,4.992768605576064
1588960119.3806963,1.243393864936461,-1.716424540254156,-9.388484662341153,-0.48896264445041615,0.022242399423264725,0.8219933197681111,-0.04128834414711867,-0.0625,7.067430990133221
1588960119.3906963,1.25,-1.8082772695874239,-9.431722730412575,-0.47444444444444395,0.021111111111110997,0.824444444444444,0.0010767065078600884,-0.38146023904716053,9.341571075712222
1588960119.4006963,1.25,-1.7204808155234128,-9.519519184476586,-0.47444444444444395,0.021111111111110997,0.824444444444444,0.05594949029786699,-0.710696941787202,10.823136238042409
1588960119.4106963,1.2199281126377133,-1.6500718873622866,-9.459983410608704,-0.47444444444444395,0.021111111111110997,0.824444444444444,0.0,-1.3128456123186865,12.563675081883535
1588960119.4206963,1.1039599727763836,-1.7660400272236165,-9.433221532179166,-0.47444444444444395,0.021111111111110997,0.824444444444444,0.0,-1.870384746267387,14.459308137309115
1588960119.4306962,1.1372919159118098,-1.7642360280293967,-9.461527943941206,-0.44379227672382715,-0.00516217550656093,0.7964196053855942,-0.1477872372244061,-2.1838120620406767,17.74176956930439
1588960119.4406962,1.131297759275904,-1.6625955185518078,-9.342595518551807,-0.43555555555555603,-0.012222222222221999,0.7888888888888891,-0.31331109954743996,-2.336832986423199,22.965077384612957
1588960119.4506962,1.197436176419572,-1.7948723528391441,-9.474872352839144,-0.43555555555555603,-0.012222222222221999,0.7888888888888891,-0.3546476102622325,-3.576928307866976,24.370518748915906
1588960119.4606962,1.2528316116810236,-1.8752210744540156,-9.494336776637953,-0.43555555555555603,-0.012222222222221999,0.7888888888888891,-0.27986828466240127,-6.090134306751975,26.251646441719984
1588960119.4706962,1.2314074867004021,-1.9257480212793563,-9.48571850265992,-0.43555555555555603,-0.012222222222221999,0.7888888888888891,-0.32148128324899444,-7.223609624367458,27.447034757363436
1588960119.4806962,1.1660290136178122,-1.9537184305168303,-9.471155291550492,-0.49418353739847276,-0.016409935211001994,0.784701175900109,-0.296480381460379,-6.525725340445307,29.201034468824503
1588960119.4906962,1.0766507578200581,-1.992232828119961,-9.488155218746641,-0.528888888888889,-0.018888888888889,0.782222222222222,-0.42597011716650546,-4.467239062667956,31.502723583790175
1588960119.5006962,1.0801687670299729,-1.9605063010899182,-9.559493698910082,-0.528888888888889,-0.018888888888889,0.782222222222222,-0.6271095878746594,-3.9607054666212536,35.48496572717983
1588960119.5106962,1.0873116485013625,-1.981934945504087,-9.538065054495913,-0.528888888888889,-0.018888888888889,0.782222222222222,-0.71639560626703,-4.94285166893733,37.49390114100817
1588960119.5206962,1.0823762751384436,-1.9747525502768872,-9.514752550276887,-0.528888888888889,-0.018888888888889,0.782222222222222,-0.94059312153891,-6.646651850772369,39.58415185077237
1588960119.5306962,1.0349516720364405,-1.99252416398178,-9.472459726697034,-0.6523546766408669,-0.028065400140725047,0.8656450517843693,-1.0938506832574157,-7.813305466059327,40.938506832574156
1588960119.5406961,1.0094350427749987,-2.0722598289000045,-9.476214529475014,-0.693333333333333,-0.031111111111111,0.893333333333333,-1.2641239306250291,-8.20162393062503,43.06814635828152
1588960119.5506961,0.9996361456339782,-2.1118192718301088,-9.577089165071826,-0.693333333333333,-0.031111111111111,0.893333333333333,-1.506822269362909,-8.453418628513454,45.32049678341673
1588960119.5606961,0.9899391963517811,-2.159969598175891,-9.49993919635178,-0.693333333333333,-0.031111111111111,0.893333333333333,-1.6884500570034202,-8.877280136808208,47.193770376222574
1588960119.570696,0.9731609896593796,-2.1515804948296897,-9.48316098965938,-0.693333333333333,-0.031111111111111,0.893333333333333,-1.9506095365721943,-9.506462887773267,48.924022941376485
1588960119.580696,0.966791836348139,-2.2376995927644665,-9.520641632730372,-0.666666666666667,-0.22333333333333302,0.7233333333333329,-2.25,-10.375,51.5
1588960119.590696,0.9162788395979502,-2.3457472452548003,-9.535847537774648,-0.666666666666667,-0.22333333333333302,0.7233333333333329,-2.259967393934062,-10.338452888908439,51.54983696967031
1588960119.600696,0.851704313018233,-2.271947786306552,-9.637321793828491,-0.666666666666667,-0.22333333333333302,0.7233333333333329,-2.4329348758440186,-9.704238788571931,52.414674379220095
1588960119.610696,0.8338939833165709,-2.10893983316571,-9.559469916582854,-0.666666666666667,-0.22333333333333302,0.7233333333333329,-2.6388252085428623,-9.184186978642845,53.59511994912146
1588960119.620696,0.8246381100466469,-2.086085669860059,-9.507828660279882,-0.666666666666667,-0.22333333333333302,0.7233333333333329,-2.721011812208457,-9.933807117419873,54.6457716807945
1588960119.630696,0.792336281117301,-2.09446725622346,-9.468934512446921,-0.6224047164543486,-0.15079291492981128,0.6723091407274661,-2.853738945810121,-11.06787613463711,55.41623894581012
1588960119.640696,0.7460196714861808,-2.07800983574309,-9.44800983574309,-0.586666666666667,-0.09222222222222198,0.631111111111111,-2.9749692633028424,-11.862100422936953,55.687346316514216
1588960119.650696,0.7127892512558807,-2.138842994976477,-9.586291364325014,-0.586666666666667,-0.09222222222222198,0.631111111111111,-3.0,-12.56398512877761,55.86628358982537
1588960119.660696,0.676424753720394,-2.1365699014881576,-9.589854852232236,-0.586666666666667,-0.09222222222222198,0.631111111111111,-3.0,-12.918783404946552,56.16878340494655
1588960119.670696,0.6328935883541783,-2.2316490436718315,-9.56644679417709,-0.586666666666667,-0.09222222222222198,0.631111111111111,-3.084707536393193,-13.316622609179579,56.3125
1588960119.680696,0.6068402135307004,-2.3918581849890472,-9.540260320296051,-0.5661958877144232,-0.0490873665728513,0.6274556148696386,-3.0427513345668773,-13.273002669133755,56.189127001850316
1588960119.690696,0.566109699693831,-2.4187531756888805,-9.536483833843615,-0.555555555555556,-0.026666666666667005,0.6255555555555551,-2.816552396152259,-13.06655239615226,55.7922380192387
1588960119.700696,0.45681909973291646,-2.6646570256009383,-9.718634833778474,-0.555555555555556,-0.026666666666667005,0.6255555555555551,-2.9303967711115453,-13.180396771111546,55.223016144442276
1588960119.710696,0.4785854816824966,-2.4989586160108552,-9.615658073270014,-0.555555555555556,-0.026666666666667005,0.6255555555555551,-2.818393826322931,-12.889734565807327,54.472862957937586
1588960119.720696,0.44239752557160045,-2.572725443742479,-9.59495901022864,-0.555555555555556,-0.026666666666667005,0.6255555555555551,-2.718493813929001,-12.310962883574007,53.59144432536101
1588960119.730696,0.3982772492033719,-2.810574250265543,-9.584019751858799,-0.5466666666666671,0.053333333333333004,0.6466666666666671,-2.573267192478926,-11.706931230084296,52.02091713937038
1588960119.740696,0.3700991644864545,-2.819355430838045,-9.650495822432273,-0.5466666666666671,0.053333333333333004,0.6466666666666671,-2.7496901109798295,-10.992562663515908,50.30165388429403
1588960119.750696,0.38779812642417083,-2.7043121782428896,-9.738990632120855,-0.5466666666666671,0.053333333333333004,0.6466666666666671,-2.694380854924466,-9.665140518187188,48.36582992235632
1588960119.760696,0.3757858884545419,-2.6189294422727096,-9.67892944227271,-0.5466666666666671,0.053333333333333004,0.6466666666666671,-2.598661802840887,-7.856493352556411,46.48149335255641
1588960119.770696,0.34838854818823756,-2.5467770963764753,-9.61542167710118,-0.5466666666666671,0.053333333333333004,0.6466666666666671,-2.535485685235297,-6.296027612764799,44.67789877988247
1588960119.780696,0.30928308747572414,-2.511433825048552,-9.564641543737862,-0.5383312902588969,0.067027166003241,0.6466666666666671,-2.4162741209040948,-4.8235868352547415,42.31675085740259
1588960119.790696,0.2655361407419201,-2.5025019901289602,-9.56928514567744,-0.515555555555556,0.10444444444444399,0.6466666666666671,-2.1875,-4.180798240725999,38.43084799395001
1588960119.800696,0.26273781902552207,-2.3599419953596286,-9.59636890951276,-0.515555555555556,0.10444444444444399,0.6466666666666671,-1.988471577726218,-4.534222737819025,34.82221577726218
1588960119.810696,0.2582608850948316,-2.4902171661249417,-9.635217344715505,-0.515555555555556,0.10444444444444399,0.6466666666666671,-1.9116847340786514,-4.625,31.523100689359573
1588960119.8206959,0.2557808707407749,-2.557972163333026,-9.602191292592252,-0.515555555555556,0.10444444444444399,0.6466666666666671,-1.756847789350785,-4.588869557870157,27.83217347220942
1588960119.8306959,0.2488458801201961,-2.637118258737941,-9.599039419579315,-0.5161752288822117,0.12737235753070805,0.6547224199131918,-1.5552867507512258,-4.248790378380516,23.984319399414836
1588960119.8406959,0.2314388205958266,-2.6443882059582657,-9.612877641191654,-0.516666666666667,0.145555555555556,0.661111111111111,-1.232463143619581,-3.571941029791329,18.12093978301763
1588960119.8506958,0.2957688544812625,-2.2189446594921094,-9.61,-0.516666666666667,0.145555555555556,0.661111111111111,-1.2388819175634864,-2.164070143349355,13.78938385299247
1588960119.8606958,0.30057034540859306,-2.139429654591407,-9.562851727042966,-0.516666666666667,0.145555555555556,0.661111111111111,-0.9553232940185341,0.3056076242628474,8.52091406908172
1588960119.8706958,0.27315712484237076,-2.2406607818411097,-9.566710718789407,-0.516666666666667,0.145555555555556,0.661111111111111,-0.8536160151324086,1.4021658259773013,4.936582597730139
1588960119.8806958,0.17009057644028028,-2.5998641353395797,-9.550226441100701,-0.5311111111111111,0.15777777777777802,0.6466666666666671,-0.561084743120621,1.995188126610111,-1.3925491853043008
1588960119.8906958,0.18385524178330573,-2.5792171373250414,-9.584638104458264,-0.5311111111111111,0.15777777777777802,0.6466666666666671,-0.34601184713584826,1.2639402802618842,-4.059453095515481
1588960119.9006958,0.17179044780801506,-2.7429907458238567,-9.691047760959924,-0.5311111111111111,0.15777777777777802,0.6466666666666671,-0.07928544820014116,0.4253563446004235,-8.948815288996942
1588960119.9106958,0.11795047902357933,-3.1069968065094713,-9.75204952097642,-0.5311111111111111,0.15777777777777802,0.6466666666666671,0.10015475305131458,0.42921825101710487,-12.294503805940767
1588960119.9206958,0.18478690369505865,-2.786065481524707,-9.662777025196425,-0.5311111111111111,0.15777777777777802,0.6466666666666671,0.21848362961882334,0.858176333284705,-15.087090740470583
1588960119.9306958,0.22815242072824587,-2.5208314410834483,-9.587644351634093,-0.5277495517169918,0.1665178322024887,0.6554067210913778,0.2878175431838456,2.7396069864568973,-17.69024207282459
1588960119.9406958,0.2321239744758432,-2.4851321786690974,-9.58362807657247,-0.525555555555556,0.17222222222222197,0.661111111111111,0.4109503190519599,5.942456700091158,-21.287032816773017
1588960119.9506958,0.2657981893907275,-2.2404631269172257,-9.643697284086091,-0.525555555555556,0.17222222222222197,0.661111111111111,0.6053040127690351,7.674628089383246,-25.013906900765644
1588960119.9606957,0.2584522862214605,-2.302381710228316,-9.609583001775112,-0.525555555555556,0.17222222222222197,0.661111111111111,0.7693464222317439,7.99293302778968,-27.54019633347616
1588960119.9706957,0.22831365425370875,-2.5055396609143203,-9.623372691492582,-0.525555555555556,0.17222222222222197,0.661111111111111,1.0444245761429003,8.02334525431426,-30.954785422343324
1588960119.9806957,0.21,-2.628441044206239,-9.592471646350086,-0.5208660865520894,0.17784958502638173,0.6789310933242826,1.3985261051559803,7.146152105665074,-34.71577410413779
1588960119.9906957,0.2635682476998698,-2.561126538671596,-9.602957820442802,-0.52,0.17888888888888899,0.6822222222222221,1.5809863777675084,6.234739318573289,-37.08598049615595
1588960120.0006957,0.3018109640831758,-2.554540642722117,-9.639081285444234,-0.52,0.17888888888888899,0.6822222222222221,1.806758034026465,6.090879017013233,-39.73227788279773
1588960120.0106957,0.34150305794547525,-2.5284969420545247,-9.665751528972738,-0.52,0.17888888888888899,0.6822222222222221,2.0226705841194152,6.715682336477661,-42.81350581787084
1588960120.0206957,0.3783899517103293,-2.4745760772634733,-9.613220096579342,-0.52,0.17888888888888899,0.6822222222222221,2.0270125603620883,7.478286473844497,-44.821510145878555
1588960120.0306957,0.37934784449902603,-2.57768103667316,-9.590652155500974,-0.5261191571854739,0.1742995209997834,0.6776328543331172,2.086050647920725,8.884057127127974,-47.63903828237486
1588960120.0406957,0.37,-2.5625038092677244,-9.584500761853544,-0.528888888888889,0.17222222222222197,0.675555555555556,2.415610715246034,9.94215654969974,-50.035858933853184
1588960120.0506957,0.40129905808477234,-2.4461028257456827,-9.634773351648352,-0.528888888888889,0.17222222222222197,0.675555555555556,2.5978095565149135,10.565143004317111,-51.77152423469388
1588960120.0606956,0.41,-2.5465429612774613,-9.623359376573166,-0.528888888888889,0.17222222222222197,0.675555555555556,2.625,10.770751948208856,-53.082397404401846
1588960120.0706956,0.41,-2.6215154405086283,-9.61,-0.528888888888889,0.17222222222222197,0.675555555555556,2.660985751589464,10.560599738873751,-53.81440026112625
1588960120.0806956,0.4249614065180103,-2.6599228130360206,-9.600025728987992,-0.5549328187535735,0.16501858204688394,0.675555555555556,2.7186695969125214,10.15681282161235,-53.844152015437395
1588960120.0906956,0.4861684135725706,-2.6306406111209806,-9.59,-0.581111111111111,0.15777777777777802,0.675555555555556,2.75,9.648947415171433,-53.398947415171435
1588960120.1006956,0.561223363210067,-2.4911503531786074,-9.63482044280881,-0.581111111111111,0.15777777777777802,0.675555555555556,2.66996349498427,9.74010951504719,-52.96987223244495
1588960120.1106956,0.6191668968056706,-2.262290343367394,-9.587082757985824,-0.581111111111111,0.15777777777777802,0.675555555555556,2.5794267237411397,10.102866381294302,-52.493487066187974
1588960120.1206956,0.63,-2.1795270771513353,-9.525878461918893,-0.581111111111111,0.15777777777777802,0.675555555555556,2.733107690405539,10.315455767804155,-51.86317692878338
1588960120.1306956,0.6712898004917676,-1.9718089576395157,-9.48522611970494,-0.608637644772289,0.141261857581071,0.6636273909690449,2.6060509975411623,10.27177549877058,-51.21210199508232
1588960120.1406956,0.687251506324568,-1.8357304177806153,-9.44374246837716,-0.6144444444444439,0.13777777777777803,0.661111111111111,2.6531438290571008,9.615493196600296,-50.218561709429
1588960120.1506956,0.7208755583568551,-2.0701611356224823,-9.568940012605848,-0.6144444444444439,0.13777777777777803,0.661111111111111,2.5427708202022417,8.796083280808967,-49.05486798114604
1588960120.1606956,0.7463250540219001,-2.052049675868599,-9.61,-0.6144444444444439,0.13777777777777803,0.661111111111111,2.602031587636876,7.961794680360308,-47.89421571126812
1588960120.1706955,0.7938264971586769,-2.111392066151829,-9.541129790179221,-0.6144444444444439,0.13777777777777803,0.661111111111111,2.664130801034533,8.164677209310797,-47.41358439275827
1588960120.1806955,0.7483932452767096,-2.117035947166026,-9.5,-0.680481784911479,0.11390885953668073,0.6714543090155867,2.597991556595887,8.240737334893831,-47.07098311319177
1588960120.1906955,0.7414398102898527,-2.078560189710147,-9.5,-0.706666666666667,0.10444444444444399,0.675555555555556,2.4620008892663154,7.852502964221051,-45.191016006793674
1588960120.2006955,0.8268483168316831,-2.1679857425742575,-9.571990495049505,-0.706666666666667,0.10444444444444399,0.675555555555556,2.3107227722772277,7.1446980198019805,-41.889514851485146
1588960120.2106955,0.8829667022159023,-2.2137336177272187,-9.569667022159024,-0.706666666666667,0.10444444444444399,0.675555555555556,2.074167555397559,6.442293221945728,-37.920220109017656
1588960120.2206955,0.8398128926522809,-2.1268488313107268,-9.517035938658445,-0.706666666666667,0.10444444444444399,0.675555555555556,1.9282373083076443,6.2407373083076445,-34.856381940921686
1588960120.2306955,0.8253210613177606,-2.100428081757014,-9.48467893868224,-0.7832719732554698,0.057913813775689736,0.6352668387570004,1.7473244890186619,5.612960200583979,-31.04625968008125
1588960120.2406955,0.8815276124187197,-2.0784723875812805,-9.539212687364532,-0.856666666666667,0.013333333333333,0.596666666666667,1.4952262111915011,4.413631055957505,-25.890202857404525
1588960120.2506955,0.8442530294413578,-1.7324865479679776,-9.507284658121527,-0.856666666666667,0.013333333333333,0.596666666666667,1.132633754757426,3.5588198302637912,-21.51383754757426
1588960120.2606955,0.8346831538220223,-1.6120247307330338,-9.472658423088989,-0.856666666666667,0.013333333333333,0.596666666666667,0.95411514430618,0.9264875039213636,-17.572063225452265
1588960120.2706954,0.935649119990367,-1.9452070079672479,-9.527389471994221,-0.856666666666667,0.013333333333333,0.596666666666667,0.7382310000200687,-1.0135525998916293,-14.114210600252864
1588960120.2806954,1.0264157443824506,-2.1445662977529802,-9.545433702247019,-1.1026752509392193,-0.08296607958914756,0.48256400093498797,0.48844095856580994,0.15026753864447073,-9.136964922711059
1588960120.2906954,1.04,-2.1108579215546865,-9.493029505865625,-1.19444444444444,-0.11888888888888902,0.44,0.1928620097167911,3.1120971086621636,-4.24078534186515
1588960120.3006954,1.0336660165444886,-2.0873320330889773,-9.518003900733069,-1.19444444444444,-0.11888888888888902,0.44,0.08541260340305333,4.007318077880154,-2.2801087833748066
1588960120.3106954,1.0459848102482756,-2.1119696204965512,-9.57921215180138,-1.19444444444444,-0.11888888888888902,0.44,-0.12992405124137765,4.140246833465523,1.1767025380344656
1588960120.3206954,1.07,-2.1120088611618852,-9.520734522768816,-1.19444444444444,-0.11888888888888902,0.44,-0.33180307756496863,3.095575379480251,3.4736723158229355
1588960120.3306954,1.0940722344426312,-2.117402256439367,-9.47,-1.4774269337811488,-0.06004564914023533,0.22495470564582873,-0.46759029305328886,1.1667494500816007,5.4143058610657775
1588960120.3406954,1.1375614928586348,-2.2646363446491975,-9.50512298571727,-1.78222222222222,0.0033333333333329996,-0.006666666666667,-0.5274398325916168,-0.6859958147904182,6.611296651832335
1588960120.3506954,1.1198564192405833,-2.2529504513082226,-9.541971283848117,-1.78222222222222,0.0033333333333329996,-0.006666666666667,-0.5792264919830902,-1.9137563316448947,7.663756331644895
1588960120.3606954,1.0182236865925631,-1.9476644701111554,-9.536447373185126,-1.78222222222222,0.0033333333333329996,-0.006666666666667,-0.7534951030087983,-3.543174535645751,9.524465721061588
1588960120.3706954,1.0354041027112322,-1.9732328216898578,-9.535681537799455,-1.78222222222222,0.0033333333333329996,-0.006666666666667,-0.9206121790273992,-4.71954167264381,11.48801283890403
1588960120.3806953,1.0391887997380056,-2.084594399869003,-9.502433600785983,-1.575608172770772,0.16009573713225225,0.2906413405381799,-1.0101400032749304,-4.53544498116915,15.00175004093663
1588960120.3906953,1.03,-2.086681986834231,-9.503272052663077,-1.4,0.293333333333333,0.5433333333333329,-1.1667624177139437,-2.7474147217235187,18.483858467983243
1588960120.4006953,0.9987136522649792,-2.052456382717975,-9.56508723456405,-1.4,0.293333333333333,0.5433333333333329,-1.4221476080126563,-1.5617730452995833,21.259857060094923
1588960120.4106953,0.98,-1.9232993873816533,-9.576656058556766,-1.4,0.293333333333333,0.5433333333333329,-1.6041799268040418,-1.3958996340202083,23.896337218553583
1588960120.4206953,0.9654058081393423,-1.7143286201529853,-9.50162323255737,-1.4,0.293333333333333,0.5433333333333329,-1.625,-2.2905187257856223,25.44761415940925
1588960120.4306953,0.9624652064795801,-1.5624652064795803,-9.423379724693893,-1.2079434853516533,0.24347250741501225,0.5996575996484733,-1.7029075404973761,-3.800198684310594,26.691476062818467
1588960120.4406953,1.0025654961572756,-1.6533378625111461,-9.411282748078637,-0.9377777777777779,0.17333333333333303,0.6788888888888891,-1.7772414122542568,-5.102585877457432,27.594568701965947
1588960120.4506953,1.001896347649645,-1.6436199413820314,-9.462241855484162,-0.9377777777777779,0.17333333333333303,0.6788888888888891,-1.8631478271897193,-5.073272460827416,28.07651159677601
1588960120.4606953,0.960617752477335,-1.6538674537915525,-9.485102958746223,-0.9377777777777779,0.17333333333333303,0.6788888888888891,-1.9987130156722188,-4.538328413802797,28.403032539180547
1588960120.4706953,0.9211797688783535,-1.7158801540810977,-9.477059922959452,-0.9377777777777779,0.17333333333333303,0.6788888888888891,-2.0625,-4.0772471109794175,28.746254815034302
1588960120.4806952,0.893171688247012,-1.7061009088645418,-9.463171688247012,-0.8668392056772909,0.17409203463922085,0.6841997980301018,-2.0625,-3.7911615257719125,29.571592536105577
1588960120.4906952,0.8765872481568447,-1.7146040294904845,-9.46365100737262,-0.73,0.17555555555555602,0.694444444444444,-2.0838296990197205,-4.005956388236647,30.73909398039441
1588960120.5006952,0.86791703106582,-1.81513973915358,-9.4934716148903,-0.73,0.17555555555555602,0.694444444444444,-2.13367903722575,-4.591129890870375,31.653629890870377
1588960120.5106952,0.8493320987874148,-1.7562213991916098,-9.530667901212585,-0.73,0.17555555555555602,0.694444444444444,-2.230558127526219,-6.259663066896957,33.224953704528055
1588960120.5206952,0.8721039692038948,-1.7847277844272635,-9.50579206159221,-0.73,0.17555555555555602,0.694444444444444,-2.1940749037621714,-7.322323941383884,34.03287451881086
1588960120.5306952,0.878010074156989,-1.8700335805232964,-9.45801007415699,-0.7037997916763831,0.1728911275904423,0.7059902989599361,-2.25,-7.8375839513082415,34.21258395130824
1588960120.5406952,0.8495727844075214,-1.8725632935548713,-9.476495254573674,-0.664444444444444,0.168888888888889,0.7233333333333329,-2.2174149512735046,-7.39423456146154,33.67147941528206
1588960120.5506952,0.8236465182043124,-1.8768511841640154,-9.649004595263344,-0.664444444444444,0.168888888888889,0.7233333333333329,-2.289709261223047,-7.125,32.9803199010251
1588960120.5606952,0.7438393521196596,-1.7438393521196596,-9.74118874473184,-0.664444444444444,0.168888888888889,0.7233333333333329,-2.525251012313032,-7.300502024626064,32.2367469630609
1588960120.5706952,0.64,-1.968135858200934,-9.755339156944363,-0.664444444444444,0.168888888888889,0.7233333333333329,-2.0145651345488655,-9.707893631158274,31.81408903480487
1588960120.5806952,0.588605445260327,-2.1720714350466865,-9.553983017556583,-0.6204735476116129,0.17517044557929337,0.7267596369826447,-1.760459160547548,-13.22933664219019,32.356823950684436
1588960120.5906951,0.5676213467783285,-2.047902922577337,-9.330203811314306,-0.578888888888889,0.181111111111111,0.73,-1.8142598487438044,-15.688773820714408,33.91735387113314
1588960120.6006951,0.6156933395344283,-1.87583996279343,-9.475416003720657,-0.578888888888889,0.181111111111111,0.73,-1.8194333953442832,-16.178833255819647,35.3584834651066
1588960120.6106951,0.6721370879720585,-1.6282325547551482,-9.436438186713236,-0.578888888888889,0.181111111111111,0.73,-1.8281670668704066,-14.033812668267482,35.97542839991268
1588960120.620695,0.718455373406193,-1.6553460837887068,-9.519187613843352,-0.578888888888889,0.181111111111111,0.73,-1.8845286885245902,-10.274760928961749,35.572279143897994
1588960120.630695,0.7469487568841647,-1.7830512431158354,-9.614409944926683,-0.5676936694644015,0.1791809008655099,0.7327022943438418,-1.9703513473698524,-5.904236452643746,34.00111619790132
1588960120.640695,0.7239176829268293,-1.8541920731707318,-9.514009146341463,-0.5466666666666671,0.17555555555555602,0.7377777777777779,-1.7629573170731707,-0.48304115853658547,30.596512957317074
1588960120.650695,0.6853762501436946,-1.836488331992183,-9.50974916657087,-0.5466666666666671,0.17555555555555602,0.7377777777777779,-1.7101276008736637,3.55868490631107,25.685723933785493
1588960120.660695,0.7,-1.76214531835206,-9.553267415730337,-0.5466666666666671,0.17555555555555602,0.7377777777777779,-1.3195131086142322,4.902434456928839,20.579616104868915
1588960120.670695,0.6692043310463122,-1.8331565180102918,-9.585782590051457,-0.5466666666666671,0.17555555555555602,0.7377777777777779,-1.0575270690394512,4.9505976629502575,15.323613046740995
1588960120.680695,0.6222326617064031,-1.7863601803073916,-9.513883669146798,-0.5429289089230439,0.1738565747629999,0.7353992046681994,-0.6110458643349808,3.610458643349807,9.569533074458263
1588960120.690695,0.6335576971339658,-1.7346634542990513,-9.438341364252372,-0.5344444444444449,0.17,0.73,-0.12920682126185812,0.17938751694021993,2.592699078953973
1588960120.700695,0.6227929466614351,-1.8424933644147992,-9.44807925773767,-0.5344444444444449,0.17,0.73,0.3125,-4.195593971426593,-3.8168491933436424
1588960120.710695,0.6446097416257619,-2.018365607637952,-9.561561033496952,-0.5344444444444449,0.17,0.73,0.45655442580505956,-7.475150358703274,-10.00166877933006
1588960120.720695,0.6434848597243447,-2.106742429862172,-9.536742429862171,-0.5344444444444449,0.17,0.73,0.6657196267228461,-7.537406532350192,-14.547345815468153
1588960120.730695,0.6310394196104031,-2.1005197098052015,-9.530519709805201,-0.5344444444444449,0.17,0.73,0.7435036274349807,-6.176186519887839,-17.503137842529263
1588960120.740695,0.690223492280133,-1.7740783076004436,-9.352066877079245,-0.5466666666666671,0.17888888888888899,0.73,0.9368015866245841,-0.02095240126247555,-23.774439136739744
1588960120.750695,0.6439344782796941,-1.7188517823639775,-9.58,-0.5466666666666671,0.17888888888888899,0.73,1.1572737768797807,5.474882739212007,-28.182878120940973
1588960120.760695,0.6438614246788634,-1.8584157259634098,-9.555742506811988,-0.5466666666666671,0.17888888888888899,0.73,1.396658476060724,10.087254281821721,-32.551983991825615
1588960120.770695,0.6831686206625226,-1.8875437354106015,-9.494636609227056,-0.5466666666666671,0.17888888888888899,0.73,1.492369252760511,11.353651939570383,-36.0166253573583
1588960120.780695,0.7458018286751832,-2.2568318094373474,-9.49003912413808,-0.5384731258721277,0.1794741418027846,0.7206359533776691,1.8027216674232107,11.516460238203315,-40.40555762704537
1588960120.790695,0.79,-2.2396768658850443,-9.644054904203603,-0.515555555555556,0.181111111111111,0.694444444444444,2.1777058907635114,11.544931369745496,-45.165284529596796
1588960120.800695,0.8154642373909392,-2.1474002706107402,-9.644350067652685,-0.515555555555556,0.181111111111111,0.694444444444444,2.47165148369337,12.041115044557458,-51.17142373909392
1588960120.810695,0.8821655051874426,-1.803857530194725,-9.427282810854415,-0.515555555555556,0.181111111111111,0.694444444444444,2.7128448024738385,12.06471278598158,-56.49459688081206
1588960120.820695,0.9473936281901999,-1.7717660870063183,-9.25826598201844,-0.515555555555556,0.181111111111111,0.694444444444444,3.5734712333212437,7.521207551491782,-62.446012369480975
1588960120.830695,0.8341063911213165,-2.304825870646766,-9.606900114810562,-0.511254836926479,0.18144193562103994,0.6908053748352252,4.683649062380406,-2.1519565633371602,-69.97498086490624
1588960120.840695,0.49,-2.67,-10.26,-0.5011111111111111,0.18222222222222198,0.6822222222222221,3.9375,-7.375,-75.8125
1588960120.850695,1.5207766075296376,-0.18647261123327974,-9.348406937715977,-0.5011111111111111,0.18222222222222198,0.6822222222222221,56.04003633372464,-3.831705411616871,15.004556182933484
1588960120.860695,3.5373645698099847,4.930444155946339,-7.671765608403163,-0.5011111111111111,0.18222222222222198,0.6822222222222221,165.59929826114325,6.092327589598332,204.6812768008183
1588960120.8706949,-0.10924112671143282,2.2484260922647596,-12.654311328159064,-0.5011111111111111,0.18222222222222198,0.6822222222222221,129.1328322577832,71.07170467428273,155.88216621609837
1588960120.8806949,0.6319597237247233,2.5927244736623116,-9.790829657984522,-0.5039903655007258,0.18222222222222198,0.6827980731001451,42.68698510443538,71.96056628110178,128.9765488474661
1588960120.8906949,0.8849821135067195,2.0699284540268783,-9.407716329884947,-0.5344444444444449,0.18222222222222198,0.6888888888888891,-74.41068838828193,46.66259789229431,110.89037875858068
1588960120.9006948,-0.12554715078164402,1.1065327506023421,-4.763041127360341,-0.5344444444444449,0.18222222222222198,0.6888888888888891,-139.22610943015633,12.90357973328851,88.22654017481929
1588960120.9106948,-0.7029713239780355,4.820866381940207,-8.584704557187779,-0.5344444444444449,0.18222222222222198,0.6888888888888891,-162.762754024499,-103.21763094288262,45.43733573473506
1588960120.9206948,0.9291726378757559,8.971532072386116,-20.61890904396101,-0.5344444444444449,0.18222222222222198,0.6888888888888891,-70.46237331353689,-234.01562331891637,-2.6737433563574555
1588960120.9306948,-0.574474320419836,1.860684395699432,-9.753216188061403,-0.5329688595370539,0.19501062475294428,0.6906104046141787,34.20472536706174,-221.31366457338288,-44.35071839927669
1588960120.9406948,0.4514972996020466,0.2510613274587834,-8.03394471290506,-0.527777777777778,0.24,0.696666666666667,67.62881297967596,-68.4775618249005,-53.11242849275156
1588960120.9506948,-0.8101982142022346,-1.0387209574119958,-8.72843812818475,-0.527777777777778,0.24,0.696666666666667,-13.008446893553362,34.3239680239353,-46.73936176429339
1588960120.9606948,-3.4845863115636933,-2.1685023989033585,-10.32008445118966,-0.527777777777778,0.24,0.696666666666667,-28.546377778321748,144.58484896700284,-39.219638879369434
1588960120.9706948,-2.732588052627278,-1.1290500122579061,-12.493200130751001,-0.527777777777778,0.24,0.696666666666667,-18.711287999509683,176.8470136675656,-27.71151272779276
1588960120.9806948,-0.5457485984066096,-0.5691543228090882,-7.048308645618176,-0.5056520769810828,0.2363123832005509,0.7040419002655652,3.076999114783122,105.33722890233108,-16.674358217763352
1588960120.9906948,-0.29040685540822564,-0.7479623500642958,-7.982664797520923,-0.447777777777778,0.226666666666667,0.7233333333333329,4.188750342559606,24.80850654552354,-11.855865410966123
1588960121.0006948,0.10628177141663979,-1.3277350467910634,-10.128675233955317,-0.447777777777778,0.226666666666667,0.7233333333333329,-0.5790595755585506,-18.67198563049297,-11.839742981340521
1588960121.0106947,0.7046184224960691,-1.4701941712070794,-10.119689545471166,-0.447777777777778,0.226666666666667,0.7233333333333329,-0.9588048963323217,-63.79398562913665,-12.950881266683732
1588960121.0206947,1.1804517850821057,-4.807299910133167,-10.16155115601427,-0.447777777777778,0.226666666666667,0.7233333333333329,0.9765631382587621,-89.2850106206258,-16.497491217559435
1588960121.0306947,-1.3152715067672447,-4.932942730317802,-8.545327605457368,-0.447777777777778,0.226666666666667,0.7233333333333329,0.08421356308379413,-74.43631368971432,-28.776221371966994
1588960121.0406947,-2.1208457291556773,-0.29354502936315363,-9.70203326651897,-0.5164550487822983,0.210266124337229,0.7120579604818447,8.398723494039455,39.86828339838941,-86.1898714702676
1588960121.0506947,-0.8618182374416183,-0.5889314923211846,-9.971576145703738,-0.522222222222222,0.20888888888888898,0.7111111111111109,4.869834900369154,73.01128877648834,-75.68126542391548
1588960121.0606947,0.22559962866064648,-1.714382648324753,-9.66730863363997,-0.522222222222222,0.20888888888888898,0.7111111111111109,1.617019368723099,51.00612920921597,-46.53118406616592
1588960121.0706947,1.331784749767913,-5.740896489155203,-10.162879567896024,-0.522222222222222,0.20888888888888898,0.7111111111111109,3.497534074605452,23.57273820575576,-34.41845699004135
1588960121.0806947,0.9290432620789436,-2.2348193507631486,-9.649241741894729,-0.522222222222222,0.20692338171929817,0.7089818116773875,0.5039864080044016,1.6085665742872863,-21.92425824791637
1588960121.0906947,0.7500805015868102,-1.8024955491911139,-9.241529530149393,-0.522222222222222,0.19555555555555604,0.696666666666667,1.2442139484480224,1.8656920040250793,-7.71930877002864
1588960121.1006947,0.7801564923163683,-2.389530523050895,-9.612382630762724,-0.522222222222222,0.19555555555555604,0.696666666666667,-0.2033695192443254,-0.2946743268010715,-0.10913048075567461
1588960121.1106946,0.8064378025283143,-2.310686592415057,-9.592671648103764,-0.522222222222222,0.19555555555555604,0.696666666666667,-0.2444340664504911,0.0749065980544199,-0.0680659335495089
1588960121.1206946,0.7838685660182476,-2.3259123773454986,-9.579780943363746,-0.522222222222222,0.19555555555555604,0.696666666666667,0.24863089602341193,-0.125,-0.09945235840936478
1588960121.1306946,0.7639843374138023,-2.316640562356337,-9.53468755011493,-0.5229600624840374,0.19452257918901467,0.6947482819859473,0.0,-0.125,0.0083007029454215
1588960121.1406946,0.7853452585150699,-2.3437084048027446,-9.51396422445479,-0.527777777777778,0.18777777777777802,0.6822222222222221,-0.08727640284244058,-0.0813617985787797,0.0625
1588960121.1506946,0.7725653957528957,-2.2951307915057915,-9.583088561776062,-0.527777777777778,0.18777777777777802,0.6822222222222221,-0.32689882963320466,0.07853372345559845,0.07853372345559845
1588960121.1606946,0.7738409057383095,-2.31,-9.635628780056056,-0.527777777777778,0.18777777777777802,0.6822222222222221,-0.12334276810739046,0.08650566086443429,0.1121685536214781
1588960121.1706946,0.7506389216698628,-2.31,-9.58149081722968,-0.527777777777778,0.18777777777777802,0.6822222222222221,0.11834456593892906,-0.05850673956335742,0.0638310868122142
1588960121.1806946,0.7764973283744498,-2.343121660468062,-9.5270053432511,-0.527777777777778,0.18777777777777802,0.6822222222222221,0.20780415117015574,0.020304151170155743,0.0625
1588960121.1906946,0.79,-2.3235112529102353,-9.518244373544881,-0.5227098962375325,0.1827098962375325,0.6822222222222221,0.021945330688971282,-0.05152733465551436,0.0054863326722428205
1588960121.2006946,0.7753396274934793,-2.32,-9.53466037250652,-0.522222222222222,0.18222222222222198,0.6822222222222221,-0.09162732816575438,-0.016686335917122812,0.0
1588960121.2106946,0.7803294108613441,-2.3890117674159677,-9.629176472846641,-0.522222222222222,0.18222222222222198,0.6822222222222221,-0.12294118211659916,0.12294118211659916,0.002058817883400841
1588960121.2206945,0.796432534121667,-2.340702397634999,-9.588918664695832,-0.522222222222222,0.18222222222222198,0.6822222222222221,-0.022296661739581128,0.022296661739581128,0.10270333826041887
1588960121.2306945,0.7810361550747786,-2.3110361550747784,-9.532590387686946,-0.522222222222222,0.18222222222222198,0.6822222222222221,0.17778604617395094,-0.05926201539131697,0.18426201539131698
1588960121.2406945,0.7637718465237509,-2.3262281534762494,-9.521885923261875,-0.522222222222222,0.18222222222222198,0.6939425552884024,0.08607404077344272,-0.0625,0.08607404077344272
1588960121.2506945,0.79,-2.3548650278213232,-9.565990800875124,-0.522222222222222,0.18222222222222198,0.696666666666667,-0.3018021412944237,-0.22860428258884735,-0.05715107064721184
1588960121.2606945,0.79,-2.3115123430205515,-9.616568933142691,-0.522222222222222,0.18222222222222198,0.696666666666667,-0.2114840479594825,-0.04796809591896503,-0.011992023979741258
1588960121.2706945,0.78,-2.320833066050848,-9.60583466974576,-0.522222222222222,0.18222222222222198,0.696666666666667,0.06770666281779887,0.0,0.06510333140889944
1588960121.2806945,0.78,-2.338770072914662,-9.51614963542669,-0.522222222222222,0.18222222222222198,0.696666666666667,0.1798129557166378,0.0,0.1211564778583189
1588960121.2906945,0.7816969711025558,-2.373030288974442,-9.52,-0.527777777777778,0.18222222222222198,0.667777777777778,0.08257572243610557,-0.07310606939097361,-0.020075722436105572
1588960121.3006945,0.7869364291592887,-2.2961271416814224,-9.536849639623911,-0.527777777777778,0.18222222222222198,0.667777777777778,-0.14414731775444548,-0.08670536449110906,0.1587790233683318
1588960121.3106945,0.7752513476793619,-2.331750449226454,-9.619497304641277,-0.527777777777778,0.18222222222222198,0.667777777777778,-0.21717907700398825,0.09217907700398825,0.010940307665337249
1588960121.3206944,0.7987281526098474,-2.3393640763049235,-9.567456305219695,-0.527777777777778,0.18222222222222198,0.667777777777778,-0.0625,-0.06647452309422681,0.05455095381154637
1588960121.3306944,0.7863136552663125,-2.3331568276331565,-9.542627310532625,-0.527777777777778,0.18222222222222198,0.667777777777778,-0.0625,-0.10526982729277354,-0.023039654585547062
1588960121.3406944,0.7880698457442644,-2.3219301542557353,-9.53,-0.5179146329792329,0.19298201654790836,0.6848141187934472,0.03837307180330436,0.02630960770495655,-0.012063464098347819
1588960121.3506944,0.77,-2.3410466378510666,-9.578373102808534,-0.515555555555556,0.19555555555555604,0.6888888888888891,0.04941702686166538,0.07558297313833462,0.013082973138334618
1588960121.3606944,0.77,-2.349324807073638,-9.644598456589101,-0.515555555555556,0.19555555555555604,0.6888888888888891,-0.05406008842047093,0.17906008842047094,0.11656008842047093
1588960121.3706944,0.7845095011205484,-2.328235748319177,-9.599216746078081,-0.515555555555556,0.19555555555555604,0.6888888888888891,-0.10784219100171377,0.0061312359931448845,-0.011026573005141344
1588960121.3806944,0.79,-2.3035654445545446,-9.571782722277273,-0.515555555555556,0.19555555555555604,0.6888888888888891,-0.02228402846590398,0.04021597153409602,-0.01114201423295199
1588960121.3906944,0.775250092171562,-2.336874769571095,-9.533125230428904,-0.5049028443461282,0.19555555555555604,0.6888888888888891,0.04609346196386875,0.01640653803613125,-0.04609346196386875
1588960121.4006944,0.78,-2.3594048597038904,-9.531190280592218,-0.5011111111111111,0.19555555555555604,0.6888888888888891,-0.25,0.060640186574657244,-0.12314018657465725
1588960121.4106944,0.78,-2.3287766763422604,-9.592446647315478,-0.5011111111111111,0.19555555555555604,0.6888888888888891,-0.25,-0.03507288643043613,-0.02742711356956387
1588960121.4206944,0.7716699363414341,-2.322504904512151,-9.602485286463546,-0.5011111111111111,0.19555555555555604,0.6888888888888891,-0.10934434679905514,-0.05206289786603675,0.05728144893301838
1588960121.4306943,0.7884625855787325,-2.3476938783680987,-9.526918364895703,-0.5011111111111111,0.19555555555555604,0.6888888888888891,0.04808673980061656,0.05289115986707771,0.004804420066461146
1588960121.4406943,0.78,-2.338922613531047,-9.507845227062095,-0.527777777777778,0.18222222222222198,0.675555555555556,0.05239950185356812,-0.05576633456904541,0.17403266913809082
1588960121.4506943,0.7802843650549225,-2.3202843650549223,-9.47454984087876,-0.527777777777778,0.18222222222222198,0.675555555555556,-0.12677728159326557,0.06072271840673442,-0.06072271840673442
1588960121.4606943,0.79,-2.330821590109559,-9.625070459342648,-0.527777777777778,0.18222222222222198,0.675555555555556,-0.17723012363051563,-0.010269876369484371,0.0051349381847421854
1588960121.4706943,0.79,-2.339253191275505,-9.57448085234697,-0.527777777777778,0.18222222222222198,0.675555555555556,-0.07183510905618655,-0.11566489094381345,0.057832445471906725
1588960121.4806943,0.7767620119470175,-2.3201430179205262,-9.556762011947018,-0.527777777777778,0.18222222222222198,0.675555555555556,-0.02113128733442992,-0.16636871266557007,0.02113128733442992
1588960121.4906943,0.77,-2.3030320174075225,-9.536064034815045,-0.5192613546091945,0.18222222222222198,0.6848461990121925,0.13064967360895244,-0.10040021759403171,0.13064967360895244
1588960121.5006943,0.7630962850051787,-2.3384518574974105,-9.585418498759063,-0.515555555555556,0.18222222222222198,0.6888888888888891,0.10564821871763302,0.0,0.06733794532059174
1588960121.5106943,0.7958828242559263,-2.3220585878720366,-9.642794942447871,-0.515555555555556,0.18222222222222198,0.6888888888888891,-0.09926765159953882,0.0,0.1185669128998847
1588960121.5206943,0.7702986680227668,-2.3402986680227666,-9.588805327908933,-0.515555555555556,0.18222222222222198,0.6888888888888891,-0.12126664971541455,0.0,0.06436667514229272
1588960121.5306942,0.7785023568760147,-2.348502356876015,-9.555990572495942,-0.515555555555556,0.18222222222222198,0.6888888888888891,-0.018720539049817117,0.0,0.11563973047509143
1588960121.5406942,0.78,-2.35,-9.543327105350226,-0.5281599121162389,0.18222222222222198,0.6844402924557067,0.04170559156108289,-0.04170559156108289,0.125
1588960121.5506942,0.78,-2.35,-9.52223620245925,-0.5344444444444449,0.18222222222222198,0.6822222222222221,0.1180118673148413,-0.1180118673148413,-0.04153560194452388
1588960121.5606942,0.78,-2.3363608412249417,-9.560917476325175,-0.5344444444444449,0.18222222222222198,0.6822222222222221,-0.0881118558602878,0.0028671135161726646,0.02274474234411511
1588960121.5706942,0.771490827325291,-2.33,-9.571490827325292,-0.5344444444444449,0.18222222222222198,0.6822222222222221,-0.29386465843386395,-0.043864658433863946,0.11568232921693197
1588960121.5806942,0.778368269443829,-2.338368269443829,-9.561631730556172,-0.5344444444444449,0.18222222222222198,0.6822222222222221,-0.050991579880345694,-0.11480168402393087,0.07269831597606913
1588960121.5906942,0.7700672162697842,-2.3201344325395685,-9.540134432539567,-0.5079570211638694,0.18222222222222198,0.6822222222222221,0.0,-0.0008402033723034497,0.00042010168615172483
1588960121.6006942,0.7776376121589452,-2.3505504486357807,-9.57055044863578,-0.507777777777778,0.18222222222222198,0.6822222222222221,0.0954701519868156,-0.0954701519868156,0.0
1588960121.6106942,0.7704337319147601,-2.35,-9.61913253617048,-0.507777777777778,0.18222222222222198,0.6822222222222221,-0.1263554122336252,0.12228917553274958,0.06114458776637479
1588960121.6206942,0.7792094278630387,-2.35,-9.601581144273922,-0.507777777777778,0.18222222222222198,0.6822222222222221,-0.15377946207199572,0.06744107585600853,0.033720537928004266
1588960121.6306942,0.7879851238113172,-2.35,-9.584029752377365,-0.507777777777778,0.18222222222222198,0.6822222222222221,-0.18120351191036627,0.012592976179267482,0.006296488089633741
1588960121.6406941,0.77,-2.3302831639092223,-9.530283163909221,-0.5344444444444449,0.18777777777777802,0.6888888888888891,0.06426977443263958,0.12323022556736042,0.0017697744326395741
1588960121.6506941,0.77,-2.3399077537345967,-9.539907753734596,-0.5344444444444449,0.18777777777777802,0.6888888888888891,0.12442346084123088,0.06307653915876912,0.06192346084123087
1588960121.6606941,0.77,-2.3499018452137515,-9.6,-0.5344444444444449,0.18777777777777802,0.6888888888888891,-0.1246932662929728,-0.125,0.1246932662929728
1588960121.670694,0.7698270622286542,-2.310172937771346,-9.599567655571635,-0.5344444444444449,0.18777777777777802,0.6888888888888891,-0.0016212916063675833,-0.12337870839363242,0.000540430535455861
1588960121.680694,0.7546523154848046,-2.3253476845151955,-9.561630788712012,-0.5344444444444449,0.18777777777777802,0.6888888888888891,-0.1438845423299566,0.018884542329956594,0.047961514109985524
1588960121.690694,0.7764911761357167,-2.33,-9.536754411932142,-0.5381237744632942,0.19292883980416753,0.6888888888888891,-0.06332261186382786,-0.06167738813617214,0.10389246271205738
1588960121.700694,0.7825614574187885,-2.3225614574187885,-9.507684372256366,-0.54,0.19555555555555604,0.6888888888888891,0.0,-0.03201821773485514,-0.06096356453028973
1588960121.710694,0.7975750552471299,-2.3317167034980866,-9.57030022098852,-0.54,0.19555555555555604,0.6888888888888891,-0.03661469843152051,-0.03661469843152051,-0.051770603136958984
1588960121.720694,0.7807524384579656,-2.3180643288434744,-9.590752438457965,-0.54,0.19555555555555604,0.6888888888888891,-0.1081993149094287,0.028898629818857408,0.09139862981885741
1588960121.730694,0.7643848671544089,-2.326845398536773,-9.551924335772044,-0.54,0.19555555555555604,0.6888888888888891,-0.125,0.0625,0.05481083943011167
1588960121.740694,0.7711844169760055,-2.3288155830239945,-9.518815583023994,-0.5331650785146634,0.19120606006488708,0.693238384379558,-0.055097393899965555,0.09745130305001723,0.10485390915005166
1588960121.750694,0.7865233704974272,-2.3395701114922813,-9.52957011149228,-0.527777777777778,0.18777777777777802,0.696666666666667,0.12231319682675815,0.043457868782161235,0.06518680317324185
1588960121.760694,0.781286914115416,-2.3412869141154156,-9.618417772961259,-0.527777777777778,0.18777777777777802,0.696666666666667,-0.0847839338932539,0.054456786778650776,-0.054456786778650776
1588960121.770694,0.7714769959555784,-2.34,-9.587384979777893,-0.527777777777778,0.18777777777777802,0.696666666666667,-0.018462449444729967,-0.09730632583290508,-0.009231224722364983
1588960121.780694,0.77,-2.317831433650528,-9.535662867301056,-0.527777777777778,0.18777777777777802,0.696666666666667,0.0,-0.0788154867719335,0.04618451322806651
1588960121.790694,0.7772188870647619,-2.324437774129524,-9.52,-0.513340003648254,0.17895469358751356,0.6709995126586241,-0.0451180441547622,-0.1076180441547622,-0.027736088309524398
1588960121.800694,0.78,-2.33,-9.53763997001672,-0.507777777777778,0.17555555555555602,0.661111111111111,-0.0625,-0.014750187395490971,0.10287471890676353
1588960121.810694,0.78,-2.320668145956607,-9.614654832347139,-0.507777777777778,0.17555555555555602,0.661111111111111,-0.0625,-0.11664817554240631,0.18332408777120315
1588960121.820694,0.7887665631354323,-2.3550662525417287,-9.58493374745827,-0.507777777777778,0.17555555555555602,0.661111111111111,0.04708203919290327,-0.07020898040354837,0.07791796080709673
1588960121.830694,0.7828231956020572,-2.3241159780102856,-9.551292782408227,-0.507777777777778,0.17555555555555602,0.661111111111111,0.01764497251285689,-0.01764497251285689,0.01764497251285689
1588960121.840694,0.7706740738239168,-2.3286518523521664,-9.54,-0.5264296301299445,0.18695390977076862,0.6870164616002313,-0.11657407720104014,0.11657407720104014,0.0
1588960121.850694,0.77,-2.320551574067504,-9.577793703729984,-0.527777777777778,0.18777777777777802,0.6888888888888891,0.05215798623430071,0.06594733792189976,-0.05905266207810024
1588960121.860694,0.7794724633522252,-2.33894492670445,-9.627362316761127,-0.527777777777778,0.18777777777777802,0.6888888888888891,0.0625,0.0625,0.11510868785422196
1588960121.870694,0.7880699010986779,-2.348069901098678,-9.605790296703965,-0.527777777777778,0.18777777777777802,0.6888888888888891,-0.08881064560021121,-0.038373763733474134,-0.07674752746694827
1588960121.880694,0.79,-2.3398704096927307,-9.564546433924557,-0.527777777777778,0.18777777777777802,0.6888888888888891,-0.125,-0.03084503028978266,-0.125
1588960121.890694,0.79,-2.33,-9.522612239062052,-0.5257256219616815,0.1857256219616815,0.6888888888888891,-0.07882649413783242,-0.04617350586216758,-0.05573974120674864
1588960121.900694,0.79,-2.334868769033499,-9.524606307100496,-0.522222222222222,0.18222222222222198,0.6888888888888891,-0.030429806459368488,-0.06414038708126302,0.0016403870812630242
1588960121.910694,0.7831201819790219,-2.34,-9.595038544167824,-0.522222222222222,0.18222222222222198,0.6888888888888891,0.10949545052445345,0.04299886263111336,-0.10549886263111335
1588960121.9206939,0.78,-2.3340333782523066,-9.584200269513838,-0.522222222222222,0.18222222222222198,0.6888888888888891,0.1875,0.0625,-0.05041722815383021
1588960121.9306939,0.78,-2.33,-9.542520521335923,-0.522222222222222,0.18222222222222198,0.6888888888888891,0.07825325834952065,-0.010331161100319564,-0.10924674165047935
1588960121.9406939,0.78,-2.3354461040814383,-9.524553895918562,-0.5252478356007992,0.18948369433080703,0.7009913424031966,0.03403815050899058,-0.0625,-0.11942369898201884
1588960121.9506938,0.78,-2.3336573340376825,-9.526342665962316,-0.527777777777778,0.19555555555555604,0.7111111111111109,-0.016783324528966373,0.09606664905793275,-0.0625
1588960121.9606938,0.7880988554124109,-2.3138022891751784,-9.61098855412411,-0.527777777777778,0.19555555555555604,0.7111111111111109,0.038735692655135254,0.13688215367243237,-0.0625
1588960121.9706938,0.7726107754279959,-2.336083836858006,-9.603916163141994,-0.527777777777778,0.19555555555555604,0.7111111111111109,0.17118265357502516,0.01631734642497483,-0.11684132678751258
1588960121.9806938,0.7632689983519502,-2.34673100164805,-9.5865379967039,-0.527777777777778,0.19555555555555604,0.7111111111111109,0.0192249587987548,-0.0420687603003113,-0.0408624793993774
1588960121.9906938,0.7813787493344377,-2.342873750221854,-9.522990001774833,-0.527777777777778,0.18605388918469434,0.6952750004930093,0.02657812222682364,0.02657812222682364,0.04453906111341182
1588960122.0006938,0.7836445206965234,-2.34,-9.531777396517384,-0.527777777777778,0.18222222222222198,0.6888888888888891,-0.016943491293458762,-0.016943491293458762,-0.016943491293458762
1588960122.0106938,0.78,-2.3326877766003866,-9.608497787196908,-0.527777777777778,0.18222222222222198,0.6888888888888891,0.02890279249516922,-0.01679860375241539,-0.0625
1588960122.0206938,0.7865059652822526,-2.33,-9.60397613887099,-0.527777777777778,0.18222222222222198,0.6888888888888891,0.1438245660281569,-0.08132456602815691,-0.021837716985921546
1588960122.0306938,0.7822568700999727,-2.3338715649500137,-9.562899045349903,-0.527777777777778,0.18222222222222198,0.6888888888888891,0.13910543812482895,-0.07660543812482895,0.07259184281275657
1588960122.0406938,0.7715449326210031,-2.3369101347579937,-9.521544932621003,-0.523657957455103,0.18119226714155334,0.6900905031496694,0.07215582888126944,0.019311657762538872,0.14887668447492225
1588960122.0506938,0.78,-2.324321530542067,-9.525678469457933,-0.5011111111111111,0.17555555555555602,0.696666666666667,0.09799043411208136,0.07098086822416272,-0.0625
1588960122.0606937,0.78,-2.3468178523745946,-9.576059507915316,-0.5011111111111111,0.17555555555555602,0.696666666666667,-0.007574384894144581,0.0,0.007574384894144581
1588960122.0706937,0.785345421322651,-2.3439637360320473,-9.593272893386745,-0.5011111111111111,0.17555555555555602,0.696666666666667,0.0711355330662731,-0.06681776653313655,-0.03772664979970483
1588960122.0806937,0.79,-2.33,-9.557013783829214,-0.5011111111111111,0.17555555555555602,0.696666666666667,0.16044538297753125,-0.07089076595506247,-0.07089076595506247
1588960122.0906937,0.7812826899128269,-2.3343586550435864,-9.535641344956412,-0.512734191227342,0.18427286564272913,0.6903708316037084,0.07051681195516812,0.08172478206724781,0.0
