time,acc_x,acc_y,acc_z,mag_x,mag_y,mag_z,gyr_x,gyr_y,gyr_z
1589550246.125994,-0.02,-3.82,8.95,0.4211111111111111,0.2877777777777778,-0.6311111111111111,-0.25,0.0,-0.125
1589550246.1321812,-0.02,-3.83,9.0,0.4211111111111111,0.2877777777777778,-0.6311111111111111,-0.1875,0.0625,0.0625
1589550246.1456082,-0.01,-3.83,9.0,0.4211111111111111,0.2877777777777778,-0.6311111111111111,0.0,0.0625,0.0625
1589550246.1517086,-0.02,-3.84,9.07,0.4011111111111111,0.28,-0.6444444444444445,-0.125,0.0625,-0.0625
1589550246.1602376,-0.03,-3.81,9.07,0.4011111111111111,0.28,-0.6444444444444445,-0.0625,0.25,0.0
1589550246.1703305,-0.02,-3.83,8.97,0.4011111111111111,0.28,-0.6444444444444445,0.0,0.375,-0.0625
1589550246.1836536,0.0,-3.82,9.01,0.4011111111111111,0.28,-0.6444444444444445,0.0,-0.0625,0.0
1589550246.1922786,-0.02,-3.84,9.08,0.4011111111111111,0.28,-0.6444444444444445,-0.125,-0.125,0.0
1589550246.2038946,-0.01,-3.8,9.12,0.4155555555555556,0.2877777777777778,-0.6255555555555555,-0.3125,0.0,0.125
1589550246.2099721,-0.02,-3.83,9.03,0.4155555555555556,0.2877777777777778,-0.6255555555555555,-0.1875,0.1875,0.0625
1589550246.222351,-0.02,-3.82,8.94,0.4155555555555556,0.2877777777777778,-0.6255555555555555,-0.1875,0.125,-0.0625
1589550246.2300696,-0.03,-3.84,8.95,0.4155555555555556,0.2877777777777778,-0.6255555555555555,-0.0625,0.125,0.0
1589550246.2426198,-0.01,-3.84,9.04,0.4155555555555556,0.2877777777777778,-0.6255555555555555,0.0625,0.1875,-0.125
1589550246.2501712,-0.02,-3.85,9.05,0.4211111111111111,0.3055555555555556,-0.6311111111111111,0.1875,0.1875,-0.125
1589550246.260277,-0.03,-3.82,9.03,0.4211111111111111,0.3055555555555556,-0.6311111111111111,0.1875,0.25,0.0625
1589550246.2694929,-0.03,-3.84,8.95,0.4211111111111111,0.3055555555555556,-0.6311111111111111,0.375,0.375,0.0625
1589550246.2794864,-0.02,-3.82,9.01,0.4211111111111111,0.3055555555555556,-0.6311111111111111,0.0625,0.25,0.0
1589550246.2959785,-0.02,-3.82,9.05,0.4211111111111111,0.3055555555555556,-0.6311111111111111,-0.1875,0.0625,0.0625
1589550246.3027606,-0.01,-3.83,9.1,0.4011111111111111,0.3,-0.64,-0.0625,-0.0625,0.125
1589550246.309383,-0.03,-3.82,9.04,0.4011111111111111,0.3,-0.64,-0.25,0.25,0.125
1589550246.3195348,-0.03,-3.83,8.97,0.4011111111111111,0.3,-0.64,-0.1875,0.375,0.0
1589550246.330818,-0.03,-3.82,8.99,0.4011111111111111,0.3,-0.64,-0.125,0.125,-0.125
1589550246.3427253,-0.02,-3.84,9.03,0.4011111111111111,0.3,-0.64,-0.1875,0.1875,0.0625
1589550246.3551044,-0.03,-3.82,9.04,0.4011111111111111,0.3,-0.6255555555555555,-0.25,-0.0625,0.0
1589550246.3612256,-0.03,-3.84,9.02,0.4011111111111111,0.3,-0.6255555555555555,-0.375,0.0,0.125
1589550246.3739858,-0.03,-3.83,8.94,0.4011111111111111,0.3,-0.6255555555555555,-0.4375,0.0,-0.0625
1589550246.3801599,0.0,-3.85,9.0,0.4011111111111111,0.3,-0.6255555555555555,-0.375,0.0,-0.0625
1589550246.394433,-0.01,-3.83,9.03,0.4011111111111111,0.3,-0.6255555555555555,-0.3125,0.0,0.0
1589550246.401106,-0.01,-3.84,9.07,0.4155555555555556,0.2933333333333333,-0.6522222222222223,-0.1875,0.0,-0.0625
1589550246.4115114,-0.02,-3.84,9.09,0.4155555555555556,0.2933333333333333,-0.6522222222222223,-0.0625,0.125,-0.0625
1589550246.4202287,-0.02,-3.85,8.96,0.4155555555555556,0.2933333333333333,-0.6522222222222223,-0.125,-0.125,0.0
1589550246.4303086,-0.01,-3.83,8.99,0.4155555555555556,0.2933333333333333,-0.6522222222222223,-0.125,-0.1875,0.0
1589550246.4435468,-0.01,-3.82,9.02,0.4155555555555556,0.2933333333333333,-0.6522222222222223,0.0625,-0.125,-0.125
1589550246.453141,-0.02,-3.84,9.08,0.4088888888888889,0.3,-0.6311111111111111,-0.25,0.0,-0.0625
1589550246.4607742,-0.02,-3.83,9.04,0.4088888888888889,0.3,-0.6311111111111111,0.0625,-0.125,-0.0625
1589550246.4707046,-0.01,-3.83,8.94,0.4088888888888889,0.3,-0.6311111111111111,-0.0625,0.125,0.0
1589550246.4834983,-0.02,-3.84,9.0,0.4088888888888889,0.3,-0.6311111111111111,-0.0625,0.0,0.0
1589550246.4934855,-0.02,-3.85,9.04,0.4088888888888889,0.3,-0.6311111111111111,-0.0625,-0.125,0.0
1589550246.505519,0.0,-3.84,9.07,0.4211111111111111,0.3,-0.6444444444444445,0.0625,-0.0625,-0.0625
1589550246.512245,-0.02,-3.82,9.05,0.4211111111111111,0.3,-0.6444444444444445,0.0625,-0.0625,-0.0625
1589550246.521548,-0.02,-3.83,8.96,0.4211111111111111,0.3,-0.6444444444444445,0.0625,0.125,-0.0625
1589550246.5341053,0.0,-3.83,8.98,0.4211111111111111,0.3,-0.6444444444444445,-0.125,-0.25,-0.0625
1589550246.5444643,-0.03,-3.83,9.03,0.4211111111111111,0.3,-0.6444444444444445,0.0,0.0625,0.0
1589550246.5510435,-0.01,-3.81,9.04,0.4088888888888889,0.2877777777777778,-0.6311111111111111,-0.0625,0.0625,0.0
1589550246.5612085,-0.04,-3.84,9.0,0.4088888888888889,0.2877777777777778,-0.6311111111111111,-0.0625,-0.0625,-0.125
1589550246.5724947,-0.02,-3.84,8.93,0.4088888888888889,0.2877777777777778,-0.6311111111111111,-0.125,-0.3125,0.0
1589550246.585248,-0.01,-3.84,8.97,0.4088888888888889,0.2877777777777778,-0.6311111111111111,-0.1875,-0.25,-0.0625
1589550246.5942054,-0.02,-3.82,9.01,0.4088888888888889,0.2877777777777778,-0.6311111111111111,0.0625,-0.25,0.0
1589550246.6019092,-0.01,-3.84,9.04,0.42777777777777776,0.28,-0.64,-0.0625,-0.375,-0.0625
1589550246.611807,-0.01,-3.83,9.04,0.42777777777777776,0.28,-0.64,0.0625,-0.3125,-0.125
1589550246.6216586,-0.02,-3.84,8.96,0.42777777777777776,0.28,-0.64,0.25,-0.0625,-0.0625
1589550246.6332526,-0.02,-3.86,9.01,0.42777777777777776,0.28,-0.64,0.0625,-0.1875,-0.0625
1589550246.644379,-0.03,-3.83,9.05,0.42777777777777776,0.28,-0.64,-0.0625,0.0,0.0625
1589550246.657648,-0.02,-3.83,9.08,0.42777777777777776,0.2877777777777778,-0.6444444444444445,-0.125,-0.3125,0.0
1589550246.6643612,-0.01,-3.84,9.07,0.42777777777777776,0.2877777777777778,-0.6444444444444445,-0.0625,-0.375,0.0625
1589550246.6714985,-0.01,-3.82,8.92,0.42777777777777776,0.2877777777777778,-0.6444444444444445,-0.1875,-0.3125,0.0
1589550246.6843936,0.0,-3.83,9.01,0.42777777777777776,0.2877777777777778,-0.6444444444444445,-0.4375,-0.4375,-0.125
1589550246.6978538,0.0,-3.81,9.02,0.42777777777777776,0.2877777777777778,-0.6444444444444445,-0.5,-0.5,-0.0625
1589550246.7045212,0.0,-3.82,9.03,0.4011111111111111,0.2933333333333333,-0.6177777777777778,-0.8125,-0.5625,-0.0625
1589550246.7160592,-0.02,-3.82,9.02,0.4011111111111111,0.2933333333333333,-0.6177777777777778,-0.75,-0.875,-0.0625
1589550246.7219713,-0.04,-3.84,8.92,0.4011111111111111,0.2933333333333333,-0.6177777777777778,-1.0,-1.125,-0.1875
1589550246.7361405,-0.02,-3.84,8.95,0.4011111111111111,0.2933333333333333,-0.6177777777777778,-1.1875,-1.3125,-0.1875
1589550246.7448466,0.02,-3.78,8.99,0.4011111111111111,0.2933333333333333,-0.6177777777777778,-1.5,-1.8125,-0.25
1589550246.7561314,0.08,-3.63,9.11,0.4011111111111111,0.2877777777777778,-0.64,-2.3125,-2.875,-0.5625
1589550246.7623534,-0.16,-2.95,9.06,0.4011111111111111,0.2877777777777778,-0.64,-2.625,-3.375,-2.125
1589550246.7720995,-0.29,-3.44,8.7,0.4011111111111111,0.2877777777777778,-0.64,-2.6875,-2.4375,-3.8125
1589550246.782187,-0.47,-2.98,8.84,0.4011111111111111,0.2877777777777778,-0.64,-1.625,0.0625,-2.1875
1589550246.7945025,-0.34,-2.96,9.39,0.4011111111111111,0.2877777777777778,-0.64,-3.3125,-3.625,1.3125
1589550246.8028922,-0.39,-2.83,9.06,0.3888888888888889,0.3055555555555556,-0.6311111111111111,-3.3125,-2.6875,5.625
1589550246.8145347,-0.22,-2.6,9.13,0.3888888888888889,0.3055555555555556,-0.6311111111111111,-3.75,-2.6875,10.625
1589550246.8234437,-0.24,-1.98,9.24,0.3888888888888889,0.3055555555555556,-0.6311111111111111,-5.25,-4.375,14.8125
1589550246.8356428,-0.38,-2.18,9.46,0.3888888888888889,0.3055555555555556,-0.6311111111111111,-2.4375,-2.25,22.125
1589550246.850519,-0.39,-2.28,8.83,0.3888888888888889,0.3055555555555556,-0.6311111111111111,5.6875,3.1875,33.6875
1589550246.856549,-0.28,-2.44,9.16,0.4155555555555556,0.2933333333333333,-0.6177777777777778,3.25,0.375,44.75
1589550246.8671713,-0.28,-2.52,9.41,0.4155555555555556,0.2933333333333333,-0.6177777777777778,-2.6875,-5.25,52.1875
1589550246.8737752,-0.31,-2.53,9.11,0.4155555555555556,0.2933333333333333,-0.6177777777777778,0.1875,-2.8125,59.125
1589550246.8880455,-0.34,-2.66,9.04,0.4155555555555556,0.2933333333333333,-0.6177777777777778,2.0625,-1.25,66.0
1589550246.8960936,-0.32,-2.76,9.32,0.4155555555555556,0.2933333333333333,-0.6177777777777778,0.25,-3.5,72.0
1589550246.9036407,-0.32,-2.66,9.04,0.4011111111111111,0.2877777777777778,-0.6311111111111111,0.25,-3.5625,77.625
1589550246.913236,-0.32,-2.76,9.1,0.4011111111111111,0.2877777777777778,-0.6311111111111111,0.9375,-3.625,81.75
1589550246.9239073,-0.36,-2.77,8.89,0.4011111111111111,0.2877777777777778,-0.6311111111111111,0.0,-4.5625,85.1875
1589550246.9344695,-0.41,-2.91,9.05,0.4011111111111111,0.2877777777777778,-0.6311111111111111,-0.25,-4.375,88.1875
1589550246.9469926,-0.42,-2.87,8.99,0.4011111111111111,0.2877777777777778,-0.6311111111111111,0.1875,-4.375,91.4375
1589550246.9533415,-0.45,-2.88,9.13,0.4477777777777778,0.2611111111111111,-0.6322222222222222,0.75,-4.25,94.25
1589550246.9641552,-0.52,-2.91,9.01,0.4477777777777778,0.2611111111111111,-0.6322222222222222,0.8125,-4.5,96.5625
1589550246.974541,-0.5,-2.87,8.98,0.4477777777777778,0.2611111111111111,-0.6322222222222222,1.0,-4.1875,98.8125
1589550246.9864671,-0.52,-2.89,9.02,0.4477777777777778,0.2611111111111111,-0.6322222222222222,0.8125,-4.6875,100.875
1589550247.0022635,-0.63,-2.91,9.1,0.4477777777777778,0.2611111111111111,-0.6322222222222222,0.9375,-4.5625,102.125
1589550247.0079074,-0.6,-2.76,9.12,0.4666666666666667,0.24,-0.6611111111111111,1.125,-4.4375,103.75
1589550247.0154696,-0.61,-2.71,9.18,0.4666666666666667,0.24,-0.6611111111111111,0.75,-4.8125,104.625
1589550247.025702,-0.62,-2.74,8.97,0.4666666666666667,0.24,-0.6611111111111111,0.5625,-4.8125,105.3125
1589550247.0394769,-0.59,-2.61,9.06,0.4666666666666667,0.24,-0.6611111111111111,0.1875,-5.875,104.625
1589550247.0474432,-0.64,-2.59,9.1,0.4666666666666667,0.24,-0.6611111111111111,0.0625,-5.375,103.1875
1589550247.0538785,-0.58,-2.45,9.03,0.4811111111111111,0.17777777777777778,-0.6666666666666666,0.3125,-5.4375,101.8125
1589550247.0658164,-0.68,-2.53,9.19,0.4811111111111111,0.17777777777777778,-0.6666666666666666,0.375,-5.4375,99.6875
1589550247.0747375,-0.78,-2.64,9.09,0.4811111111111111,0.17777777777777778,-0.6666666666666666,0.1875,-5.1875,97.0625
1589550247.0849226,-0.82,-2.54,8.9,0.4811111111111111,0.17777777777777778,-0.6666666666666666,1.375,-3.375,95.3125
1589550247.0980275,-0.83,-2.53,9.12,0.4811111111111111,0.17777777777777778,-0.6666666666666666,1.5625,-3.3125,93.625
1589550247.103551,-0.98,-2.55,9.21,0.5022222222222222,0.15555555555555556,-0.6522222222222223,0.5625,-3.9375,92.4375
1589550247.1158712,-1.04,-2.55,9.12,0.5022222222222222,0.15555555555555556,-0.6522222222222223,1.1875,-3.5625,91.625
1589550247.1235929,-1.06,-2.52,9.05,0.5022222222222222,0.15555555555555556,-0.6522222222222223,1.125,-3.5,91.5625
1589550247.1354074,-1.13,-2.59,9.26,0.5022222222222222,0.15555555555555556,-0.6522222222222223,0.4375,-4.0625,92.0
1589550247.1473894,-1.0,-2.38,8.98,0.5022222222222222,0.15555555555555556,-0.6522222222222223,-0.3125,-3.9375,91.8125
1589550247.158601,-0.97,-2.28,8.83,0.4933333333333334,0.11666666666666667,-0.6666666666666666,-0.75,-3.125,90.75
1589550247.165609,-1.07,-2.36,9.05,0.4933333333333334,0.11666666666666667,-0.6666666666666666,-0.1875,-6.1875,87.75
1589550247.174197,-1.39,-2.48,8.51,0.4933333333333334,0.11666666666666667,-0.6666666666666666,1.625,-6.25,85.0625
1589550247.1901126,-1.31,-2.38,8.84,0.4933333333333334,0.11666666666666667,-0.6666666666666666,0.4375,-2.875,82.5625
1589550247.1974974,-1.35,-2.48,9.64,0.4933333333333334,0.11666666666666667,-0.6666666666666666,-2.25,-7.375,81.3125
1589550247.2046516,-1.38,-2.55,8.82,0.4933333333333334,0.06555555555555556,-0.6733333333333333,0.625,-4.4375,81.1875
1589550247.2160327,-1.45,-2.62,9.21,0.4933333333333334,0.06555555555555556,-0.6733333333333333,2.25,-1.75,80.75
1589550247.225738,-1.46,-2.6,9.23,0.4933333333333334,0.06555555555555556,-0.6733333333333333,0.25,-4.125,77.8125
1589550247.234329,-1.4,-2.44,8.9,0.4933333333333334,0.06555555555555556,-0.6733333333333333,1.0,-3.125,75.5625
1589550247.2474213,-1.55,-2.61,9.37,0.4933333333333334,0.06555555555555556,-0.6733333333333333,0.75,-3.4375,72.9375
1589550247.2546725,-1.45,-2.48,8.99,0.52,0.045555555555555564,-0.7288888888888889,-0.125,-3.8125,70.125
1589550247.2695215,-1.54,-2.61,9.13,0.52,0.045555555555555564,-0.7288888888888889,0.875,-2.4375,68.1875
1589550247.2756126,-1.5,-2.53,8.99,0.52,0.045555555555555564,-0.7288888888888889,0.25,-3.375,65.375
1589550247.2871509,-1.63,-2.64,9.24,0.52,0.045555555555555564,-0.7288888888888889,-0.3125,-3.875,62.125
1589550247.297459,-1.62,-2.61,9.17,0.52,0.045555555555555564,-0.7288888888888889,0.375,-3.0625,59.875
1589550247.3088062,-1.55,-2.49,8.9,0.5011111111111111,0.021111111111111112,-0.7233333333333334,1.375,-1.0,57.75
1589550247.3172753,-1.66,-2.56,9.13,0.5011111111111111,0.021111111111111112,-0.7233333333333334,1.1875,-1.75,54.0
1589550247.3262296,-1.6,-2.45,9.06,0.5011111111111111,0.021111111111111112,-0.7233333333333334,0.125,-3.0,49.6875
1589550247.3415716,-1.39,-2.27,9.1,0.5011111111111111,0.021111111111111112,-0.7233333333333334,0.0,-2.4375,46.3125
1589550247.3479855,-1.6,-2.46,9.18,0.5011111111111111,0.021111111111111112,-0.7233333333333334,0.6875,-2.125,43.125
1589550247.3552418,-1.57,-2.28,9.0,0.5011111111111111,-0.006666666666666667,-0.7588888888888888,-0.8125,-1.6875,35.5625
1589550247.3669028,-1.54,-2.34,9.34,0.5011111111111111,-0.006666666666666667,-0.7588888888888888,-0.8125,-1.6875,35.5625
1589550247.3758776,-1.56,-2.31,9.19,0.5011111111111111,-0.006666666666666667,-0.7588888888888888,0.0,-2.25,32.0
1589550247.3861165,-1.6,-2.36,9.23,0.5011111111111111,-0.006666666666666667,-0.7588888888888888,-0.6875,-1.5,21.5
1589550247.401275,-1.65,-2.36,9.3,0.5011111111111111,-0.006666666666666667,-0.7588888888888888,-0.5,-0.5625,15.0
1589550247.4069905,-1.72,-2.33,9.04,0.5011111111111111,-0.03333333333333333,-0.75,0.5,1.125,9.5
1589550247.4197974,-2.06,-2.53,9.2,0.5011111111111111,-0.03333333333333333,-0.75,0.125,0.9375,5.4375
1589550247.4255052,-1.64,-2.16,8.99,0.5011111111111111,-0.03333333333333333,-0.75,-0.0625,0.75,3.0
1589550247.43902,-1.65,-2.18,9.26,0.5011111111111111,-0.03333333333333333,-0.75,0.0625,0.9375,0.0625
1589550247.4479873,-1.93,-2.3,8.89,0.5011111111111111,-0.03333333333333333,-0.75,-0.75,0.5625,-2.4375
1589550247.4559064,-1.96,-2.37,9.31,0.4866666666666667,-0.06555555555555556,-0.7777777777777778,-0.9375,0.25,-3.5625
1589550247.4671984,-1.89,-2.28,8.95,0.4866666666666667,-0.06555555555555556,-0.7777777777777778,-0.25,1.6875,-4.3125
1589550247.4770367,-2.0,-2.37,9.07,0.4866666666666667,-0.06555555555555556,-0.7777777777777778,-1.125,1.0625,-5.25
1589550247.4866722,-2.02,-2.41,9.11,0.4866666666666667,-0.06555555555555556,-0.7777777777777778,-1.125,1.625,-5.875
1589550247.4989266,-1.96,-2.3,9.15,0.4866666666666667,-0.06555555555555556,-0.7777777777777778,-0.625,1.625,-7.3125
1589550247.5061002,-1.98,-2.35,9.17,0.4933333333333334,-0.10444444444444444,-0.7644444444444445,-1.1875,1.75,-8.6875
1589550247.5176961,-1.87,-2.29,9.07,0.4933333333333334,-0.10444444444444444,-0.7644444444444445,-1.1875,1.9375,-9.625
1589550247.5279176,-1.97,-2.4,9.06,0.4933333333333334,-0.10444444444444444,-0.7644444444444445,-0.875,1.9375,-10.625
1589550247.5393806,-2.06,-2.46,9.14,0.4933333333333334,-0.10444444444444444,-0.7644444444444445,-0.8125,2.5,-11.6875
1589550247.5496447,-2.07,-2.45,9.13,0.4933333333333334,-0.10444444444444444,-0.7644444444444445,-0.625,3.1875,-12.875
1589550247.558827,-2.01,-2.43,9.01,0.5022222222222222,-0.11,-0.7711111111111111,-0.8125,2.125,-13.8125
1589550247.5690842,-2.09,-2.5,8.89,0.5022222222222222,-0.11,-0.7711111111111111,-1.25,1.3125,-15.1875
1589550247.5772364,-1.99,-2.49,9.31,0.5022222222222222,-0.11,-0.7711111111111111,-2.4375,-0.625,-16.625
1589550247.5905895,-2.02,-2.53,9.09,0.5022222222222222,-0.11,-0.7711111111111111,-1.0625,2.0,-16.625
1589550247.5996215,-1.98,-2.53,8.95,0.5022222222222222,-0.11,-0.7711111111111111,-0.75,1.4375,-18.25
1589550247.6104708,-1.87,-2.59,9.03,0.4444444444444444,-0.16111111111111112,-0.7644444444444445,-0.6875,2.0625,-21.0625
1589550247.617225,-1.88,-2.62,8.99,0.4444444444444444,-0.16111111111111112,-0.7644444444444445,-0.8125,1.8125,-24.1875
1589550247.6275373,-1.76,-2.54,8.98,0.4444444444444444,-0.16111111111111112,-0.7644444444444445,-1.125,0.8125,-27.625
1589550247.638564,-1.83,-2.55,9.24,0.4444444444444444,-0.16111111111111112,-0.7644444444444445,-1.375,0.3125,-30.5
1589550247.6498713,-1.73,-2.53,8.96,0.4444444444444444,-0.16111111111111112,-0.7644444444444445,-0.9375,1.3125,-32.125
1589550247.6574626,-2.02,-2.77,9.4,0.4188888888888889,-0.16111111111111112,-0.6877777777777778,-1.0625,1.4375,-34.3125
1589550247.6692994,-1.94,-2.71,9.18,0.4188888888888889,-0.16111111111111112,-0.6877777777777778,0.5625,3.0625,-35.5625
1589550247.6783278,-1.82,-2.68,8.87,0.4188888888888889,-0.16111111111111112,-0.6877777777777778,0.3125,2.25,-38.125
1589550247.6898491,-1.97,-2.79,9.14,0.4188888888888889,-0.16111111111111112,-0.6877777777777778,-1.5,0.75,-40.625
1589550247.7045712,-1.98,-2.76,9.16,0.4188888888888889,-0.16111111111111112,-0.6877777777777778,-1.0625,1.4375,-41.75
1589550247.7110293,-1.9,-2.77,9.21,0.44,-0.11666666666666667,-0.6522222222222223,-0.25,1.125,-42.25
1589550247.7226086,-1.98,-2.85,9.23,0.44,-0.11666666666666667,-0.6522222222222223,-0.4375,1.625,-43.125
1589550247.7283785,-1.91,-2.78,8.75,0.44,-0.11666666666666667,-0.6522222222222223,0.0,2.5,-43.375
1589550247.7421448,-1.9,-2.81,9.09,0.44,-0.11666666666666667,-0.6522222222222223,-0.5625,1.0,-43.875
1589550247.7508318,-1.93,-2.93,9.22,0.44,-0.11666666666666667,-0.6522222222222223,-0.4375,1.0625,-44.25
1589550247.7615194,-1.92,-2.86,9.01,0.4866666666666667,-0.05111111111111112,-0.64,-0.25,2.25,-44.0625
1589550247.7676394,-2.03,-2.99,9.4,0.4866666666666667,-0.05111111111111112,-0.64,-0.0625,1.75,-43.875
1589550247.7814233,-1.82,-2.81,8.97,0.4866666666666667,-0.05111111111111112,-0.64,1.3125,4.0,-43.1875
1589550247.7883215,-1.85,-2.89,9.21,0.4866666666666667,-0.05111111111111112,-0.64,0.25,1.4375,-43.5625
1589550247.8004234,-1.77,-2.81,8.81,0.4866666666666667,-0.05111111111111112,-0.64,-1.4375,0.3125,-43.625
1589550247.8078318,-1.75,-2.85,9.46,0.4988888888888889,-0.017777777777777778,-0.6255555555555555,-1.4375,-0.9375,-43.5
1589550247.819541,-1.75,-2.76,8.92,0.4988888888888889,-0.017777777777777778,-0.6255555555555555,0.1875,1.3125,-42.3125
1589550247.8290222,-1.69,-2.71,8.96,0.4988888888888889,-0.017777777777777778,-0.6255555555555555,0.0625,0.875,-40.8125
1589550247.8388214,-1.65,-2.75,9.18,0.4988888888888889,-0.017777777777777778,-0.6255555555555555,-0.3125,0.5,-38.75
1589550247.8518574,-1.73,-2.83,9.02,0.4988888888888889,-0.017777777777777778,-0.6255555555555555,-0.125,1.0,-37.0625
1589550247.8591366,-1.61,-2.76,9.21,0.4988888888888889,0.006666666666666667,-0.6444444444444445,0.6875,0.875,-36.0
1589550247.8736439,-1.49,-2.7,8.99,0.4988888888888889,0.006666666666666667,-0.6444444444444445,1.0,1.5625,-35.3125
1589550247.879657,-1.68,-2.91,9.17,0.4988888888888889,0.006666666666666667,-0.6444444444444445,0.3125,1.0,-35.4375
1589550247.8938901,-1.5,-2.69,8.92,0.4988888888888889,0.006666666666666667,-0.6444444444444445,1.0625,2.0,-34.875
1589550247.9011455,-1.33,-2.61,9.08,0.4988888888888889,0.006666666666666667,-0.6444444444444445,0.6875,1.5,-34.4375
1589550247.9127126,-1.4,-2.76,9.26,0.5188888888888888,0.05333333333333334,-0.6311111111111111,-0.375,0.3125,-34.4375
1589550247.9200294,-1.41,-2.68,9.03,0.5188888888888888,0.05333333333333334,-0.6311111111111111,-0.0625,0.75,-34.125
1589550247.93322,-1.57,-2.96,8.82,0.5188888888888888,0.05333333333333334,-0.6311111111111111,0.625,1.8125,-33.4375
1589550247.9390216,-1.44,-2.91,8.99,0.5188888888888888,0.05333333333333334,-0.6311111111111111,0.75,2.1875,-33.0625
1589550247.95012,-1.5,-3.02,9.39,0.5188888888888888,0.05333333333333334,-0.6311111111111111,0.4375,1.5625,-34.0
1589550247.9575222,-1.53,-3.06,8.83,0.5255555555555556,0.057777777777777775,-0.6444444444444445,0.9375,2.6875,-34.75
1589550247.9688632,-1.53,-3.06,8.83,0.5255555555555556,0.057777777777777775,-0.6444444444444445,0.9375,2.6875,-34.75
1589550247.9783757,-1.49,-3.05,8.93,0.5255555555555556,0.057777777777777775,-0.6444444444444445,1.125,3.0625,-36.75
1589550247.9884207,-1.31,-2.86,8.37,0.5255555555555556,0.057777777777777775,-0.6444444444444445,0.8125,2.375,-37.8125
1589550248.0005748,-1.46,-3.14,9.61,0.5255555555555556,0.057777777777777775,-0.6444444444444445,-2.5,-2.75,-40.3125
1589550248.010751,-1.45,-3.01,9.04,0.5255555555555556,0.057777777777777775,-0.68,-0.5625,0.8125,-40.8125
1589550248.0202286,-1.27,-2.77,8.84,0.5255555555555556,0.057777777777777775,-0.68,0.75,2.1875,-40.5
1589550248.0291002,-1.29,-2.78,9.09,0.5255555555555556,0.057777777777777775,-0.68,-0.625,0.6875,-40.1875
1589550248.0395186,-0.88,-2.6,8.72,0.5255555555555556,0.057777777777777775,-0.68,0.6875,2.8125,-38.5
1589550248.0507047,-0.72,-2.34,8.95,0.5255555555555556,0.057777777777777775,-0.68,-0.375,1.5625,-42.6875
1589550248.0590827,-0.68,-2.69,9.37,0.5988888888888889,0.045555555555555564,-0.6444444444444445,-0.75,-0.125,-49.25
1589550248.068701,-0.9,-2.6,8.87,0.5988888888888889,0.045555555555555564,-0.6444444444444445,-0.0625,3.0,-54.125
1589550248.0819461,-0.97,-2.72,9.02,0.5988888888888889,0.045555555555555564,-0.6444444444444445,0.5,3.6875,-57.0
1589550248.0900002,-1.08,-2.81,9.11,0.5988888888888889,0.045555555555555564,-0.6444444444444445,-2.25,2.1875,-59.4375
1589550248.102183,-1.11,-2.83,9.23,0.5988888888888889,0.045555555555555564,-0.6444444444444445,0.5,3.125,-59.0
1589550248.1097314,-1.09,-2.86,8.85,0.8477777777777777,-0.12,-0.6255555555555555,2.25,4.125,-56.6875
1589550248.1227615,-0.87,-2.68,9.12,0.8477777777777777,-0.12,-0.6255555555555555,-1.3125,1.5,-55.625
1589550248.1301134,-0.93,-2.74,9.07,0.8477777777777777,-0.12,-0.6255555555555555,-1.0625,1.0625,-56.1875
1589550248.1400447,-1.16,-3.14,9.51,0.8477777777777777,-0.12,-0.6255555555555555,-1.125,0.5625,-56.0
1589550248.1523519,-1.24,-3.15,8.96,0.8477777777777777,-0.12,-0.6255555555555555,-1.6875,1.5625,-54.25
1589550248.1628141,-1.04,-2.83,8.91,1.5533333333333332,-0.22333333333333333,-0.3588888888888889,-0.1875,2.1875,-51.0625
1589550248.1692364,-1.02,-2.79,9.7,1.5533333333333332,-0.22333333333333333,-0.3588888888888889,0.375,2.375,-48.1875
1589550248.1793606,-1.02,-2.79,9.7,1.5533333333333332,-0.22333333333333333,-0.3588888888888889,0.375,2.375,-48.1875
1589550248.1846116,-1.11,-3.16,8.55,1.5533333333333332,-0.22333333333333333,-0.3588888888888889,2.0625,4.5625,-43.4375
1589550248.1924198,-0.95,-2.83,9.17,1.5533333333333332,-0.22333333333333333,-0.3588888888888889,-1.6875,-0.0625,-39.625
1589550248.2040238,-0.88,-2.71,9.49,1.5533333333333332,-0.22333333333333333,-0.3588888888888889,-2.0,-1.125,-34.6875
1589550248.2104518,-0.97,-3.17,9.15,0.9022222222222224,0.10444444444444444,-0.6877777777777778,1.3125,2.4375,-28.8125
1589550248.2202432,-0.76,-2.97,9.05,0.9022222222222224,0.10444444444444444,-0.6877777777777778,0.75,1.5,-23.625
1589550248.2365193,-0.71,-2.95,8.93,0.9022222222222224,0.10444444444444444,-0.6877777777777778,0.3125,1.0,-20.0
1589550248.2427945,-0.75,-3.1,9.09,0.9022222222222224,0.10444444444444444,-0.6877777777777778,-0.5625,0.3125,-18.3125
1589550248.2553847,-0.61,-3.1,9.32,0.9022222222222224,0.10444444444444444,-0.6877777777777778,-0.125,-0.3125,-16.6875
1589550248.2615387,-0.75,-3.16,8.92,0.62,0.17,-0.7088888888888889,0.1875,0.3125,-14.875
1589550248.274455,-0.87,-3.44,9.2,0.62,0.17,-0.7088888888888889,-0.1875,0.3125,-12.5625
1589550248.2813382,-0.91,-3.55,9.07,0.62,0.17,-0.7088888888888889,-0.5625,-0.1875,-9.125
1589550248.2945359,-0.78,-3.57,9.06,0.62,0.17,-0.7088888888888889,0.3125,-0.125,-1.25
1589550248.3026776,-0.3,-2.57,8.93,0.62,0.17,-0.7088888888888889,0.1875,-1.0625,8.9375
1589550248.3141375,-0.48,-2.5,9.35,0.5544444444444444,0.23222222222222225,-0.7211111111111111,-0.25,-1.625,7.375
1589550248.3203616,-1.0,-3.41,8.75,0.5544444444444444,0.23222222222222225,-0.7211111111111111,-0.5625,-0.3125,2.0625
1589550248.3302748,-0.93,-3.27,9.18,0.5544444444444444,0.23222222222222225,-0.7211111111111111,0.3125,0.0625,6.75
1589550248.3367634,-0.93,-3.27,9.18,0.5544444444444444,0.23222222222222225,-0.7211111111111111,0.3125,0.0625,6.75
1589550248.3491616,-1.27,-3.71,9.32,0.5544444444444444,0.23222222222222225,-0.7211111111111111,0.6875,-1.25,10.3125
1589550248.3559785,-0.6,-2.82,8.44,0.5544444444444444,0.23222222222222225,-0.7211111111111111,2.0,1.625,18.875
1589550248.3620706,-0.83,-2.87,9.49,0.5288888888888889,0.20777777777777776,-0.7066666666666667,-1.5,-3.9375,18.75
1589550248.3741286,-0.92,-3.03,8.94,0.5288888888888889,0.20777777777777776,-0.7066666666666667,0.0,-2.1875,18.625
1589550248.3865128,-0.96,-2.96,9.11,0.5288888888888889,0.20777777777777776,-0.7066666666666667,0.5,-1.0625,20.5625
1589550248.3925169,-0.94,-2.64,7.92,0.5288888888888889,0.20777777777777776,-0.7066666666666667,1.6875,0.9375,23.125
1589550248.4072616,-0.8,-2.59,9.16,0.5288888888888889,0.20777777777777776,-0.7066666666666667,1.9375,0.4375,27.75
1589550248.4125402,-0.95,-2.85,10.23,0.5366666666666666,0.19111111111111112,-0.7477777777777778,-3.25,-8.5,30.0
1589550248.4259202,-1.07,-2.77,8.39,0.5366666666666666,0.19111111111111112,-0.7477777777777778,1.125,-0.6875,34.75
1589550248.4318225,-1.08,-3.27,9.2,0.5366666666666666,0.19111111111111112,-0.7477777777777778,1.6875,-2.3125,40.4375
1589550248.442257,-1.07,-3.35,9.52,0.5366666666666666,0.19111111111111112,-0.7477777777777778,-0.625,-3.5625,46.625
1589550248.4528267,-29.15,-30.52,12.6,0.5366666666666666,0.19111111111111112,-0.7477777777777778,-1.0,10.8125,51.1875
1589550248.464585,1.11,5.22,-7.11,0.4922222222222222,0.17,-0.6855555555555556,-51.25,17.125,-261.6875
1589550248.471542,-0.11,-2.21,8.91,0.4922222222222222,0.17,-0.6855555555555556,-118.0625,-74.9375,-503.25
1589550248.4815662,-3.33,-2.45,11.3,0.4922222222222222,0.17,-0.6855555555555556,-26.375,67.8125,-365.6875
1589550248.4924402,-0.24,-1.76,7.02,0.4922222222222222,0.17,-0.6855555555555556,50.3125,49.9375,-325.6875
1589550248.5042126,-2.51,1.38,4.21,0.4922222222222222,0.17,-0.6855555555555556,114.9375,33.5,-296.5
1589550248.5108228,-0.2,-1.0,7.47,0.4722222222222222,0.2966666666666667,-0.7,42.0625,42.8125,-250.1875
1589550248.521318,1.47,-1.58,13.04,0.4722222222222222,0.2966666666666667,-0.7,-47.3125,-20.875,-189.875
1589550248.5269887,1.47,-1.58,13.04,0.4722222222222222,0.2966666666666667,-0.7,-47.3125,-20.875,-189.875
1589550248.534129,0.53,-0.98,8.98,0.4722222222222222,0.2966666666666667,-0.7,3.25,6.3125,-166.5625
1589550248.542754,0.73,-1.92,9.21,0.4722222222222222,0.2966666666666667,-0.7,12.125,17.8125,-146.125
1589550248.5582154,0.65,-2.23,10.35,0.4722222222222222,0.2966666666666667,-0.7,-8.5,-1.625,-117.3125
1589550248.5640435,0.27,-2.15,8.6,0.4066666666666667,0.3688888888888889,-0.6933333333333334,-1.5,5.75,-90.75
1589550248.5724936,0.15,-2.42,9.31,0.4066666666666667,0.3688888888888889,-0.6933333333333334,2.1875,5.875,-66.0
1589550248.58425,0.25,-2.41,8.83,0.4066666666666667,0.3688888888888889,-0.6933333333333334,-3.3125,0.25,-39.375
1589550248.5918288,0.3,-2.58,9.21,0.4066666666666667,0.3688888888888889,-0.6933333333333334,-0.75,0.8125,-17.4375
1589550248.603956,-0.93,-7.99,9.11,0.4066666666666667,0.3688888888888889,-0.6933333333333334,3.125,2.375,-0.25
1589550248.6156359,1.1,1.02,5.21,0.3955555555555556,0.4066666666666667,-0.68,0.4375,6.125,57.25
1589550248.6223314,1.66,-1.01,11.08,0.3955555555555556,0.4066666666666667,-0.68,2.875,-4.0,141.25
1589550248.6355646,1.45,-1.87,10.64,0.3955555555555556,0.4066666666666667,-0.68,2.9375,-18.625,131.0625
1589550248.6424267,0.85,-1.96,9.4,0.3955555555555556,0.4066666666666667,-0.68,1.375,2.25,114.3125
1589550248.6539428,-1.48,-10.94,11.08,0.3955555555555556,0.4066666666666667,-0.68,-0.375,-9.5,102.9375
1589550248.6619248,0.65,-2.28,6.2,0.3911111111111111,0.4011111111111111,-0.6944444444444444,2.1875,-0.4375,108.9375
1589550248.6724901,9.95,-14.58,7.71,0.3911111111111111,0.4011111111111111,-0.6944444444444444,1.125,-8.5625,122.9375
1589550248.6834874,0.33,-6.03,6.88,0.3911111111111111,0.4011111111111111,-0.6944444444444444,-6.3125,-8.875,52.375
1589550248.6928515,-0.58,-2.7,8.94,0.3911111111111111,0.4011111111111111,-0.6944444444444444,10.8125,12.875,28.5625
1589550248.7103925,0.11,-3.74,9.21,0.3911111111111111,0.4011111111111111,-0.6944444444444444,-1.375,-2.25,10.625
1589550248.716132,0.26,-4.06,9.24,0.4177777777777778,0.3644444444444445,-0.6733333333333333,-2.1875,-4.4375,0.625
1589550248.7230518,0.0,-3.86,9.01,0.4177777777777778,0.3644444444444445,-0.6733333333333333,1.125,0.75,-0.1875
1589550248.7355301,0.12,-3.87,8.86,0.4177777777777778,0.3644444444444445,-0.6733333333333333,-0.0625,0.4375,-0.1875
1589550248.743312,0.13,-3.98,8.99,0.4177777777777778,0.3644444444444445,-0.6733333333333333,-1.3125,-0.625,-0.0625
1589550248.7561743,0.07,-3.82,9.01,0.4177777777777778,0.3644444444444445,-0.6733333333333333,0.625,0.25,-0.125
1589550248.7687795,0.08,-3.81,9.12,0.4444444444444444,0.3588888888888889,-0.6944444444444444,1.125,0.875,-0.1875
1589550248.7746403,0.08,-3.84,9.04,0.4444444444444444,0.3588888888888889,-0.6944444444444444,0.375,0.125,0.0
1589550248.7888875,0.11,-3.87,8.98,0.4444444444444444,0.3588888888888889,-0.6944444444444444,-0.6875,-0.125,0.0
1589550248.795827,0.09,-3.9,8.93,0.4444444444444444,0.3588888888888889,-0.6944444444444444,-0.625,-0.3125,-0.1875
1589550248.807152,0.1,-3.86,9.01,0.4444444444444444,0.3588888888888889,-0.6944444444444444,0.125,0.125,-0.125
1589550248.8135526,0.08,-3.81,9.03,0.43,0.3655555555555556,-0.7022222222222222,0.75,0.0625,-0.0625
1589550248.8255146,0.09,-3.85,9.0,0.43,0.3655555555555556,-0.7022222222222222,0.5625,0.0,0.0
1589550248.8342745,0.1,-3.86,8.86,0.43,0.3655555555555556,-0.7022222222222222,-0.3125,0.1875,-0.125
1589550248.847509,0.11,-3.92,8.97,0.43,0.3655555555555556,-0.7022222222222222,-0.5,-0.125,0.0
1589550248.856246,0.1,-3.86,8.95,0.43,0.3655555555555556,-0.7022222222222222,-0.0625,-0.0625,-0.125
1589550248.8646252,0.1,-3.83,9.05,0.43666666666666665,0.3711111111111111,-0.6733333333333333,0.6875,0.1875,0.0625
1589550248.8745332,0.08,-3.8,9.05,0.43666666666666665,0.3711111111111111,-0.6733333333333333,0.6875,0.5,-0.125
1589550248.8840046,0.09,-3.85,8.92,0.43666666666666665,0.3711111111111111,-0.6733333333333333,0.0625,0.25,0.0
1589550248.8953645,0.1,-3.89,8.95,0.43666666666666665,0.3711111111111111,-0.6733333333333333,-0.75,-0.3125,0.0
1589550248.9068403,0.08,-3.9,9.0,0.43666666666666665,0.3711111111111111,-0.6733333333333333,-0.5,-0.1875,-0.0625
1589550248.9201715,0.1,-3.82,9.03,0.4177777777777778,0.3711111111111111,-0.7022222222222222,0.375,-0.0625,0.0
1589550248.927655,0.1,-3.84,9.07,0.4177777777777778,0.3711111111111111,-0.7022222222222222,0.625,0.1875,-0.125
1589550248.939494,0.09,-3.85,8.94,0.4177777777777778,0.3711111111111111,-0.7022222222222222,0.125,0.0,-0.0625
1589550248.9462314,0.08,-3.88,8.92,0.4177777777777778,0.3711111111111111,-0.7022222222222222,-0.1875,-0.0625,-0.0625
1589550248.9578106,0.12,-3.89,8.96,0.4177777777777778,0.3711111111111111,-0.7022222222222222,-0.375,0.0,-0.0625
1589550248.9644904,0.1,-3.87,9.05,0.4177777777777778,0.3655555555555556,-0.68,0.6875,0.375,-0.0625
1589550248.9779627,0.08,-3.81,9.02,0.4177777777777778,0.3655555555555556,-0.68,0.5,0.3125,0.0
1589550248.9843748,0.08,-3.83,8.92,0.4177777777777778,0.3655555555555556,-0.68,-0.0625,0.1875,-0.0625
1589550248.9954202,0.08,-3.87,8.94,0.4177777777777778,0.3655555555555556,-0.68,-0.4375,-0.25,-0.0625
1589550249.0071473,0.09,-3.89,8.96,0.4177777777777778,0.3655555555555556,-0.68,-0.0625,0.0,-0.0625
1589550249.0175705,0.09,-3.86,9.02,0.4244444444444445,0.3588888888888889,-0.6877777777777778,0.5,-0.0625,-0.0625
1589550249.0255225,0.08,-3.82,9.04,0.4244444444444445,0.3588888888888889,-0.6877777777777778,0.4375,0.125,0.0
1589550249.0374765,0.08,-3.84,8.99,0.4244444444444445,0.3588888888888889,-0.6877777777777778,-0.0625,0.0625,-0.0625
1589550249.0455544,0.08,-3.88,8.95,0.4244444444444445,0.3588888888888889,-0.6877777777777778,-0.3125,0.25,-0.1875
1589550249.0571892,0.09,-3.9,8.98,0.4244444444444445,0.3588888888888889,-0.6877777777777778,-0.125,0.125,0.0
1589550249.064812,0.08,-3.9,9.0,0.4244444444444445,0.3533333333333333,-0.6666666666666666,0.5625,0.0625,0.125
1589550249.0769932,0.09,-3.85,9.02,0.4244444444444445,0.3533333333333333,-0.6666666666666666,0.75,0.1875,0.0
1589550249.0904555,0.08,-3.82,8.93,0.4244444444444445,0.3533333333333333,-0.6666666666666666,0.0625,-0.125,-0.0625
1589550249.0963087,0.11,-3.86,8.98,0.4244444444444445,0.3533333333333333,-0.6666666666666666,-0.4375,-0.1875,-0.125
1589550249.1122248,0.09,-3.87,8.95,0.4244444444444445,0.3533333333333333,-0.6666666666666666,-0.4375,-0.0625,-0.0625
1589550249.118274,0.1,-3.88,9.03,0.43,0.3588888888888889,-0.6944444444444444,0.125,0.0,0.0
1589550249.1290982,0.08,-3.84,9.01,0.43,0.3588888888888889,-0.6944444444444444,0.5,0.1875,0.0625
1589550249.1361842,0.08,-3.83,8.92,0.43,0.3588888888888889,-0.6944444444444444,0.25,0.125,-0.0625
1589550249.1475515,0.1,-3.86,8.98,0.43,0.3588888888888889,-0.6944444444444444,-0.3125,0.0625,-0.0625
1589550249.1576836,0.1,-3.89,8.99,0.43,0.3588888888888889,-0.6944444444444444,-0.125,0.0,-0.0625
1589550249.1661227,0.09,-3.89,8.98,0.41,0.3711111111111111,-0.7022222222222222,0.25,0.125,0.0
1589550249.1753507,0.1,-3.87,9.03,0.41,0.3711111111111111,-0.7022222222222222,0.6875,-0.0625,0.0
1589550249.185695,0.09,-3.83,8.93,0.41,0.3711111111111111,-0.7022222222222222,0.5625,0.125,0.0
1589550249.1964242,0.07,-3.84,8.99,0.41,0.3711111111111111,-0.7022222222222222,0.0,0.0,-0.125
1589550249.208202,0.09,-3.87,8.99,0.41,0.3711111111111111,-0.7022222222222222,-0.3125,0.0625,-0.125
1589550249.2160795,0.11,-3.9,9.0,0.4444444444444444,0.3655555555555556,-0.6944444444444444,-0.0625,0.0,-0.125
1589550249.2265058,0.09,-3.85,8.98,0.4444444444444444,0.3655555555555556,-0.6944444444444444,0.3125,0.0,0.0
1589550249.2357035,0.1,-3.84,8.93,0.4444444444444444,0.3655555555555556,-0.6944444444444444,0.25,0.125,-0.0625
1589550249.248394,0.08,-3.84,8.95,0.4444444444444444,0.3655555555555556,-0.6944444444444444,0.0625,0.0625,-0.0625
1589550249.262583,0.1,-3.86,9.0,0.4444444444444444,0.3655555555555556,-0.6944444444444444,-0.25,0.0,0.0625
1589550249.2686253,0.09,-3.88,9.02,0.4244444444444445,0.3655555555555556,-0.6877777777777778,-0.125,0.0,-0.0625
1589550249.2763312,0.08,-3.89,9.0,0.4244444444444445,0.3655555555555556,-0.6877777777777778,0.375,0.25,-0.125
1589550249.2875435,0.11,-3.86,8.94,0.4244444444444445,0.3655555555555556,-0.6877777777777778,0.5625,0.125,0.0
1589550249.3001478,0.08,-3.84,9.01,0.4244444444444445,0.3655555555555556,-0.6877777777777778,0.3125,0.125,-0.0625
1589550249.308767,0.09,-3.85,8.99,0.4244444444444445,0.3655555555555556,-0.6877777777777778,-0.25,0.0,-0.0625
1589550249.321439,0.09,-3.88,9.01,0.43,0.3588888888888889,-0.6944444444444444,-0.375,-0.125,0.0
1589550249.3272152,0.1,-3.86,8.95,0.43,0.3588888888888889,-0.6944444444444444,0.0,-0.125,-0.1875
1589550249.3363614,0.1,-3.87,8.91,0.43,0.3588888888888889,-0.6944444444444444,0.5,0.25,0.0
1589550249.3460753,0.07,-3.87,8.99,0.43,0.3588888888888889,-0.6944444444444444,0.125,0.125,0.0
1589550249.3598998,0.09,-3.85,9.01,0.43,0.3588888888888889,-0.6944444444444444,-0.1875,-0.0625,0.0
1589550249.3663487,0.11,-3.88,9.02,0.4244444444444445,0.3588888888888889,-0.6877777777777778,-0.1875,-0.0625,-0.0625
1589550249.3779151,0.1,-3.87,9.0,0.4244444444444445,0.3588888888888889,-0.6877777777777778,0.125,0.0625,0.125
1589550249.3866005,0.1,-3.87,8.91,0.4244444444444445,0.3588888888888889,-0.6877777777777778,0.4375,0.125,0.0625
1589550249.3977811,0.07,-3.85,9.03,0.4244444444444445,0.3588888888888889,-0.6877777777777778,0.4375,0.25,0.0
1589550249.4142904,0.1,-3.84,9.02,0.4244444444444445,0.3588888888888889,-0.6877777777777778,0.1875,0.0625,-0.25
1589550249.4202065,0.09,-3.88,9.01,0.4444444444444444,0.3588888888888889,-0.7022222222222222,-0.1875,0.0625,-0.1875
1589550249.4274967,0.09,-3.87,9.03,0.4444444444444444,0.3588888888888889,-0.7022222222222222,0.0,-0.0625,0.0
1589550249.436809,0.07,-3.86,8.91,0.4444444444444444,0.3588888888888889,-0.7022222222222222,0.3125,0.0625,0.0
1589550249.4526286,0.08,-3.84,8.99,0.4444444444444444,0.3588888888888889,-0.7022222222222222,0.3125,0.0625,-0.0625
1589550249.459448,0.1,-3.84,9.01,0.4444444444444444,0.3588888888888889,-0.7022222222222222,0.0625,0.0,0.125
1589550249.4728324,0.09,-3.86,9.04,0.43666666666666665,0.3655555555555556,-0.68,-0.0625,0.0,0.125
1589550249.4787595,0.11,-3.9,8.96,0.43666666666666665,0.3655555555555556,-0.68,-0.0625,0.0,-0.0625
1589550249.4908707,0.09,-3.86,8.91,0.43666666666666665,0.3655555555555556,-0.68,0.1875,0.25,0.0625
1589550249.4976811,0.09,-3.85,8.96,0.43666666666666665,0.3655555555555556,-0.68,0.5,0.375,0.0625
1589550249.511274,0.09,-3.86,9.03,0.43666666666666665,0.3655555555555556,-0.68,0.1875,0.25,0.0
1589550249.5186622,0.1,-3.87,9.03,0.43,0.3588888888888889,-0.7022222222222222,0.0625,-0.0625,-0.125
1589550249.5309615,0.08,-3.87,9.02,0.43,0.3588888888888889,-0.7022222222222222,-0.3125,0.125,0.0
1589550249.5372155,0.08,-3.88,8.93,0.43,0.3588888888888889,-0.7022222222222222,0.0,0.125,-0.125
1589550249.5491276,0.09,-3.86,8.99,0.43,0.3588888888888889,-0.7022222222222222,0.375,-0.0625,0.0
1589550249.5601985,0.12,-3.85,9.03,0.43,0.3588888888888889,-0.7022222222222222,0.1875,0.1875,0.0
1589550249.570816,0.09,-3.85,9.02,0.4177777777777778,0.3655555555555556,-0.6944444444444444,-0.0625,0.0,0.0
1589550249.578327,0.1,-3.89,8.96,0.4177777777777778,0.3655555555555556,-0.6944444444444444,-0.3125,-0.125,-0.125
1589550249.587522,0.11,-3.87,8.89,0.4177777777777778,0.3655555555555556,-0.6944444444444444,0.25,-0.1875,0.0
1589550249.6024196,0.1,-3.86,8.97,0.4177777777777778,0.3655555555555556,-0.6944444444444444,0.3125,0.125,0.0
1589550249.6101177,0.11,-3.87,9.02,0.4177777777777778,0.3655555555555556,-0.6944444444444444,0.3125,-0.1875,0.0
