time,acc_x,acc_y,acc_z,mag_x,mag_y,mag_z,gyr_x,gyr_y,gyr_z
1589550470.6742587,-0.04,-4.11,8.84,0.4511111111111111,0.2611111111111111,-0.6488888888888888,0.1875,0.1875,0.0625
1589550470.6824539,-0.08,-4.11,8.9,0.4511111111111111,0.2611111111111111,-0.6488888888888888,0.1875,0.25,0.0625
1589550470.6951828,-0.06,-4.11,8.93,0.4511111111111111,0.2611111111111111,-0.6488888888888888,-0.1875,0.125,0.0
1589550470.7027972,-0.08,-4.11,8.92,0.4577777777777778,0.2677777777777778,-0.6266666666666667,-0.1875,0.0625,0.0
1589550470.7127151,-0.08,-4.11,8.94,0.4577777777777778,0.2677777777777778,-0.6266666666666667,0.0,0.0,0.0
1589550470.7245824,-0.06,-4.12,8.79,0.4577777777777778,0.2677777777777778,-0.6266666666666667,-0.125,-0.125,0.125
1589550470.7328176,-0.07,-4.11,8.83,0.4577777777777778,0.2677777777777778,-0.6266666666666667,0.0,0.1875,0.0625
1589550470.7448163,-0.07,-4.11,8.9,0.4577777777777778,0.2677777777777778,-0.6266666666666667,0.125,0.0625,0.125
1589550470.7583964,-0.05,-4.13,8.94,0.4511111111111111,0.27555555555555555,-0.6266666666666667,0.0625,-0.125,-0.125
1589550470.7645464,-0.06,-4.12,8.91,0.4511111111111111,0.27555555555555555,-0.6266666666666667,0.0625,-0.125,0.125
1589550470.7780359,-0.07,-4.11,8.8,0.4511111111111111,0.27555555555555555,-0.6266666666666667,0.0625,0.25,-0.0625
1589550470.7848985,-0.07,-4.13,8.86,0.4511111111111111,0.27555555555555555,-0.6266666666666667,0.0625,0.5,0.125
1589550470.7996795,-0.07,-4.1,8.92,0.4511111111111111,0.27555555555555555,-0.6266666666666667,0.1875,0.5,0.0625
1589550470.8057404,-0.07,-4.12,8.92,0.4577777777777778,0.2822222222222222,-0.6055555555555555,0.5625,0.625,0.125
1589550470.8138206,-0.1,-4.12,8.92,0.4577777777777778,0.2822222222222222,-0.6055555555555555,0.5,0.6875,-0.0625
1589550470.8231158,-0.07,-4.11,8.8,0.4577777777777778,0.2822222222222222,-0.6055555555555555,0.25,0.5,0.0625
1589550470.83632,-0.06,-4.11,8.87,0.4577777777777778,0.2822222222222222,-0.6055555555555555,0.1875,0.1875,0.1875
1589550470.8486302,-0.04,-4.11,8.94,0.4577777777777778,0.2822222222222222,-0.6055555555555555,-0.125,0.1875,0.0625
1589550470.8551874,-0.09,-4.12,8.96,0.4455555555555555,0.27555555555555555,-0.6344444444444445,-0.125,0.0,0.0625
1589550470.8634846,-0.07,-4.12,8.9,0.4455555555555555,0.27555555555555555,-0.6344444444444445,-0.25,0.0,0.0625
1589550470.8732288,-0.09,-4.1,8.84,0.4455555555555555,0.27555555555555555,-0.6344444444444445,-0.1875,0.1875,0.0
1589550470.883817,-0.06,-4.13,8.86,0.4455555555555555,0.27555555555555555,-0.6344444444444445,-0.1875,0.1875,0.0625
1589550470.8955526,-0.08,-4.12,8.87,0.4455555555555555,0.27555555555555555,-0.6344444444444445,0.125,0.4375,0.0625
1589550470.9060602,-0.09,-4.11,8.87,0.4388888888888889,0.27555555555555555,-0.62,0.1875,0.25,0.0
1589550470.9130433,-0.08,-4.1,8.86,0.4388888888888889,0.27555555555555555,-0.62,0.4375,0.0,0.0625
1589550470.9292016,-0.07,-4.13,8.79,0.4388888888888889,0.27555555555555555,-0.62,0.3125,-0.0625,-0.0625
1589550470.9361405,-0.09,-4.12,8.9,0.4388888888888889,0.27555555555555555,-0.62,0.125,0.125,-0.0625
1589550470.949939,-0.06,-4.12,8.93,0.4388888888888889,0.27555555555555555,-0.62,0.0625,-0.1875,0.0625
1589550470.9558752,-0.06,-4.11,8.96,0.4655555555555556,0.27555555555555555,-0.62,-0.1875,0.0625,0.1875
1589550470.9678602,-0.06,-4.11,8.96,0.4655555555555556,0.27555555555555555,-0.62,0.0625,0.1875,-0.0625
1589550470.9739726,-0.07,-4.11,8.85,0.4655555555555556,0.27555555555555555,-0.62,0.125,0.0625,-0.0625
1589550470.9868286,-0.07,-4.12,8.88,0.4655555555555556,0.27555555555555555,-0.62,-0.1875,-0.1875,-0.0625
1589550470.9968846,-0.07,-4.12,8.88,0.4655555555555556,0.27555555555555555,-0.62,-0.1875,-0.0625,0.0625
1589550471.0058868,-0.07,-4.11,8.87,0.4388888888888889,0.2822222222222222,-0.62,-0.3125,-0.375,0.25
1589550471.0134847,-0.06,-4.12,8.87,0.4388888888888889,0.2822222222222222,-0.62,-0.4375,-0.5,0.0625
1589550471.023448,-0.06,-4.13,8.8,0.4388888888888889,0.2822222222222222,-0.62,-0.625,-0.5625,0.0
1589550471.03341,-0.05,-4.13,8.85,0.4388888888888889,0.2822222222222222,-0.62,-0.5625,-0.375,0.125
1589550471.0465512,-0.08,-4.11,8.9,0.4388888888888889,0.2822222222222222,-0.62,-0.25,-0.0625,0.0
1589550471.0540495,-0.08,-4.1,8.96,0.4722222222222222,0.29444444444444445,-0.6133333333333333,-0.1875,0.1875,-0.0625
1589550471.0647204,-0.07,-4.13,8.95,0.4722222222222222,0.29444444444444445,-0.6133333333333333,0.0625,-0.25,-0.0625
1589550471.0745776,-0.07,-4.12,8.85,0.4722222222222222,0.29444444444444445,-0.6133333333333333,-0.125,0.0,0.0625
1589550471.086845,-0.06,-4.13,8.87,0.4722222222222222,0.29444444444444445,-0.6133333333333333,0.0625,0.125,0.1875
1589550471.1008632,-0.06,-4.13,8.89,0.4722222222222222,0.29444444444444445,-0.6133333333333333,-0.1875,-0.125,0.125
1589550471.1064982,-0.06,-4.12,8.93,0.4655555555555556,0.2677777777777778,-0.6411111111111111,-0.375,-0.625,0.0625
1589550471.1188455,-0.04,-4.14,8.89,0.4655555555555556,0.2677777777777778,-0.6411111111111111,-0.3125,-0.5,0.0625
1589550471.1244874,-0.08,-4.12,8.81,0.4655555555555556,0.2677777777777778,-0.6411111111111111,-0.1875,-0.375,0.1875
1589550471.1384068,-0.07,-4.12,8.81,0.4655555555555556,0.2677777777777778,-0.6411111111111111,0.125,-0.25,-0.0625
1589550471.1468966,-0.06,-4.13,8.88,0.4655555555555556,0.2677777777777778,-0.6411111111111111,0.125,-0.125,0.0
1589550471.1585872,-0.07,-4.12,8.88,0.4511111111111111,0.2611111111111111,-0.6133333333333333,0.1875,-0.0625,-0.125
1589550471.16461,-0.08,-4.1,8.88,0.4511111111111111,0.2611111111111111,-0.6133333333333333,0.0,-0.0625,0.0
1589550471.1754403,-0.07,-4.1,8.81,0.4511111111111111,0.2611111111111111,-0.6133333333333333,-0.3125,-0.3125,0.0625
1589550471.1843815,-0.08,-4.11,8.89,0.4511111111111111,0.2611111111111111,-0.6133333333333333,-0.4375,-0.5,-0.125
1589550471.1980207,-0.05,-4.08,8.9,0.4511111111111111,0.2611111111111111,-0.6133333333333333,-0.375,-0.625,-0.125
1589550471.2038696,0.01,-3.87,8.99,0.4511111111111111,0.2677777777777778,-0.6133333333333333,-0.5625,-1.0,-0.25
1589550471.2152839,0.0,-3.67,8.98,0.4511111111111111,0.2677777777777778,-0.6133333333333333,-0.5625,-0.75,-2.0
1589550471.2243009,-0.07,-3.68,8.83,0.4511111111111111,0.2677777777777778,-0.6133333333333333,-0.875,-0.75,-5.0
1589550471.2360284,-0.13,-3.69,8.89,0.4511111111111111,0.2677777777777778,-0.6133333333333333,-1.625,-1.5625,-7.5
1589550471.2517323,-0.19,-3.68,8.9,0.4511111111111111,0.2677777777777778,-0.6133333333333333,-1.6875,-1.3125,-8.3125
1589550471.2582047,-0.33,-3.64,8.81,0.4777777777777778,0.27555555555555555,-0.6266666666666667,-1.375,-1.0,-7.875
1589550471.2647648,-0.43,-3.5,8.9,0.4777777777777778,0.27555555555555555,-0.6266666666666667,-2.0625,-1.6875,-7.0
1589550471.2767198,-0.39,-3.38,8.89,0.4777777777777778,0.27555555555555555,-0.6266666666666667,-3.25,-2.9375,-5.625
1589550471.289299,-0.4,-3.3,8.81,0.4777777777777778,0.27555555555555555,-0.6266666666666667,-3.9375,-3.5,-3.375
1589550471.2969036,-0.62,-2.94,9.67,0.4777777777777778,0.27555555555555555,-0.6266666666666667,-5.5,-5.0,-1.875
1589550471.3042793,-0.45,-2.73,8.92,0.4633333333333333,0.27555555555555555,-0.62,-4.625,-2.75,6.0
1589550471.3149314,-0.33,-2.66,8.8,0.4633333333333333,0.27555555555555555,-0.62,-0.125,0.6875,29.3125
1589550471.3256257,0.01,-2.76,8.69,0.4633333333333333,0.27555555555555555,-0.62,2.25,-0.875,46.0625
1589550471.3355215,-0.06,-2.67,8.82,0.4633333333333333,0.27555555555555555,-0.62,-0.375,-2.75,52.6875
1589550471.34812,-0.13,-2.8,8.88,0.4633333333333333,0.27555555555555555,-0.62,-0.5,-2.9375,56.375
1589550471.3552039,-0.23,-2.89,9.04,0.4633333333333333,0.27555555555555555,-0.6266666666666667,0.1875,-3.25,59.6875
1589550471.3667233,-0.34,-2.89,8.89,0.4633333333333333,0.27555555555555555,-0.6266666666666667,1.0,-2.1875,64.6875
1589550471.3759954,-0.3,-2.88,8.87,0.4633333333333333,0.27555555555555555,-0.6266666666666667,1.125,-2.8125,70.5
1589550471.3870366,-0.25,-2.9,8.98,0.4633333333333333,0.27555555555555555,-0.6266666666666667,0.4375,-3.6875,75.875
1589550471.403885,-0.3,-2.91,9.12,0.4633333333333333,0.27555555555555555,-0.6266666666666667,-0.1875,-4.0,79.75
1589550471.4099438,-0.33,-2.93,9.02,0.4833333333333333,0.2611111111111111,-0.6266666666666667,0.25,-3.875,83.25
1589550471.4166448,-0.39,-2.91,9.0,0.4833333333333333,0.2611111111111111,-0.6266666666666667,-0.0625,-4.625,86.0625
1589550471.4288886,-0.46,-3.08,8.82,0.4833333333333333,0.2611111111111111,-0.6266666666666667,0.25,-4.25,89.5625
1589550471.4386976,-0.56,-3.18,8.88,0.4833333333333333,0.2611111111111111,-0.6266666666666667,0.6875,-4.1875,93.9375
1589550471.4490266,-0.48,-3.13,8.96,0.4833333333333333,0.2611111111111111,-0.6266666666666667,0.4375,-5.0625,98.6875
1589550471.4605794,-0.51,-3.14,8.83,0.4833333333333333,0.2222222222222222,-0.6055555555555555,0.8125,-4.8125,102.6875
1589550471.4661348,-0.47,-3.1,8.89,0.4833333333333333,0.2222222222222222,-0.6055555555555555,0.8125,-4.75,105.4375
1589550471.48093,-0.64,-3.19,8.92,0.4833333333333333,0.2222222222222222,-0.6055555555555555,0.5625,-5.1875,106.75
1589550471.4877682,-0.61,-3.16,8.94,0.4833333333333333,0.2222222222222222,-0.6055555555555555,1.0625,-5.0,108.125
1589550471.4984665,-0.68,-3.18,8.98,0.4833333333333333,0.2222222222222222,-0.6055555555555555,1.0625,-4.9375,109.5625
1589550471.5061436,-0.68,-3.12,9.02,0.51,0.19,-0.6488888888888888,0.5,-5.3125,111.0625
1589550471.5171835,-0.72,-3.05,9.04,0.51,0.19,-0.6488888888888888,0.6875,-5.25,112.3125
1589550471.5263348,-0.75,-3.03,8.84,0.51,0.19,-0.6488888888888888,1.0,-4.625,113.0
1589550471.538394,-0.8,-3.06,8.73,0.51,0.19,-0.6488888888888888,1.0,-4.5625,113.5
1589550471.5545993,-0.92,-3.25,8.94,0.51,0.19,-0.6488888888888888,0.125,-5.6875,113.625
1589550471.5603392,-0.98,-3.29,8.76,0.5366666666666666,0.16333333333333333,-0.6411111111111111,1.25,-4.625,113.75
1589550471.5669713,-1.05,-3.26,9.05,0.5366666666666666,0.16333333333333333,-0.6411111111111111,1.0,-5.25,112.625
1589550471.5782735,-0.92,-3.1,8.87,0.5366666666666666,0.16333333333333333,-0.6411111111111111,0.0,-5.375,112.0
1589550471.5903218,-1.14,-3.18,8.88,0.5366666666666666,0.16333333333333333,-0.6411111111111111,1.6875,-4.25,110.875
1589550471.598878,-1.11,-3.14,8.97,0.5366666666666666,0.16333333333333333,-0.6411111111111111,1.4375,-4.375,109.1875
1589550471.6063821,-1.19,-3.17,9.17,0.5288888888888889,0.09,-0.6622222222222223,0.5,-5.3125,107.625
1589550471.6184213,-1.24,-3.04,9.04,0.5288888888888889,0.09,-0.6622222222222223,0.875,-4.6875,106.0
1589550471.6271913,-1.26,-3.08,8.98,0.5288888888888889,0.09,-0.6622222222222223,0.6875,-4.1875,104.1875
1589550471.6392725,-1.23,-2.91,8.71,0.5288888888888889,0.09,-0.6622222222222223,1.5625,-3.0625,102.5
1589550471.6495414,-1.27,-2.97,9.23,0.5288888888888889,0.09,-0.6622222222222223,0.875,-4.625,99.5
1589550471.6571407,-1.23,-2.8,8.77,0.5488888888888889,0.045555555555555564,-0.6844444444444444,0.3125,-3.875,95.875
1589550471.669513,-1.36,-2.88,9.49,0.5488888888888889,0.045555555555555564,-0.6844444444444444,-0.0625,-5.4375,91.1875
1589550471.6774352,-1.31,-2.75,8.89,0.5488888888888889,0.045555555555555564,-0.6844444444444444,-0.3125,-5.375,87.125
1589550471.6918752,-1.35,-2.75,9.03,0.5488888888888889,0.045555555555555564,-0.6844444444444444,2.3125,-1.0,83.8125
1589550471.6995332,-1.42,-2.78,8.97,0.5488888888888889,0.045555555555555564,-0.6844444444444444,1.125,-3.375,79.125
1589550471.7105458,-1.36,-2.7,8.9,0.5488888888888889,0.01888888888888889,-0.6966666666666667,0.5,-2.9375,74.5625
1589550471.7175224,-1.43,-2.69,8.92,0.5488888888888889,0.01888888888888889,-0.6966666666666667,0.3125,-3.75,70.0
1589550471.728051,-1.6,-2.79,9.02,0.5488888888888889,0.01888888888888889,-0.6966666666666667,-0.5,-5.3125,65.125
1589550471.738408,-1.57,-2.71,9.03,0.5488888888888889,0.01888888888888889,-0.6966666666666667,-0.625,-4.1875,60.875
1589550471.7498422,-1.71,-2.78,9.07,0.5488888888888889,0.01888888888888889,-0.6966666666666667,0.5,-2.6875,57.3125
1589550471.7572482,-1.66,-2.66,8.91,0.5344444444444445,-0.006666666666666667,-0.7111111111111111,0.1875,-2.3125,54.0
1589550471.7691965,-1.83,-2.81,9.11,0.5344444444444445,-0.006666666666666667,-0.7111111111111111,-0.1875,-2.5,50.5625
1589550471.7791655,-1.76,-2.71,8.72,0.5344444444444445,-0.006666666666666667,-0.7111111111111111,0.6875,-1.75,47.5
1589550471.7919724,-1.79,-2.7,8.88,0.5344444444444445,-0.006666666666666667,-0.7111111111111111,0.5625,-1.1875,43.875
1589550471.800725,-1.99,-2.77,9.0,0.5344444444444445,-0.006666666666666667,-0.7111111111111111,0.4375,-1.3125,37.5
1589550471.807677,-1.94,-2.72,8.99,0.5277777777777778,-0.017777777777777778,-0.7244444444444444,0.5,-0.875,35.3125
1589550471.8226073,-1.99,-2.7,9.0,0.5277777777777778,-0.017777777777777778,-0.7244444444444444,0.5,-0.875,35.3125
1589550471.8288505,-2.03,-2.68,9.05,0.5277777777777778,-0.017777777777777778,-0.7244444444444444,0.125,-1.5,31.5
1589550471.8430185,-2.13,-2.71,9.06,0.5277777777777778,-0.017777777777777778,-0.7244444444444444,-0.0625,-1.5,30.25
1589550471.8505435,-2.16,-2.73,9.12,0.5277777777777778,-0.017777777777777778,-0.7244444444444444,0.1875,-0.75,29.5625
1589550471.8583016,-2.24,-2.72,8.89,0.5188888888888888,-0.024444444444444446,-0.7244444444444444,0.0,-0.75,29.25
1589550471.868424,-2.22,-2.7,9.24,0.5188888888888888,-0.024444444444444446,-0.7244444444444444,-1.0625,-2.1875,28.5625
1589550471.8821802,-2.14,-2.66,8.92,0.5188888888888888,-0.024444444444444446,-0.7244444444444444,0.5,0.25,28.75
1589550471.8886542,-2.1,-2.58,8.79,0.5188888888888888,-0.024444444444444446,-0.7244444444444444,0.5625,0.125,27.8125
1589550471.9018073,-2.2,-2.68,8.93,0.5188888888888888,-0.024444444444444446,-0.7244444444444444,-0.25,-0.9375,26.1875
1589550471.9084904,-2.13,-2.57,8.86,0.5255555555555556,-0.05333333333333334,-0.7511111111111111,-0.125,-0.8125,24.1875
1589550471.9207716,-2.13,-2.57,9.19,0.5255555555555556,-0.05333333333333334,-0.7511111111111111,-0.8125,-1.5,22.1875
1589550471.9293509,-2.36,-2.73,9.22,0.5255555555555556,-0.05333333333333334,-0.7511111111111111,0.8125,1.0,21.5
1589550471.9410179,-2.17,-2.58,8.45,0.5255555555555556,-0.05333333333333334,-0.7511111111111111,2.1875,3.5625,21.0625
1589550471.9515553,-2.09,-2.62,8.96,0.5255555555555556,-0.05333333333333334,-0.7511111111111111,-0.75,-0.6875,17.8125
1589550471.9607954,-2.13,-2.54,8.92,0.4922222222222222,-0.08666666666666667,-0.7655555555555555,-2.0,-2.875,14.375
1589550471.9741528,-2.29,-2.58,9.38,0.4922222222222222,-0.08666666666666667,-0.7655555555555555,-2.4375,-2.5625,13.4375
1589550471.9803288,-2.48,-2.64,8.66,0.4922222222222222,-0.08666666666666667,-0.7655555555555555,0.0625,1.75,15.1875
1589550471.9932652,-2.53,-2.64,8.88,0.4922222222222222,-0.08666666666666667,-0.7655555555555555,0.1875,0.625,17.1875
1589550472.000822,-2.6,-2.68,9.07,0.4922222222222222,-0.08666666666666667,-0.7655555555555555,-1.25,-0.1875,19.6875
1589550472.0123193,-2.54,-2.63,9.03,0.5066666666666667,-0.13777777777777778,-0.7655555555555555,-0.3125,0.75,23.8125
1589550472.0184474,-2.66,-2.7,9.05,0.5066666666666667,-0.13777777777777778,-0.7655555555555555,0.1875,0.4375,27.6875
1589550472.0296805,-2.58,-2.58,8.79,0.5066666666666667,-0.13777777777777778,-0.7655555555555555,-0.4375,0.5625,31.3125
1589550472.0394435,-2.8,-2.68,8.83,0.5066666666666667,-0.13777777777777778,-0.7655555555555555,-1.4375,-1.4375,35.5
1589550472.0536478,-2.69,-2.63,9.56,0.5066666666666667,-0.13777777777777778,-0.7655555555555555,-1.75,-2.5625,42.375
1589550472.059028,-2.84,-2.63,8.91,0.5111111111111111,-0.16444444444444445,-0.7511111111111111,0.3125,0.9375,50.125
1589550472.069378,-2.91,-2.68,8.77,0.5111111111111111,-0.16444444444444445,-0.7511111111111111,-0.6875,-1.0,56.625
1589550472.0792792,-2.92,-2.71,9.15,0.5111111111111111,-0.16444444444444445,-0.7511111111111111,-0.875,-2.5625,62.25
1589550472.0885985,-2.92,-2.6,8.57,0.5111111111111111,-0.16444444444444445,-0.7511111111111111,0.875,0.6875,68.625
1589550472.0946474,-2.92,-2.6,8.57,0.5111111111111111,-0.16444444444444445,-0.7511111111111111,0.875,0.6875,68.625
1589550472.100659,-2.88,-2.54,8.61,0.5111111111111111,-0.16444444444444445,-0.7511111111111111,-0.8125,-3.0,72.9375
1589550472.1123927,-2.98,-2.67,9.46,0.4688888888888889,-0.19666666666666666,-0.7944444444444444,-1.875,-5.5625,77.4375
1589550472.1249769,-2.89,-2.43,8.6,0.4688888888888889,-0.19666666666666666,-0.7944444444444444,1.3125,0.0,83.75
1589550472.1315699,-2.82,-2.42,8.47,0.4688888888888889,-0.19666666666666666,-0.7944444444444444,1.125,-0.625,87.625
1589550472.1448152,-2.85,-2.44,9.07,0.4688888888888889,-0.19666666666666666,-0.7944444444444444,-1.5,-6.0625,89.125
1589550472.1521602,-3.07,-2.5,9.4,0.4688888888888889,-0.19666666666666666,-0.7944444444444444,-0.5625,-5.0,92.5
1589550472.1584446,-2.85,-2.29,8.57,0.3977777777777778,-0.28444444444444444,-0.7444444444444445,0.5,-3.5,95.25
1589550472.1703978,-2.91,-2.35,9.65,0.3977777777777778,-0.28444444444444444,-0.7444444444444445,-2.0,-7.625,95.875
1589550472.1798446,-2.89,-2.25,9.14,0.3977777777777778,-0.28444444444444444,-0.7444444444444445,0.75,-3.1875,98.5
1589550472.189189,-2.76,-2.12,9.06,0.3977777777777778,-0.28444444444444444,-0.7444444444444445,0.5625,-3.75,100.25
1589550472.2020204,-2.6,-2.02,9.26,0.3977777777777778,-0.28444444444444444,-0.7444444444444445,-0.4375,-5.3125,99.9375
1589550472.208778,-2.67,-1.99,9.05,0.3655555555555556,-0.3033333333333333,-0.6888888888888889,0.625,-3.5,98.375
1589550472.2215445,-2.85,-2.03,8.96,0.3655555555555556,-0.3033333333333333,-0.6888888888888889,0.3125,-3.875,95.875
1589550472.2300606,-2.77,-1.87,8.97,0.3655555555555556,-0.3033333333333333,-0.6888888888888889,-0.5625,-5.0625,93.8125
1589550472.2397249,-2.36,-1.67,9.2,0.3655555555555556,-0.3033333333333333,-0.6888888888888889,-0.1875,-5.8125,93.0625
1589550472.2515619,-2.58,-1.72,9.03,0.3655555555555556,-0.3033333333333333,-0.6888888888888889,1.5625,-3.6875,92.3125
1589550472.262362,-2.64,-1.71,9.07,0.4011111111111111,-0.2977777777777777,-0.6533333333333333,-0.3125,-4.625,91.3125
1589550472.269447,-2.41,-1.56,9.07,0.4011111111111111,-0.2977777777777777,-0.6533333333333333,0.25,-3.75,89.9375
1589550472.2811894,-2.55,-1.55,8.68,0.4011111111111111,-0.2977777777777777,-0.6533333333333333,1.0,-2.8125,88.4375
1589550472.2947304,-2.93,-1.67,9.39,0.4011111111111111,-0.2977777777777777,-0.6533333333333333,1.3125,-3.8125,87.5
1589550472.3028169,-2.7,-1.55,9.06,0.4011111111111111,-0.2977777777777777,-0.6533333333333333,0.8125,-2.0625,85.6875
1589550472.3094466,-2.45,-1.36,8.78,0.3911111111111111,-0.2911111111111111,-0.6611111111111111,1.3125,-1.4375,82.4375
1589550472.320993,-2.02,-1.2,8.6,0.3911111111111111,-0.2911111111111111,-0.6611111111111111,-0.8125,-5.8125,76.875
1589550472.3349152,-2.44,-1.36,9.77,0.3911111111111111,-0.2911111111111111,-0.6611111111111111,-1.3125,-6.6875,70.875
1589550472.3415954,-2.64,-1.25,8.86,0.3911111111111111,-0.2911111111111111,-0.6611111111111111,0.625,-2.3125,66.125
1589550472.3526964,-2.82,-1.35,9.54,0.3911111111111111,-0.2911111111111111,-0.6611111111111111,-0.1875,-3.75,59.875
1589550472.3603206,-2.41,-1.1,8.56,0.3744444444444445,-0.3144444444444445,-0.6466666666666666,0.25,-2.25,55.1875
1589550472.3655686,-2.41,-1.1,8.56,0.3744444444444445,-0.3144444444444445,-0.6466666666666666,0.25,-2.25,55.1875
1589550472.3762314,-2.3,-1.18,9.79,0.3744444444444445,-0.3144444444444445,-0.6466666666666666,-2.4375,-7.0625,49.9375
1589550472.382779,-2.54,-1.06,8.79,0.3744444444444445,-0.3144444444444445,-0.6466666666666666,-0.3125,-3.375,46.0625
1589550472.3954284,-2.44,-1.04,8.77,0.3744444444444445,-0.3144444444444445,-0.6466666666666666,0.1875,-2.0,42.8125
1589550472.4024112,-2.47,-1.09,9.33,0.3744444444444445,-0.3144444444444445,-0.6466666666666666,-0.5,-4.125,39.9375
1589550472.4130607,-2.21,-0.96,8.9,0.38222222222222224,-0.3333333333333333,-0.6611111111111111,1.25,-0.125,38.9375
1589550472.4204235,-1.94,-0.46,8.34,0.38222222222222224,-0.3333333333333333,-0.6611111111111111,1.125,-0.4375,36.375
1589550472.4309304,-0.71,-0.58,9.24,0.38222222222222224,-0.3333333333333333,-0.6611111111111111,-1.6875,-6.5625,24.625
1589550472.4412088,-2.04,-1.04,8.93,0.38222222222222224,-0.3333333333333333,-0.6611111111111111,-0.375,-0.75,1.1875
1589550472.453585,-1.04,-0.9,8.89,0.38222222222222224,-0.3333333333333333,-0.6611111111111111,1.75,3.8125,-7.5625
1589550472.460204,-2.23,-1.09,8.5,0.3922222222222223,-0.3322222222222222,-0.64,2.375,2.8125,-18.75
1589550472.4708793,-2.76,-1.27,9.7,0.3922222222222223,-0.3322222222222222,-0.64,-2.1875,-1.4375,-28.875
1589550472.4828944,-1.9,-1.1,8.67,0.3922222222222223,-0.3322222222222222,-0.64,-1.0,0.9375,-35.625
1589550472.490949,-2.2,-1.27,9.89,0.3922222222222223,-0.3322222222222222,-0.64,-1.0,-1.6875,-48.5
1589550472.506842,-2.23,-1.14,8.96,0.3922222222222223,-0.3322222222222222,-0.64,0.4375,4.375,-58.9375
1589550472.512153,-1.81,-1.08,8.71,0.3977777777777778,-0.3233333333333333,-0.6466666666666666,0.3125,5.5,-71.5625
1589550472.525694,-2.9,-1.41,9.43,0.3977777777777778,-0.3233333333333333,-0.6466666666666666,-1.5625,1.3125,-82.9375
1589550472.531397,-2.92,-1.47,9.23,0.3977777777777778,-0.3233333333333333,-0.6466666666666666,-2.75,1.0,-89.0625
1589550472.5420306,-3.42,-1.53,9.04,0.3977777777777778,-0.3233333333333333,-0.6466666666666666,-0.3125,4.5625,-91.9375
1589550472.5529716,-3.23,-1.7,9.02,0.3977777777777778,-0.3233333333333333,-0.6466666666666666,-0.8125,3.6875,-91.6875
1589550472.5612836,-3.38,-1.86,9.35,0.41,-0.31555555555555553,-0.6677777777777778,-2.4375,1.125,-88.125
1589550472.571159,-3.08,-1.75,9.07,0.41,-0.31555555555555553,-0.6677777777777778,-1.4375,2.125,-83.5625
1589550472.58235,-3.08,-1.75,9.07,0.41,-0.31555555555555553,-0.6677777777777778,-1.4375,2.125,-83.5625
1589550472.591196,-2.27,-1.68,9.19,0.41,-0.31555555555555553,-0.6677777777777778,-2.0625,2.5,-74.4375
1589550472.6064188,-2.2,-1.63,9.33,0.41,-0.31555555555555553,-0.6677777777777778,-1.125,1.75,-72.5625
1589550472.6194255,-2.48,-1.69,9.16,0.4444444444444444,-0.33555555555555555,-0.6733333333333333,0.5,5.125,-70.75
1589550472.6254153,-2.37,-1.59,8.41,0.4444444444444444,-0.33555555555555555,-0.6733333333333333,0.4375,6.4375,-67.75
1589550472.6374106,-2.22,-1.72,9.77,0.4444444444444444,-0.33555555555555555,-0.6733333333333333,-1.4375,1.25,-64.9375
1589550472.6435118,-2.45,-1.67,8.59,0.4444444444444444,-0.33555555555555555,-0.6733333333333333,-0.8125,2.875,-63.4375
1589550472.6583881,-2.75,-1.82,8.97,0.4444444444444444,-0.33555555555555555,-0.6733333333333333,-0.625,2.25,-62.375
1589550472.6635373,-2.22,-1.78,9.02,0.4488888888888889,-0.4266666666666667,-0.64,-1.625,1.5,-60.0625
1589550472.6777842,-2.01,-1.69,9.02,0.4488888888888889,-0.4266666666666667,-0.64,-0.8125,2.875,-59.375
1589550472.6845243,-2.08,-1.85,9.09,0.4488888888888889,-0.4266666666666667,-0.64,-1.0,2.125,-59.5625
1589550472.6955366,-2.03,-1.76,8.3,0.4488888888888889,-0.4266666666666667,-0.64,-0.375,4.0625,-59.1875
1589550472.7043748,-1.82,-1.88,9.29,0.4488888888888889,-0.4266666666666667,-0.64,-1.9375,2.6875,-59.3125
1589550472.715605,-2.2,-2.07,9.41,0.4866666666666667,-0.8533333333333334,-0.4011111111111111,-1.3125,0.3125,-59.9375
1589550472.7228534,-2.45,-2.15,9.26,0.4866666666666667,-0.8533333333333334,-0.4011111111111111,1.5,5.75,-60.25
1589550472.7327733,-1.67,-1.91,8.8,0.4866666666666667,-0.8533333333333334,-0.4011111111111111,-0.6875,4.9375,-60.5
1589550472.7427804,-2.19,-2.2,9.51,0.4866666666666667,-0.8533333333333334,-0.4011111111111111,-2.625,-0.75,-64.9375
1589550472.7546544,-2.03,-2.16,9.12,0.4866666666666667,-0.8533333333333334,-0.4011111111111111,-1.75,1.3125,-67.5
1589550472.7618177,-1.77,-2.01,8.8,1.2,-0.6944444444444444,-0.4655555555555556,-0.125,3.5625,-68.9375
1589550472.773649,-1.56,-2.06,8.75,1.2,-0.6944444444444444,-0.4655555555555556,-0.75,3.25,-71.5
1589550472.782382,-1.63,-2.16,9.16,1.2,-0.6944444444444444,-0.4655555555555556,-1.3125,2.125,-75.0
1589550472.792165,-1.5,-2.13,8.93,1.2,-0.6944444444444444,-0.4655555555555556,-0.9375,2.0625,-79.9375
1589550472.7980392,-1.5,-2.13,8.93,1.2,-0.6944444444444444,-0.4655555555555556,-0.9375,2.0625,-79.9375
1589550472.8092732,-1.94,-2.51,9.27,1.2,-0.6944444444444444,-0.4655555555555556,-1.0625,3.375,-84.5625
1589550472.8153305,-1.56,-2.37,8.93,0.6755555555555556,-0.30666666666666664,-0.7266666666666667,-0.625,5.4375,-88.875
1589550472.8230894,-1.02,-2.16,8.62,0.6755555555555556,-0.30666666666666664,-0.7266666666666667,0.5625,6.875,-93.0
1589550472.835301,-1.04,-2.29,8.73,0.6755555555555556,-0.30666666666666664,-0.7266666666666667,-0.9375,3.0625,-102.0625
1589550472.84274,-1.38,-2.53,8.9,0.6755555555555556,-0.30666666666666664,-0.7266666666666667,-3.375,2.625,-111.1875
1589550472.8548422,-1.55,-2.82,9.12,0.6755555555555556,-0.30666666666666664,-0.7266666666666667,-1.125,6.6875,-116.875
1589550472.8660984,-1.27,-2.68,8.37,0.5966666666666667,-0.14888888888888888,-0.6966666666666667,1.625,7.75,-122.875
1589550472.8729775,-1.33,-2.87,9.11,0.5966666666666667,-0.14888888888888888,-0.6966666666666667,-3.0625,2.25,-132.5
1589550472.8871596,-1.35,-2.82,8.62,0.5966666666666667,-0.14888888888888888,-0.6966666666666667,-1.375,6.4375,-138.9375
1589550472.8932526,-2.01,-3.34,9.25,0.5966666666666667,-0.14888888888888888,-0.6966666666666667,-0.5625,7.5,-142.875
1589550472.906683,-1.83,-3.26,9.23,0.5966666666666667,-0.14888888888888888,-0.6966666666666667,-1.3125,6.875,-143.75
1589550472.9128392,-1.55,-3.31,8.11,0.5877777777777777,-0.06333333333333334,-0.7377777777777778,0.3125,10.3125,-142.5625
1589550472.9257092,-1.55,-3.64,9.49,0.5877777777777777,-0.06333333333333334,-0.7377777777777778,-1.0,5.3125,-142.0625
1589550472.9338045,-1.75,-3.6,9.32,0.5877777777777777,-0.06333333333333334,-0.7377777777777778,-2.5,2.8125,-140.875
1589550472.9440985,-1.47,-3.54,8.41,0.5877777777777777,-0.06333333333333334,-0.7377777777777778,-0.25,8.0625,-138.5625
1589550472.9586008,-1.33,-3.42,9.07,0.5877777777777777,-0.06333333333333334,-0.7377777777777778,-0.5625,5.4375,-139.4375
1589550472.9654338,-1.42,-3.38,8.77,0.57,-0.012222222222222223,-0.73,-2.5625,4.875,-142.0625
1589550472.973609,-1.63,-3.86,9.37,0.57,-0.012222222222222223,-0.73,-1.5,4.875,-142.25
1589550472.9857602,-1.7,-3.97,8.8,0.57,-0.012222222222222223,-0.73,0.0,6.125,-139.5
1589550472.9937346,-1.69,-4.36,8.87,0.57,-0.012222222222222223,-0.73,-0.9375,4.5,-135.3125
1589550473.0057385,-1.25,-4.0,8.93,0.57,-0.012222222222222223,-0.73,-1.125,5.4375,-127.625
1589550473.0191574,-15.43,-17.35,18.49,0.5555555555555556,0.057777777777777775,-0.7244444444444444,0.6875,8.4375,-114.75
1589550473.0252495,4.19,0.97,1.63,0.5555555555555556,0.057777777777777775,-0.7244444444444444,5.0,84.375,-31.3125
1589550473.038292,0.25,1.04,3.11,0.5555555555555556,0.057777777777777775,-0.7244444444444444,-79.4375,-80.6875,-270.3125
1589550473.0449142,2.26,-1.65,21.04,0.5555555555555556,0.057777777777777775,-0.7244444444444444,-55.6875,-12.6875,-155.0
1589550473.0596626,-0.25,0.89,9.76,0.5555555555555556,0.057777777777777775,-0.7244444444444444,69.625,57.1875,-139.625
1589550473.0653393,0.03,1.59,9.89,0.54,0.15222222222222226,-0.7088888888888889,88.9375,8.9375,-125.625
1589550473.0748394,1.96,-0.32,11.95,0.54,0.15222222222222226,-0.7088888888888889,-21.75,-19.0,-81.4375
1589550473.0845668,0.2,-0.88,8.1,0.54,0.15222222222222226,-0.7088888888888889,-18.6875,-0.875,-56.5
1589550473.0965548,-0.56,-2.83,8.72,0.54,0.15222222222222226,-0.7088888888888889,18.5,13.5625,-39.3125
1589550473.108997,-0.64,-2.48,9.74,0.54,0.15222222222222226,-0.7088888888888889,-3.9375,-4.1875,-9.4375
1589550473.1154532,-0.43,-2.21,9.24,0.5311111111111111,0.19,-0.7155555555555555,-5.375,-3.8125,16.25
1589550473.1248071,-0.39,-2.2,9.16,0.5311111111111111,0.19,-0.7155555555555555,7.625,3.75,29.4375
1589550473.1370115,-0.8,-2.06,8.96,0.5311111111111111,0.19,-0.7155555555555555,0.125,-1.625,34.0625
1589550473.1449244,-0.53,-2.05,8.65,0.5311111111111111,0.19,-0.7155555555555555,-2.9375,-1.5,36.125
1589550473.1562858,-0.59,-2.26,9.16,0.5311111111111111,0.19,-0.7155555555555555,1.5625,-1.1875,40.375
1589550473.166795,-0.68,-2.4,9.48,0.5333333333333333,0.21333333333333332,-0.7088888888888889,1.5625,-1.375,42.875
1589550473.176098,-0.63,-2.26,9.05,0.5333333333333333,0.21333333333333332,-0.7088888888888889,-0.4375,-3.9375,46.75
1589550473.1898086,-0.65,-2.26,8.78,0.5333333333333333,0.21333333333333332,-0.7088888888888889,0.9375,-1.125,50.375
1589550473.1957517,-5.68,-20.15,9.54,0.5333333333333333,0.21333333333333332,-0.7088888888888889,0.125,-2.1875,51.5
1589550473.2115624,1.81,1.93,9.11,0.5333333333333333,0.21333333333333332,-0.7088888888888889,-6.875,-6.1875,5.8125
1589550473.2179215,0.15,-0.01,9.79,0.5488888888888889,0.18777777777777774,-0.7033333333333334,-0.6875,1.9375,-39.5
1589550473.2292118,-1.6,-1.74,7.7,0.5488888888888889,0.18777777777777774,-0.7033333333333334,14.9375,13.6875,-23.5625
1589550473.2359624,-0.45,-2.22,9.58,0.5488888888888889,0.18777777777777774,-0.7033333333333334,-7.625,-3.75,3.625
1589550473.2457602,-1.96,-8.86,8.45,0.5488888888888889,0.18777777777777774,-0.7033333333333334,-3.6875,-3.875,20.375
1589550473.256606,-2.57,-6.04,8.29,0.5488888888888889,0.18777777777777774,-0.7033333333333334,2.0625,1.0,14.125
1589550473.2640884,0.02,-1.59,8.9,0.5511111111111111,0.18444444444444444,-0.7088888888888889,-2.1875,-3.1875,-7.875
1589550473.2726386,0.02,-1.59,8.9,0.5511111111111111,0.18444444444444444,-0.7088888888888889,-2.1875,-3.1875,-7.875
1589550473.2828975,-1.61,-3.71,8.19,0.5511111111111111,0.18444444444444444,-0.7088888888888889,3.75,2.1875,-5.25
1589550473.28869,-1.26,-3.8,8.8,0.5511111111111111,0.18444444444444444,-0.7088888888888889,1.5625,3.6875,0.5
1589550473.2955608,-1.09,-3.95,9.37,0.5511111111111111,0.18444444444444444,-0.7088888888888889,-2.75,-2.8125,-0.125
1589550473.3075,-1.33,-3.78,8.7,0.5511111111111111,0.18444444444444444,-0.7088888888888889,-0.5625,-0.0625,0.0625
1589550473.3177602,-1.25,-3.9,9.06,0.5511111111111111,0.19,-0.7244444444444444,0.4375,0.625,0.0625
1589550473.3251686,-1.23,-3.83,9.11,0.5511111111111111,0.19,-0.7244444444444444,0.1875,-0.75,0.0
1589550473.340659,-1.34,-3.71,8.75,0.5511111111111111,0.19,-0.7244444444444444,1.25,0.6875,0.0
1589550473.3469868,-1.25,-3.87,8.95,0.5511111111111111,0.19,-0.7244444444444444,0.0625,0.25,0.0
1589550473.3623712,-1.32,-3.88,8.77,0.5511111111111111,0.19,-0.7244444444444444,-1.125,0.0,0.125
1589550473.3688278,-1.27,-3.83,8.89,0.5511111111111111,0.17777777777777778,-0.7177777777777777,-0.5625,0.3125,0.125
1589550473.3797429,-1.27,-3.81,8.97,0.5511111111111111,0.17777777777777778,-0.7177777777777777,0.375,0.125,0.0625
1589550473.3858366,-1.26,-3.75,8.9,0.5511111111111111,0.17777777777777778,-0.7177777777777777,0.6875,-0.0625,0.0625
