time,acc_x,acc_y,acc_z,mag_x,mag_y,mag_z,gyr_x,gyr_y,gyr_z
1589550537.5910776,0.39,-4.1,8.91,0.4566666666666666,0.32666666666666666,-0.6344444444444445,-0.4375,0.0,-0.125
1589550537.5989218,0.39,-4.11,8.91,0.4566666666666666,0.32666666666666666,-0.6344444444444445,-0.5,0.0625,0.0625
1589550537.60664,0.37,-4.09,8.88,0.4511111111111111,0.32666666666666666,-0.6411111111111111,-0.25,0.0,0.0625
1589550537.6188939,0.38,-4.07,8.83,0.4511111111111111,0.32666666666666666,-0.6411111111111111,-0.375,0.0,0.1875
1589550537.6269574,0.39,-4.11,8.77,0.4511111111111111,0.32666666666666666,-0.6411111111111111,-0.375,-0.125,0.0625
1589550537.6372545,0.39,-4.09,8.8,0.4511111111111111,0.32666666666666666,-0.6411111111111111,-0.0625,-0.125,0.0625
1589550537.6513414,0.37,-4.07,8.85,0.4511111111111111,0.32666666666666666,-0.6411111111111111,0.25,0.0,0.125
1589550537.6575048,0.37,-4.09,8.88,0.4633333333333333,0.3477777777777778,-0.6077777777777778,0.375,0.1875,-0.125
1589550537.666554,0.35,-4.09,8.9,0.4633333333333333,0.3477777777777778,-0.6077777777777778,0.25,0.1875,0.0
1589550537.676507,0.38,-4.1,8.85,0.4633333333333333,0.3477777777777778,-0.6077777777777778,0.1875,-0.125,-0.0625
1589550537.687257,0.37,-4.08,8.85,0.4633333333333333,0.3477777777777778,-0.6077777777777778,0.1875,-0.375,0.0
1589550537.6991956,0.39,-4.07,8.94,0.4633333333333333,0.3477777777777778,-0.6077777777777778,0.25,-0.5,0.125
1589550537.7117956,0.41,-4.06,8.93,0.4755555555555556,0.3533333333333333,-0.6344444444444445,0.25,-0.5,-0.25
1589550537.7176845,0.42,-4.06,8.88,0.4755555555555556,0.3533333333333333,-0.6344444444444445,0.25,-0.5,-0.25
1589550537.7322721,0.39,-4.04,8.74,0.4755555555555556,0.3533333333333333,-0.6344444444444445,0.3125,0.0625,-0.375
1589550537.7383802,0.38,-4.07,8.8,0.4755555555555556,0.3533333333333333,-0.6344444444444445,-0.25,-0.5,-0.9375
1589550537.751363,0.42,-4.04,8.94,0.4755555555555556,0.3533333333333333,-0.6344444444444445,-0.5625,-0.5625,-1.0625
1589550537.7578585,0.43,-4.02,8.96,0.4688888888888889,0.3144444444444445,-0.6266666666666667,-0.5,-0.0625,-0.9375
1589550537.7695713,0.43,-3.95,8.92,0.4688888888888889,0.3144444444444445,-0.6266666666666667,-0.1875,0.125,-1.375
1589550537.7772045,0.43,-4.03,8.85,0.4688888888888889,0.3144444444444445,-0.6266666666666667,-0.0625,0.125,-1.75
1589550537.7876267,0.35,-4.18,8.86,0.4688888888888889,0.3144444444444445,-0.6266666666666667,-0.1875,0.3125,-2.0625
1589550537.8000214,0.38,-4.21,8.92,0.4688888888888889,0.3144444444444445,-0.6266666666666667,-0.25,0.0625,-1.9375
1589550537.809076,0.38,-4.18,8.89,0.4444444444444444,0.3333333333333333,-0.6344444444444445,-0.0625,0.0625,-1.8125
1589550537.8170679,0.39,-4.12,8.87,0.4444444444444444,0.3333333333333333,-0.6344444444444445,-0.625,-0.3125,-1.9375
1589550537.828617,0.42,-4.13,8.81,0.4444444444444444,0.3333333333333333,-0.6344444444444445,-0.25,-0.1875,-1.6875
1589550537.8378356,0.41,-4.15,8.9,0.4444444444444444,0.3333333333333333,-0.6344444444444445,0.25,0.25,-1.5
1589550537.849959,0.39,-4.12,8.84,0.4444444444444444,0.3333333333333333,-0.6344444444444445,0.375,0.625,-1.5
1589550537.8602698,0.39,-4.11,8.89,0.4511111111111111,0.3333333333333333,-0.6344444444444445,0.25,0.5,-1.5
1589550537.8674061,0.37,-4.15,8.9,0.4511111111111111,0.3333333333333333,-0.6344444444444445,0.1875,0.3125,-1.3125
1589550537.8821714,0.39,-4.14,8.81,0.4511111111111111,0.3333333333333333,-0.6344444444444445,0.4375,0.75,-1.1875
1589550537.8888752,0.4,-4.08,8.86,0.4511111111111111,0.3333333333333333,-0.6344444444444445,0.5625,0.8125,-0.8125
1589550537.9048054,0.4,-4.08,8.91,0.4511111111111111,0.3333333333333333,-0.6344444444444445,0.3125,0.625,-0.25
1589550537.9116066,0.4,-4.08,8.94,0.43666666666666665,0.3411111111111111,-0.6344444444444445,0.1875,0.5,-0.125
1589550537.92812,0.4,-4.09,8.78,0.43666666666666665,0.3411111111111111,-0.6344444444444445,0.4375,0.375,-0.125
1589550537.942643,0.34,-4.06,8.77,0.43666666666666665,0.3411111111111111,-0.6344444444444445,0.1875,0.1875,-0.0625
1589550537.9500222,0.31,-4.07,8.57,0.43666666666666665,0.3411111111111111,-0.6344444444444445,-1.0625,-1.875,-0.125
1589550537.9608574,0.48,-4.1,9.06,0.4688888888888889,0.3333333333333333,-0.62,-0.875,-1.6875,-0.0625
1589550537.9685776,0.38,-4.08,8.75,0.4688888888888889,0.3333333333333333,-0.62,-0.125,0.625,-0.0625
1589550537.9798007,0.44,-4.13,8.85,0.4688888888888889,0.3333333333333333,-0.62,0.1875,0.1875,-0.125
1589550537.9890587,0.4,-4.08,8.8,0.4688888888888889,0.3333333333333333,-0.62,0.125,0.5625,0.0
1589550538.0008118,0.37,-4.1,8.91,0.4688888888888889,0.3333333333333333,-0.62,0.0625,0.125,-0.1875
1589550538.008825,0.42,-4.09,8.99,0.4755555555555556,0.3477777777777778,-0.6411111111111111,-0.25,-0.1875,0.0
1589550538.0208266,0.41,-4.09,8.92,0.4755555555555556,0.3477777777777778,-0.6411111111111111,-0.0625,0.0,-0.0625
1589550538.0344586,0.41,-4.06,8.8,0.4755555555555556,0.3477777777777778,-0.6411111111111111,-0.375,-0.25,-0.0625
1589550538.0411766,0.39,-4.08,8.81,0.4755555555555556,0.3477777777777778,-0.6411111111111111,-0.9375,-0.8125,-0.0625
1589550538.0552359,0.4,-4.05,8.85,0.4755555555555556,0.3477777777777778,-0.6411111111111111,-1.125,-1.4375,-0.3125
1589550538.060748,0.43,-3.96,8.9,0.4511111111111111,0.3411111111111111,-0.6555555555555556,-1.5,-2.0,-0.75
1589550538.071258,0.43,-3.78,8.81,0.4511111111111111,0.3411111111111111,-0.6555555555555556,-1.875,-2.0,-1.75
1589550538.078018,0.38,-3.73,8.73,0.4511111111111111,0.3411111111111111,-0.6555555555555556,-2.5625,-2.375,-2.875
1589550538.0842106,0.38,-3.73,8.73,0.4511111111111111,0.3411111111111111,-0.6555555555555556,-2.5625,-2.375,-2.875
1589550538.0938902,0.37,-3.63,8.76,0.4511111111111111,0.3411111111111111,-0.6555555555555556,-3.5625,-3.625,-3.6875
1589550538.1004946,0.36,-3.59,8.86,0.4511111111111111,0.3411111111111111,-0.6555555555555556,-3.8125,-4.3125,-4.25
1589550538.1129987,0.05,-2.58,8.84,0.4755555555555556,0.3333333333333333,-0.6344444444444445,-4.0,-4.375,-4.25
1589550538.1187458,0.23,-2.63,9.17,0.4755555555555556,0.3333333333333333,-0.6344444444444445,-4.375,-5.1875,-3.375
1589550538.1312995,0.31,-2.87,8.92,0.4755555555555556,0.3333333333333333,-0.6344444444444445,-3.3125,-3.375,-2.9375
1589550538.138505,0.53,-3.15,8.86,0.4755555555555556,0.3333333333333333,-0.6344444444444445,-3.9375,-3.1875,-5.875
1589550538.1510346,-0.11,-2.84,9.33,0.4755555555555556,0.3333333333333333,-0.6344444444444445,-3.6875,-2.5,-11.25
1589550538.1577113,-0.28,-2.64,8.91,0.4755555555555556,0.3477777777777778,-0.6266666666666667,0.625,1.9375,-4.0
1589550538.1695855,-0.28,-2.64,8.91,0.4755555555555556,0.3477777777777778,-0.6266666666666667,0.625,1.9375,-4.0
1589550538.1792386,0.05,-2.81,8.94,0.4755555555555556,0.3477777777777778,-0.6266666666666667,-1.0625,-2.0625,23.125
1589550538.1887248,0.11,-2.85,8.91,0.4755555555555556,0.3477777777777778,-0.6266666666666667,-0.0625,-1.5,33.25
1589550538.2058632,0.19,-2.87,8.96,0.4755555555555556,0.3477777777777778,-0.6266666666666667,0.8125,-1.5,40.875
1589550538.2113285,0.23,-2.98,9.0,0.43666666666666665,0.3477777777777778,-0.62,0.125,-2.125,46.125
1589550538.2215593,0.2,-3.03,9.02,0.43666666666666665,0.3477777777777778,-0.62,0.1875,-2.25,50.75
1589550538.2298825,0.17,-2.96,8.82,0.43666666666666665,0.3477777777777778,-0.62,0.8125,-1.875,54.9375
1589550538.2441676,0.22,-3.02,8.88,0.43666666666666665,0.3477777777777778,-0.62,0.5625,-2.4375,58.8125
1589550538.25207,0.27,-3.08,8.84,0.43666666666666665,0.3477777777777778,-0.62,0.25,-2.75,61.5625
1589550538.263817,0.25,-3.17,8.98,0.4755555555555556,0.3411111111111111,-0.6411111111111111,0.1875,-3.25,63.5
1589550538.2697752,0.21,-3.18,8.8,0.4755555555555556,0.3411111111111111,-0.6411111111111111,0.4375,-2.9375,64.5625
1589550538.2808392,0.22,-3.28,8.79,0.4755555555555556,0.3411111111111111,-0.6411111111111111,0.3125,-3.25,65.0
1589550538.2903044,0.19,-3.34,8.9,0.4755555555555556,0.3411111111111111,-0.6411111111111111,0.3125,-2.9375,65.0
1589550538.3031454,0.13,-3.36,8.92,0.4755555555555556,0.3411111111111111,-0.6411111111111111,0.4375,-2.6875,65.3125
1589550538.3098516,0.08,-3.31,8.82,0.4955555555555556,0.3,-0.6411111111111111,0.4375,-3.125,66.125
1589550538.3203769,0.04,-3.38,9.04,0.4955555555555556,0.3,-0.6411111111111111,-0.1875,-4.25,66.8125
1589550538.330651,0.0,-3.42,8.76,0.4955555555555556,0.3,-0.6411111111111111,0.5,-3.1875,67.9375
1589550538.3403273,0.04,-3.41,8.82,0.4955555555555556,0.3,-0.6411111111111111,0.5,-3.375,68.5
1589550538.3581135,0.0,-3.45,9.01,0.4955555555555556,0.3,-0.6411111111111111,0.0625,-3.875,69.125
1589550538.3636956,-0.03,-3.39,8.89,0.49,0.29444444444444445,-0.6411111111111111,0.375,-3.1875,69.6875
1589550538.3713126,-0.13,-3.48,8.85,0.49,0.29444444444444445,-0.6411111111111111,0.5625,-3.125,70.125
1589550538.3832226,-0.1,-3.5,8.78,0.49,0.29444444444444445,-0.6411111111111111,0.4375,-3.5625,70.5625
1589550538.3947382,-0.19,-3.54,8.94,0.49,0.29444444444444445,-0.6411111111111111,0.4375,-3.4375,70.625
1589550538.4029536,-0.22,-3.51,8.89,0.49,0.29444444444444445,-0.6411111111111111,0.75,-3.25,70.375
1589550538.4152725,-0.29,-3.61,8.99,0.5222222222222223,0.27555555555555555,-0.6488888888888888,0.6875,-3.0625,70.125
1589550538.4213905,-0.24,-3.43,8.95,0.5222222222222223,0.27555555555555555,-0.6488888888888888,0.625,-2.9375,70.1875
1589550538.4336188,-0.28,-3.5,9.04,0.5222222222222223,0.27555555555555555,-0.6488888888888888,0.5,-3.0,69.75
1589550538.4415796,-0.26,-3.38,8.73,0.5222222222222223,0.27555555555555555,-0.6488888888888888,1.3125,-1.8125,69.375
1589550538.45342,-0.3,-3.39,8.9,0.5222222222222223,0.27555555555555555,-0.6488888888888888,0.9375,-2.375,68.3125
1589550538.461013,-0.37,-3.45,9.07,0.5222222222222223,0.2411111111111111,-0.67,0.0,-3.5625,67.375
1589550538.4743776,-0.38,-3.41,8.82,0.5222222222222223,0.2411111111111111,-0.67,0.1875,-3.0625,66.875
1589550538.4817364,-0.45,-3.45,8.8,0.5222222222222223,0.2411111111111111,-0.67,0.625,-2.9375,65.9375
1589550538.4914546,-0.57,-3.51,8.84,0.5222222222222223,0.2411111111111111,-0.67,0.375,-3.25,65.5625
1589550538.5023086,-0.71,-3.62,9.04,0.5222222222222223,0.2411111111111111,-0.67,0.0,-3.625,66.9375
1589550538.5110927,-0.73,-3.55,8.85,0.5288888888888889,0.2488888888888889,-0.6977777777777778,0.6875,-3.125,68.625
1589550538.52047,-0.81,-3.69,8.97,0.5288888888888889,0.2488888888888889,-0.6977777777777778,0.6875,-3.375,71.0625
1589550538.530468,-0.83,-3.69,8.89,0.5288888888888889,0.2488888888888889,-0.6977777777777778,0.1875,-3.9375,73.375
1589550538.5363832,-0.83,-3.69,8.89,0.5288888888888889,0.2488888888888889,-0.6977777777777778,0.1875,-3.9375,73.375
1589550538.5446506,-0.82,-3.53,8.75,0.5288888888888889,0.2488888888888889,-0.6977777777777778,0.9375,-3.0625,75.625
1589550538.5537045,-0.8,-3.55,9.04,0.5288888888888889,0.2488888888888889,-0.6977777777777778,0.625,-3.6875,77.25
1589550538.5612035,-0.92,-3.59,8.89,0.5466666666666666,0.20222222222222225,-0.6911111111111111,0.375,-3.75,78.375
1589550538.572784,-0.96,-3.52,8.99,0.5466666666666666,0.20222222222222225,-0.6911111111111111,0.0625,-4.3125,79.9375
1589550538.585966,-1.0,-3.56,8.84,0.5466666666666666,0.20222222222222225,-0.6911111111111111,0.3125,-4.1875,81.375
1589550538.5918462,-1.02,-3.52,8.9,0.5466666666666666,0.20222222222222225,-0.6911111111111111,1.125,-3.5,83.25
1589550538.6062427,-1.0,-3.52,8.85,0.5466666666666666,0.20222222222222225,-0.6911111111111111,1.1875,-3.375,84.5
1589550538.6120837,-1.05,-3.53,8.93,0.5544444444444444,0.16333333333333333,-0.7177777777777777,0.75,-3.75,84.25
1589550538.6255555,-0.89,-3.31,9.07,0.5544444444444444,0.16333333333333333,-0.7177777777777777,0.5,-4.0625,82.75
1589550538.6319218,-1.09,-3.46,8.87,0.5544444444444444,0.16333333333333333,-0.7177777777777777,0.875,-3.4375,80.875
1589550538.6419618,-1.18,-3.47,9.07,0.5544444444444444,0.16333333333333333,-0.7177777777777777,1.3125,-2.75,80.1875
1589550538.654119,-1.09,-3.25,8.71,0.5544444444444444,0.16333333333333333,-0.7177777777777777,1.9375,-1.625,79.9375
1589550538.6656654,-1.2,-3.32,8.84,0.56,0.13666666666666666,-0.7244444444444444,1.125,-2.625,78.8125
1589550538.6723945,-1.26,-3.42,9.27,0.56,0.13666666666666666,-0.7244444444444444,-0.6875,-4.8125,78.25
1589550538.6822145,-1.17,-3.17,8.65,0.56,0.13666666666666666,-0.7244444444444444,1.0625,-2.375,78.0625
1589550538.6962075,-1.23,-3.14,8.63,0.56,0.13666666666666666,-0.7244444444444444,1.125,-2.75,76.6875
1589550538.7045047,-1.32,-3.21,9.34,0.56,0.13666666666666666,-0.7244444444444444,-1.8125,-6.375,74.6875
1589550538.711577,-1.38,-3.09,8.76,0.5722222222222222,0.10444444444444444,-0.7377777777777778,0.125,-3.125,74.0625
1589550538.724306,-1.45,-3.17,8.8,0.5722222222222222,0.10444444444444444,-0.7377777777777778,2.0625,-1.5,73.8125
1589550538.732325,-1.47,-3.22,9.09,0.5722222222222222,0.10444444444444444,-0.7377777777777778,-0.25,-3.9375,72.125
1589550538.7445593,-1.54,-3.16,8.86,0.5722222222222222,0.10444444444444444,-0.7377777777777778,-0.125,-3.3125,70.75
1589550538.7549026,-1.63,-3.18,8.99,0.5722222222222222,0.10444444444444444,-0.7377777777777778,0.6875,-2.75,70.4375
1589550538.7621036,-1.67,-3.15,8.87,0.5644444444444444,0.07111111111111111,-0.7444444444444445,0.5,-2.4375,69.75
1589550538.7755964,-1.78,-3.19,9.08,0.5644444444444444,0.07111111111111111,-0.7444444444444445,-0.3125,-3.5,69.0
1589550538.781647,-1.78,-3.18,9.05,0.5644444444444444,0.07111111111111111,-0.7444444444444445,0.0625,-3.125,69.125
1589550538.787214,-1.78,-3.18,9.05,0.5644444444444444,0.07111111111111111,-0.7444444444444445,0.0625,-3.125,69.125
1589550538.7977092,-1.88,-3.18,8.95,0.5644444444444444,0.07111111111111111,-0.7444444444444445,0.625,-2.1875,70.4375
1589550538.8045585,-1.88,-3.18,9.02,0.5644444444444444,0.07111111111111111,-0.7444444444444445,0.0625,-3.125,70.8125
1589550538.8154414,-1.9,-3.13,8.99,0.5633333333333334,0.022222222222222227,-0.78,0.0,-2.625,71.5625
1589550538.8224714,-1.93,-3.13,8.96,0.5633333333333334,0.022222222222222227,-0.78,0.625,-2.375,72.125
1589550538.8331876,-1.88,-2.99,8.85,0.5633333333333334,0.022222222222222227,-0.78,0.375,-2.125,71.9375
1589550538.8430195,-1.93,-2.98,9.01,0.5633333333333334,0.022222222222222227,-0.78,0.0625,-2.1875,72.25
1589550538.855246,-1.96,-2.98,8.87,0.5633333333333334,0.022222222222222227,-0.78,0.4375,-2.1875,73.0
1589550538.8623412,-2.12,-3.07,9.11,0.5633333333333334,-0.027777777777777776,-0.8155555555555556,0.1875,-3.0625,73.9375
1589550538.8744824,-2.25,-3.1,9.16,0.5633333333333334,-0.027777777777777776,-0.8155555555555556,-0.8125,-3.6875,74.6875
1589550538.8829374,-2.17,-2.98,8.8,0.5633333333333334,-0.027777777777777776,-0.8155555555555556,-0.3125,-2.1875,76.75
1589550538.8946989,-2.3,-3.01,8.96,0.5633333333333334,-0.027777777777777776,-0.8155555555555556,0.3125,-2.375,79.625
1589550538.9089909,-2.25,-2.93,8.78,0.5633333333333334,-0.027777777777777776,-0.8155555555555556,0.3125,-2.0,81.75
1589550538.91427,-2.36,-2.99,9.09,0.5788888888888889,-0.10111111111111112,-0.78,-0.5,-3.0625,83.3125
1589550538.9279964,-2.32,-2.93,9.16,0.5788888888888889,-0.10111111111111112,-0.78,-0.6875,-3.3125,85.0625
1589550538.9346492,-2.47,-2.88,8.97,0.5788888888888889,-0.10111111111111112,-0.78,0.125,-2.3125,86.6875
1589550538.9481766,-2.53,-2.89,9.02,0.5788888888888889,-0.10111111111111112,-0.78,-0.1875,-3.0,88.0
1589550538.9544208,-2.55,-2.85,8.97,0.5788888888888889,-0.10111111111111112,-0.78,0.0,-2.625,89.6875
1589550538.9632668,-2.64,-2.86,9.17,0.5577777777777778,-0.16,-0.7866666666666666,-0.1875,-3.375,91.0625
1589550538.973705,-2.64,-2.8,8.88,0.5577777777777778,-0.16,-0.7866666666666666,-0.1875,-3.0625,92.625
1589550538.9838352,-2.72,-2.81,8.91,0.5577777777777778,-0.16,-0.7866666666666666,0.1875,-3.0,95.375
1589550538.9944544,-2.72,-2.78,9.01,0.5577777777777778,-0.16,-0.7866666666666666,-0.3125,-3.625,97.8125
1589550539.0063136,-2.57,-2.58,9.07,0.5577777777777778,-0.16,-0.7866666666666666,-0.125,-3.625,100.875
1589550539.0134785,-2.49,-2.47,8.75,0.5277777777777778,-0.23777777777777775,-0.7866666666666666,0.4375,-3.3125,103.5625
1589550539.0252068,-2.7,-2.55,9.03,0.5277777777777778,-0.23777777777777775,-0.7866666666666666,-0.25,-4.375,106.375
1589550539.0335898,-2.79,-2.64,9.4,0.5277777777777778,-0.23777777777777775,-0.7866666666666666,-0.125,-6.125,108.625
1589550539.0448859,-2.61,-2.44,8.95,0.5277777777777778,-0.23777777777777775,-0.7866666666666666,0.875,-2.9375,111.25
1589550539.0558212,-2.47,-2.32,9.23,0.5277777777777778,-0.23777777777777775,-0.7866666666666666,-0.3125,-5.5,110.9375
1589550539.0673366,-2.58,-2.2,8.95,0.4266666666666667,-0.3144444444444445,-0.7377777777777778,0.625,-4.1875,109.4375
1589550539.0786607,-2.67,-2.05,8.93,0.4266666666666667,-0.3144444444444445,-0.7377777777777778,-0.375,-4.4375,108.5
1589550539.0852215,-2.64,-1.99,8.96,0.4266666666666667,-0.3144444444444445,-0.7377777777777778,-0.3125,-5.1875,108.3125
1589550539.0997667,-2.79,-2.02,9.2,0.4266666666666667,-0.3144444444444445,-0.7377777777777778,0.4375,-5.25,108.0
1589550539.1057901,-2.86,-1.96,8.91,0.4266666666666667,-0.3144444444444445,-0.7377777777777778,1.0,-4.0625,108.5
1589550539.1157172,-2.53,-1.75,9.47,0.3888888888888889,-0.31222222222222223,-0.6966666666666667,0.0625,-5.0,109.4375
1589550539.1241539,-2.37,-1.59,8.89,0.3888888888888889,-0.31222222222222223,-0.6966666666666667,-0.3125,-6.0,110.0
1589550539.1375597,-2.7,-1.68,8.88,0.3888888888888889,-0.31222222222222223,-0.6966666666666667,1.0,-3.5,110.625
1589550539.1437955,-2.94,-1.68,9.11,0.3888888888888889,-0.31222222222222223,-0.6966666666666667,1.1875,-4.375,110.9375
1589550539.1566586,-2.65,-1.58,9.11,0.3888888888888889,-0.31222222222222223,-0.6966666666666667,-0.1875,-5.625,111.0
1589550539.1636946,-2.73,-1.5,8.8,0.4044444444444445,-0.30666666666666664,-0.6533333333333333,0.6875,-4.125,110.9375
1589550539.172076,-2.73,-1.5,8.8,0.4044444444444445,-0.30666666666666664,-0.6533333333333333,0.6875,-4.125,110.9375
1589550539.178623,-3.12,-1.6,9.42,0.4044444444444445,-0.30666666666666664,-0.6533333333333333,0.3125,-5.75,109.6875
1589550539.1846242,-2.81,-1.28,8.74,0.4044444444444445,-0.30666666666666664,-0.6533333333333333,0.3125,-5.4375,109.5625
1589550539.1938634,-2.87,-1.3,8.85,0.4044444444444445,-0.30666666666666664,-0.6533333333333333,1.25,-3.375,109.25
1589550539.2001474,-2.87,-1.3,8.85,0.4044444444444445,-0.30666666666666664,-0.6533333333333333,1.25,-3.375,109.25
1589550539.2063255,-3.08,-1.38,9.56,0.4044444444444445,-0.30666666666666664,-0.6533333333333333,-0.6875,-6.875,107.4375
1589550539.2169068,-3.11,-1.15,8.65,0.37777777777777777,-0.3288888888888889,-0.6533333333333333,0.9375,-4.8125,108.5
1589550539.2252288,-3.3,-1.23,9.21,0.37777777777777777,-0.3288888888888889,-0.6533333333333333,1.75,-2.5625,109.4375
1589550539.237511,-3.25,-1.22,9.17,0.37777777777777777,-0.3288888888888889,-0.6533333333333333,-0.6875,-6.5625,108.875
1589550539.244282,-3.23,-1.12,8.88,0.37777777777777777,-0.3288888888888889,-0.6533333333333333,0.0625,-5.0625,109.8125
1589550539.2569833,-3.26,-1.01,9.09,0.37777777777777777,-0.3288888888888889,-0.6533333333333333,0.375,-5.3125,111.0
1589550539.2635994,-2.73,-0.94,9.58,0.3955555555555556,-0.35,-0.6466666666666666,0.625,-6.625,111.0
1589550539.2743766,-2.73,-0.94,9.58,0.3955555555555556,-0.35,-0.6466666666666666,0.625,-6.625,111.0
1589550539.289882,-2.62,-0.83,9.22,0.3955555555555556,-0.35,-0.6466666666666666,-0.5625,-6.625,111.0
1589550539.296033,-3.22,-0.56,8.02,0.3955555555555556,-0.35,-0.6466666666666666,-0.1875,-8.8125,109.75
1589550539.306562,-2.66,-0.64,8.87,0.3955555555555556,-0.35,-0.6466666666666666,3.375,-0.375,108.625
1589550539.316507,-2.51,-0.73,9.91,0.3555555555555556,-0.36,-0.6533333333333333,-3.875,-10.4375,106.0625
1589550539.3251932,-3.22,-0.75,9.64,0.3555555555555556,-0.36,-0.6533333333333333,-1.0,-6.0625,108.5
1589550539.3352435,-1.88,-0.09,7.67,0.3555555555555556,-0.36,-0.6533333333333333,0.625,-5.3125,112.375
1589550539.3455837,-2.3,-0.22,10.54,0.3555555555555556,-0.36,-0.6533333333333333,1.125,-6.8125,113.375
1589550539.3565655,-3.12,-0.32,8.9,0.3555555555555556,-0.36,-0.6533333333333333,0.0625,-7.8125,98.3125
1589550539.365473,-2.72,-0.04,9.4,0.3511111111111111,-0.38,-0.6466666666666666,-1.5625,-8.125,92.1875
1589550539.3755062,-2.78,-0.02,9.72,0.3511111111111111,-0.38,-0.6466666666666666,-1.9375,-6.5625,87.125
1589550539.3866124,-2.85,-0.05,8.86,0.3511111111111111,-0.38,-0.6466666666666666,1.25,-3.125,81.0
1589550539.3960662,-3.09,0.0,8.83,0.3511111111111111,-0.38,-0.6466666666666666,1.25,-3.875,77.9375
1589550539.4070005,-2.89,-0.23,9.46,0.3511111111111111,-0.38,-0.6466666666666666,-1.4375,-5.0,79.5
1589550539.4153776,-2.87,-0.05,9.21,0.3233333333333333,-0.4122222222222222,-0.64,1.8125,-1.9375,82.3125
1589550539.425242,-2.83,0.09,8.67,0.3233333333333333,-0.4122222222222222,-0.64,0.5625,-5.0625,80.75
1589550539.43735,-3.42,-0.03,8.69,0.3233333333333333,-0.4122222222222222,-0.64,0.6875,-2.875,83.25
1589550539.4456756,-3.16,0.14,8.89,0.3233333333333333,-0.4122222222222222,-0.64,-0.6875,-5.3125,86.75
1589550539.4612465,-2.65,0.12,9.43,0.3233333333333333,-0.4122222222222222,-0.64,-1.3125,-6.6875,86.5625
1589550539.4671655,-2.97,0.12,9.39,0.30666666666666664,-0.43666666666666665,-0.6611111111111111,-0.4375,-5.125,85.9375
1589550539.4805355,-2.69,0.28,9.29,0.30666666666666664,-0.43666666666666665,-0.6611111111111111,0.8125,-4.3125,87.5
1589550539.4873989,-2.6,0.39,8.92,0.30666666666666664,-0.43666666666666665,-0.6611111111111111,0.75,-3.8125,85.0
1589550539.498881,-3.29,0.36,9.45,0.30666666666666664,-0.43666666666666665,-0.6611111111111111,0.125,-2.875,81.9375
1589550539.5077162,-2.93,0.42,9.29,0.30666666666666664,-0.43666666666666665,-0.6611111111111111,-0.1875,-5.375,81.8125
1589550539.5161376,-3.27,0.37,9.47,0.2733333333333333,-0.4666666666666667,-0.6755555555555556,-1.25,-6.1875,80.75
1589550539.5259962,-3.34,0.45,9.27,0.2733333333333333,-0.4666666666666667,-0.6755555555555556,-0.375,-3.9375,83.0
1589550539.5363927,-3.14,0.57,8.82,0.2733333333333333,-0.4666666666666667,-0.6755555555555556,-1.3125,-5.5625,84.3125
1589550539.5475981,-2.79,0.56,9.2,0.2733333333333333,-0.4666666666666667,-0.6755555555555556,-1.4375,-5.5,86.25
1589550539.558425,-2.87,0.7,9.14,0.2733333333333333,-0.4666666666666667,-0.6755555555555556,1.875,-3.3125,86.1875
1589550539.565371,-2.78,0.79,9.16,0.24,-0.51,-0.6677777777777778,-0.0625,-4.375,82.9375
1589550539.5768776,-3.21,0.77,9.29,0.24,-0.51,-0.6677777777777778,-0.625,-4.4375,82.375
1589550539.5893242,-2.66,0.92,9.43,0.24,-0.51,-0.6677777777777778,1.5625,-2.875,82.375
1589550539.5966244,-2.83,1.04,8.43,0.24,-0.51,-0.6677777777777778,1.5,-1.125,77.6875
1589550539.6127436,-2.5,1.05,9.06,0.24,-0.51,-0.6677777777777778,-2.1875,-6.6875,71.3125
1589550539.6180394,-3.23,1.11,8.68,0.16,-0.6133333333333333,-0.6755555555555556,1.25,-0.875,66.0
1589550539.6317933,-2.9,1.1,9.12,0.16,-0.6133333333333333,-0.6755555555555556,0.75,-2.875,63.5625
1589550539.637776,-3.73,1.05,9.61,0.16,-0.6133333333333333,-0.6755555555555556,-0.375,-2.9375,62.375
1589550539.6500242,-4.07,1.16,9.27,0.16,-0.6133333333333333,-0.6755555555555556,1.1875,-1.3125,69.25
1589550539.6583984,-2.71,1.28,8.93,0.16,-0.6133333333333333,-0.6755555555555556,1.125,-2.875,75.0625
1589550539.6704795,-3.3,1.21,9.48,0.01888888888888889,-0.9011111111111112,-0.6966666666666667,-0.8125,-4.875,73.125
1589550539.6767328,-3.01,1.24,9.31,0.01888888888888889,-0.9011111111111112,-0.6966666666666667,0.375,-2.625,73.0625
1589550539.690766,-1.72,1.4,9.41,0.01888888888888889,-0.9011111111111112,-0.6966666666666667,0.4375,-3.75,64.75
1589550539.6968699,-2.37,1.52,9.3,0.01888888888888889,-0.9011111111111112,-0.6966666666666667,0.75,-1.5625,50.1875
1589550539.7086902,-2.46,1.4,8.9,0.01888888888888889,-0.9011111111111112,-0.6966666666666667,-0.1875,-0.75,39.3125
1589550539.7161832,-2.93,1.51,9.1,-0.2766666666666667,-1.55,-0.8011111111111111,0.4375,-0.3125,34.875
1589550539.7274196,-2.93,1.51,9.1,-0.2766666666666667,-1.55,-0.8011111111111111,0.4375,-0.3125,34.875
1589550539.7368903,-2.97,1.67,9.21,-0.2766666666666667,-1.55,-0.8011111111111111,0.1875,-0.9375,28.9375
1589550539.7467227,-3.68,1.69,9.22,-0.2766666666666667,-1.55,-0.8011111111111111,0.5,-0.5625,26.6875
1589550539.7526848,-3.68,1.69,9.22,-0.2766666666666667,-1.55,-0.8011111111111111,0.5,-0.5625,26.6875
1589550539.763761,-3.19,1.78,9.07,-0.2766666666666667,-1.55,-0.8011111111111111,1.1875,-0.25,29.625
1589550539.7726502,-4.29,1.75,9.65,-0.15222222222222226,-0.9455555555555556,-0.7655555555555555,-0.25,-1.75,31.3125
1589550539.783693,-4.47,1.69,9.25,-0.15222222222222226,-0.9455555555555556,-0.7655555555555555,-0.1875,-0.75,40.0
1589550539.7905276,-3.96,1.89,9.03,-0.15222222222222226,-0.9455555555555556,-0.7655555555555555,-0.3125,-2.1875,50.5
1589550539.799199,-3.1,1.94,9.41,-0.15222222222222226,-0.9455555555555556,-0.7655555555555555,-0.3125,-3.5,51.5625
1589550539.8091428,-4.12,1.9,9.44,-0.15222222222222226,-0.9455555555555556,-0.7655555555555555,0.3125,-1.5625,47.875
1589550539.8210487,-3.64,1.95,8.78,0.045555555555555564,-0.6411111111111111,-0.73,0.8125,-1.625,51.375
1589550539.827466,-1.61,1.88,9.23,0.045555555555555564,-0.6411111111111111,-0.73,-1.125,-4.5,51.4375
1589550539.8416312,-1.2,1.85,9.24,0.045555555555555564,-0.6411111111111111,-0.73,0.125,-2.625,39.3125
1589550539.8476355,-2.29,1.92,9.6,0.045555555555555564,-0.6411111111111111,-0.73,0.8125,1.375,20.1875
1589550539.8599336,-1.27,1.73,8.24,0.045555555555555564,-0.6411111111111111,-0.73,1.0625,2.0,8.5625
1589550539.8669207,-2.03,1.81,9.58,0.10777777777777778,-0.5577777777777778,-0.7244444444444444,-1.875,-1.875,-6.5625
1589550539.87755,-1.83,1.82,8.72,0.10777777777777778,-0.5577777777777778,-0.7244444444444444,0.5625,2.0,-17.8125
1589550539.8829818,-1.83,1.82,8.72,0.10777777777777778,-0.5577777777777778,-0.7244444444444444,0.5625,2.0,-17.8125
1589550539.888957,-2.34,1.77,9.19,0.10777777777777778,-0.5577777777777778,-0.7244444444444444,-1.6875,-0.6875,-27.1875
1589550539.898371,-1.13,1.57,9.45,0.10777777777777778,-0.5577777777777778,-0.7244444444444444,-3.5625,-2.125,-34.4375
1589550539.9125342,-1.53,1.57,9.58,0.10777777777777778,-0.5577777777777778,-0.7244444444444444,-1.8125,0.5625,-48.375
1589550539.9185233,-1.82,1.64,9.67,0.11888888888888888,-0.5311111111111111,-0.7388888888888889,2.375,7.4375,-62.4375
1589550539.9284534,-0.86,1.64,7.8,0.11888888888888888,-0.5311111111111111,-0.7388888888888889,1.5,8.375,-77.4375
1589550539.9399314,-1.44,1.3,10.22,0.11888888888888888,-0.5311111111111111,-0.7388888888888889,-4.0625,-0.375,-98.75
1589550539.947958,-1.2,1.4,8.34,0.11888888888888888,-0.5311111111111111,-0.7388888888888889,0.375,9.0625,-116.0
1589550539.9617052,-1.84,1.37,8.9,0.11888888888888888,-0.5311111111111111,-0.7388888888888889,-0.4375,6.0,-131.8125
1589550539.9727273,-1.83,1.08,9.34,0.13444444444444445,-0.5288888888888889,-0.7444444444444445,-3.5625,3.6875,-144.9375
1589550539.9792836,-1.83,1.03,9.01,0.13444444444444445,-0.5288888888888889,-0.7444444444444445,-2.625,6.5,-156.75
1589550539.9927375,-1.62,0.9,9.39,0.13444444444444445,-0.5288888888888889,-0.7444444444444445,-1.875,6.5625,-167.625
1589550539.9984026,-2.53,0.7,9.33,0.13444444444444445,-0.5288888888888889,-0.7444444444444445,-1.5,9.625,-179.875
1589550540.0105448,-1.13,0.51,9.1,0.13444444444444445,-0.5288888888888889,-0.7444444444444445,-1.3125,10.3125,-191.0
1589550540.018546,-1.45,0.32,9.53,0.18444444444444444,-0.5022222222222222,-0.7511111111111111,-3.0,7.5,-210.4375
1589550540.0283694,-0.72,0.23,9.27,0.18444444444444444,-0.5022222222222222,-0.7511111111111111,-1.6875,10.9375,-228.4375
1589550540.0358682,-0.72,0.23,9.27,0.18444444444444444,-0.5022222222222222,-0.7511111111111111,-1.6875,10.9375,-228.4375
1589550540.0419664,-0.9,0.04,8.37,0.18444444444444444,-0.5022222222222222,-0.7511111111111111,-2.8125,10.5625,-251.9375
1589550540.0524995,7.53,8.18,14.45,0.18444444444444444,-0.5022222222222222,-0.7511111111111111,-4.8125,8.75,-275.125
1589550540.0608096,0.89,3.06,9.13,0.18444444444444444,-0.5022222222222222,-0.7511111111111111,-16.0,38.875,-497.4375
1589550540.071674,-32.48,-23.75,13.84,0.2766666666666667,-0.4633333333333333,-0.7388888888888889,69.625,285.875,-403.0625
1589550540.079485,-0.73,0.9,-3.44,0.2766666666666667,-0.4633333333333333,-0.7388888888888889,74.5,229.0625,121.4375
1589550540.0903122,1.22,1.13,-2.81,0.2766666666666667,-0.4633333333333333,-0.7388888888888889,-6.0625,217.3125,84.4375
1589550540.0996232,0.82,-0.66,9.17,0.2766666666666667,-0.4633333333333333,-0.7388888888888889,-71.5625,203.0,65.5
1589550540.1112525,1.04,0.69,0.93,0.2766666666666667,-0.4633333333333333,-0.7388888888888889,-27.25,6.3125,26.25
1589550540.1244256,-0.6,0.2,1.72,0.4477777777777778,-0.4188888888888889,-0.6755555555555556,-18.3125,-82.625,6.8125
1589550540.1312466,-1.41,-0.51,2.86,0.4477777777777778,-0.4188888888888889,-0.6755555555555556,-1.4375,-175.125,2.4375
1589550540.143893,-1.12,-0.4,2.48,0.4477777777777778,-0.4188888888888889,-0.6755555555555556,3.6875,-257.5,-3.6875
1589550540.1499462,-7.88,-6.19,35.07,0.4477777777777778,-0.4188888888888889,-0.6755555555555556,-10.75,-338.4375,-35.8125
1589550540.165893,0.01,0.62,-6.44,0.4477777777777778,-0.4188888888888889,-0.6755555555555556,-33.6875,-84.375,-81.125
1589550540.1716645,-2.73,-0.35,6.04,0.4444444444444444,-0.38666666666666666,-0.6677777777777778,18.625,92.5625,-39.75
1589550540.1830425,0.96,2.02,2.25,0.4444444444444444,-0.38666666666666666,-0.6677777777777778,4.5,3.375,-46.8125
1589550540.1892176,1.88,1.18,7.45,0.4444444444444444,-0.38666666666666666,-0.6677777777777778,-10.875,-52.5625,-52.3125
1589550540.2032294,-4.08,-1.43,13.81,0.4444444444444444,-0.38666666666666666,-0.6677777777777778,-17.5625,-32.0625,0.8125
1589550540.2110329,-4.06,-0.7,8.64,0.4444444444444444,-0.38666666666666666,-0.6677777777777778,-8.375,-6.1875,3.125
1589550540.2202852,-3.32,-0.47,10.39,0.3922222222222223,-0.4,-0.7155555555555555,1.3125,3.625,0.0
1589550540.229694,-3.58,-0.33,9.14,0.3922222222222223,-0.4,-0.7155555555555555,0.875,-3.6875,-0.1875
1589550540.2391655,-3.76,-0.37,8.75,0.3922222222222223,-0.4,-0.7155555555555555,0.1875,2.75,0.1875
1589550540.2453372,-3.76,-0.37,8.75,0.3922222222222223,-0.4,-0.7155555555555555,0.1875,2.75,0.1875
1589550540.2519994,-3.7,-0.4,8.9,0.3922222222222223,-0.4,-0.7155555555555555,0.0625,0.0625,0.0
1589550540.2640314,-3.56,-0.39,9.24,0.3922222222222223,-0.4,-0.7155555555555555,0.25,-1.3125,0.0
1589550540.276247,-3.75,-0.36,8.97,0.3922222222222223,-0.4066666666666667,-0.73,-0.125,0.375,0.1875
1589550540.2823849,-3.4,-0.39,9.53,0.3922222222222223,-0.4066666666666667,-0.73,0.125,-0.1875,0.0625
1589550540.295838,-3.8,-0.41,9.0,0.3922222222222223,-0.4066666666666667,-0.73,0.0625,1.125,0.0625
1589550540.3017213,-3.63,-0.37,9.23,0.3922222222222223,-0.4066666666666667,-0.73,-0.0625,0.1875,-0.125
1589550540.3167286,-3.67,-0.38,9.03,0.3922222222222223,-0.4066666666666667,-0.73,-0.0625,-0.125,0.125
1589550540.3240807,-3.52,-0.37,9.36,0.38,-0.3944444444444444,-0.7088888888888889,0.0625,-0.5625,0.0
1589550540.3348546,-3.56,-0.41,9.21,0.38,-0.3944444444444444,-0.7088888888888889,-0.0625,0.125,0.0
1589550540.341525,-3.65,-0.39,9.05,0.38,-0.3944444444444444,-0.7088888888888889,0.0625,0.25,0.0
1589550540.354288,-3.73,-0.39,8.95,0.38,-0.3944444444444444,-0.7088888888888889,-0.0625,0.625,0.0
1589550540.3638124,-3.54,-0.38,9.33,0.38,-0.3944444444444444,-0.7088888888888889,0.0625,-0.625,-0.0625
1589550540.3712804,-3.59,-0.38,9.3,0.3977777777777778,-0.3944444444444444,-0.7155555555555555,-0.125,-0.0625,0.125
1589550540.3811765,-3.56,-0.37,9.3,0.3977777777777778,-0.3944444444444444,-0.7155555555555555,0.1875,-0.5,0.0
1589550540.3907616,-3.69,-0.41,9.04,0.3977777777777778,-0.3944444444444444,-0.7155555555555555,0.0625,0.5625,-0.0625
1589550540.401514,-3.71,-0.36,9.04,0.3977777777777778,-0.3944444444444444,-0.7155555555555555,-0.0625,0.375,0.0625
1589550540.41362,-3.58,-0.38,9.22,0.3977777777777778,-0.3944444444444444,-0.7155555555555555,0.0,-0.0625,0.0
1589550540.421626,-3.59,-0.38,9.22,0.3977777777777778,-0.3888888888888889,-0.7177777777777777,0.125,-0.625,0.0625
1589550540.4311574,-3.66,-0.4,9.18,0.3977777777777778,-0.3888888888888889,-0.7177777777777777,-0.0625,-0.25,0.0
1589550540.4460404,-3.68,-0.39,9.02,0.3977777777777778,-0.3888888888888889,-0.7177777777777777,0.125,-0.1875,0.0625
1589550540.4521387,-3.63,-0.38,9.08,0.3977777777777778,-0.3888888888888889,-0.7177777777777777,0.0625,0.9375,0.0625
1589550540.468402,-3.64,-0.38,9.14,0.3977777777777778,-0.3888888888888889,-0.7177777777777777,0.125,0.1875,0.0
1589550540.474287,-3.65,-0.39,9.18,0.37333333333333335,-0.3888888888888889,-0.7088888888888889,0.0,-0.25,0.0
1589550540.482891,-3.64,-0.41,9.17,0.37333333333333335,-0.3888888888888889,-0.7088888888888889,0.0625,-0.4375,0.0
1589550540.4917412,-3.58,-0.39,9.16,0.37333333333333335,-0.3888888888888889,-0.7088888888888889,0.0625,0.25,0.0625
1589550540.5055034,-3.64,-0.39,9.12,0.37333333333333335,-0.3888888888888889,-0.7088888888888889,0.0,0.3125,0.0625
1589550540.5139856,-3.59,-0.39,9.19,0.37333333333333335,-0.3888888888888889,-0.7088888888888889,0.0625,0.4375,0.0625
1589550540.5247226,-3.65,-0.4,9.21,0.4188888888888889,-0.4011111111111111,-0.7377777777777778,-0.0625,-0.25,-0.0625
1589550540.5315228,-3.61,-0.42,9.27,0.4188888888888889,-0.4011111111111111,-0.7377777777777778,-0.125,-0.25,0.0625
1589550540.5418482,-3.59,-0.38,9.14,0.4188888888888889,-0.4011111111111111,-0.7377777777777778,0.0,0.0,0.0625
1589550540.5524824,-3.62,-0.39,9.16,0.4188888888888889,-0.4011111111111111,-0.7377777777777778,-0.125,0.3125,-0.0625
1589550540.5644903,-3.7,-0.4,9.06,0.4188888888888889,-0.4011111111111111,-0.7377777777777778,-0.1875,0.3125,0.0625
1589550540.5720775,-3.63,-0.37,9.21,0.3855555555555555,-0.3888888888888889,-0.7155555555555555,0.0,-0.1875,-0.0625
1589550540.5823874,-3.62,-0.39,9.18,0.3855555555555555,-0.3888888888888889,-0.7155555555555555,0.125,-0.375,0.0625
1589550540.5928538,-3.58,-0.4,9.13,0.3855555555555555,-0.3888888888888889,-0.7155555555555555,0.0,-0.0625,0.0625
1589550540.6020858,-3.62,-0.39,9.14,0.3855555555555555,-0.3888888888888889,-0.7155555555555555,-0.0625,0.125,0.1875
1589550540.6187901,-3.63,-0.37,9.17,0.3855555555555555,-0.3888888888888889,-0.7155555555555555,-0.0625,0.1875,0.0
1589550540.6251502,-3.62,-0.39,9.2,0.3855555555555555,-0.4011111111111111,-0.7155555555555555,-0.0625,0.125,0.0
1589550540.6332927,-3.6,-0.36,9.26,0.3855555555555555,-0.4011111111111111,-0.7155555555555555,0.0625,-0.5625,0.0625
1589550540.6446807,-3.63,-0.37,9.1,0.3855555555555555,-0.4011111111111111,-0.7155555555555555,0.0,-0.3125,0.0
1589550540.6557488,-3.63,-0.38,9.12,0.3855555555555555,-0.4011111111111111,-0.7155555555555555,0.1875,0.0,0.0
1589550540.664923,-3.63,-0.37,9.12,0.3855555555555555,-0.4011111111111111,-0.7155555555555555,0.1875,0.25,0.0625
1589550540.6758704,-3.64,-0.4,9.15,0.38,-0.3944444444444444,-0.7155555555555555,0.0,0.1875,0.125
1589550540.682991,-3.64,-0.4,9.19,0.38,-0.3944444444444444,-0.7155555555555555,-0.0625,-0.125,0.0
1589550540.6937153,-3.61,-0.38,9.1,0.38,-0.3944444444444444,-0.7155555555555555,0.0,-0.3125,0.0
1589550540.7025564,-3.64,-0.39,9.15,0.38,-0.3944444444444444,-0.7155555555555555,0.125,0.125,0.125
1589550540.7154567,-3.62,-0.38,9.16,0.38,-0.3944444444444444,-0.7155555555555555,0.125,0.375,0.0
1589550540.7231634,-3.65,-0.37,9.16,0.3977777777777778,-0.4011111111111111,-0.7088888888888889,-0.0625,0.25,0.0
1589550540.7332802,-3.62,-0.38,9.16,0.3977777777777778,-0.4011111111111111,-0.7088888888888889,-0.0625,0.0,0.0
1589550540.7429118,-3.61,-0.38,9.15,0.3977777777777778,-0.4011111111111111,-0.7088888888888889,0.125,-0.125,0.0
1589550540.7532165,-3.61,-0.38,9.12,0.3977777777777778,-0.4011111111111111,-0.7088888888888889,0.0625,0.125,0.0625
1589550540.7701313,-3.64,-0.39,9.19,0.3977777777777778,-0.4011111111111111,-0.7088888888888889,0.0625,0.4375,0.1875
1589550540.7760475,-3.63,-0.38,9.15,0.3855555555555555,-0.4011111111111111,-0.73,0.0,0.25,0.125
1589550540.7833598,-3.63,-0.38,9.19,0.3855555555555555,-0.4011111111111111,-0.73,0.125,0.3125,0.0
1589550540.795891,-3.6,-0.39,9.13,0.3855555555555555,-0.4011111111111111,-0.73,0.0,-0.1875,0.0
1589550540.805613,-3.63,-0.39,9.18,0.3855555555555555,-0.4011111111111111,-0.73,0.125,-0.25,0.0
1589550540.8164554,-3.62,-0.42,9.17,0.3855555555555555,-0.4011111111111111,-0.73,0.0625,0.1875,0.0625
