time,acc_x,acc_y,acc_z,mag_x,mag_y,mag_z,gyr_x,gyr_y,gyr_z
1589550681.497482,-0.05,-4.13,8.79,0.4722222222222222,0.29444444444444445,-0.64,-0.25,-0.3125,0.0
1589550681.5094244,-0.05,-4.14,8.85,0.4722222222222222,0.29444444444444445,-0.64,-0.3125,-0.3125,-0.125
1589550681.5204186,-0.06,-4.15,8.86,0.4655555555555556,0.2877777777777778,-0.6111111111111112,-0.1875,-0.125,0.0625
1589550681.5267305,-0.04,-4.15,8.81,0.4655555555555556,0.2877777777777778,-0.6111111111111112,-0.125,-0.25,-0.0625
1589550681.5395608,-0.01,-4.15,8.76,0.4655555555555556,0.2877777777777778,-0.6111111111111112,0.0625,-0.0625,-0.0625
1589550681.5476296,-0.05,-4.14,8.77,0.4655555555555556,0.2877777777777778,-0.6111111111111112,0.1875,-0.1875,0.0625
1589550681.559205,-0.04,-4.15,8.79,0.4655555555555556,0.2877777777777778,-0.6111111111111112,-0.0625,-0.25,0.0625
1589550681.5675461,-0.06,-4.15,8.88,0.4722222222222222,0.28,-0.6266666666666667,-0.125,-0.5,0.125
1589550681.5795865,-0.06,-4.14,8.83,0.4722222222222222,0.28,-0.6266666666666667,-0.25,-0.375,-0.0625
1589550681.5895734,-0.05,-4.15,8.74,0.4722222222222222,0.28,-0.6266666666666667,-0.4375,-0.5625,-0.0625
1589550681.5981064,0.12,-4.22,9.17,0.4722222222222222,0.28,-0.6266666666666667,-1.625,-2.125,-0.1875
1589550681.6142848,-0.02,-4.15,8.91,0.4722222222222222,0.28,-0.6266666666666667,-1.3125,-1.75,-0.375
1589550681.620386,-0.06,-4.1,8.72,0.4722222222222222,0.2877777777777778,-0.5966666666666667,-0.3125,0.4375,-0.3125
1589550681.628036,-0.02,-4.1,8.92,0.4722222222222222,0.2877777777777778,-0.5966666666666667,-0.875,-0.6875,-0.5625
1589550681.6401136,0.0,-4.16,8.83,0.4722222222222222,0.2877777777777778,-0.5966666666666667,-1.25,-1.125,-0.625
1589550681.6481144,0.0,-4.15,8.92,0.4722222222222222,0.2877777777777778,-0.5966666666666667,-1.8125,-1.75,-1.0
1589550681.6598015,-0.14,-3.98,8.61,0.4722222222222222,0.2877777777777778,-0.5966666666666667,-1.375,-0.875,-0.875
1589550681.6713407,-0.13,-3.71,8.7,0.4722222222222222,0.29444444444444445,-0.6322222222222222,-3.8125,-3.25,-1.5
1589550681.677973,-0.18,-3.09,8.95,0.4722222222222222,0.29444444444444445,-0.6322222222222222,-6.1875,-5.0625,-3.1875
1589550681.6926582,-0.4,-2.73,8.75,0.4722222222222222,0.29444444444444445,-0.6322222222222222,-6.125,-4.0,-5.75
1589550681.6994376,-0.22,-2.54,9.38,0.4722222222222222,0.29444444444444445,-0.6322222222222222,-4.8125,-3.0,-7.8125
1589550681.7094016,-0.26,-2.72,8.17,0.4722222222222222,0.29444444444444445,-0.6322222222222222,2.375,4.375,0.125
1589550681.7168055,-0.2,-2.8,8.77,0.4722222222222222,0.29444444444444445,-0.6266666666666667,2.25,1.1875,11.1875
1589550681.7310975,-0.13,-2.89,8.97,0.4722222222222222,0.29444444444444445,-0.6266666666666667,-1.6875,-2.1875,18.9375
1589550681.7376854,-0.17,-2.97,8.83,0.4722222222222222,0.29444444444444445,-0.6266666666666667,0.25,-0.9375,25.0
1589550681.749877,-0.32,-3.05,8.8,0.4722222222222222,0.29444444444444445,-0.6266666666666667,0.9375,-0.8125,30.875
1589550681.7600162,-0.27,-3.16,8.92,0.4722222222222222,0.29444444444444445,-0.6266666666666667,0.0,-1.9375,37.0
1589550681.7679539,-0.19,-3.05,9.08,0.4722222222222222,0.29444444444444445,-0.6055555555555555,0.5625,-1.8125,42.5625
1589550681.7786946,-0.23,-3.11,8.96,0.4722222222222222,0.29444444444444445,-0.6055555555555555,0.875,-1.4375,46.5625
1589550681.7908356,-0.19,-3.13,8.84,0.4722222222222222,0.29444444444444445,-0.6055555555555555,0.0,-2.4375,49.8125
1589550681.8003573,-0.26,-3.04,8.83,0.4722222222222222,0.29444444444444445,-0.6055555555555555,0.125,-2.375,53.0
1589550681.811582,-0.35,-3.11,8.81,0.4722222222222222,0.29444444444444445,-0.6055555555555555,0.5,-2.625,56.8125
1589550681.822573,-0.4,-3.25,8.81,0.48,0.29444444444444445,-0.6266666666666667,0.1875,-3.25,61.25
1589550681.8285544,-0.41,-3.28,8.91,0.48,0.29444444444444445,-0.6266666666666667,0.25,-3.625,65.8125
1589550681.8435163,-0.37,-3.31,8.67,0.48,0.29444444444444445,-0.6266666666666667,0.75,-3.25,70.375
1589550681.8495915,-0.4,-3.32,8.8,0.48,0.29444444444444445,-0.6266666666666667,0.4375,-3.6875,73.8125
1589550681.8642347,-0.41,-3.32,8.75,0.48,0.29444444444444445,-0.6266666666666667,0.8125,-3.0,76.875
1589550681.8703392,-0.46,-3.38,9.02,0.4922222222222222,0.2611111111111111,-0.62,1.0625,-3.5,79.6875
1589550681.8796198,-0.47,-3.35,8.92,0.4922222222222222,0.2611111111111111,-0.62,0.6875,-3.25,82.5
1589550681.889516,-0.58,-3.36,8.89,0.4922222222222222,0.2611111111111111,-0.62,0.8125,-3.75,85.0625
1589550681.8999286,-0.75,-3.48,8.9,0.4922222222222222,0.2611111111111111,-0.62,0.5,-4.125,88.3125
1589550681.9110696,-0.74,-3.37,8.7,0.4922222222222222,0.2611111111111111,-0.62,0.6875,-3.875,92.75
1589550681.9214935,-0.78,-3.37,8.85,0.5188888888888888,0.2411111111111111,-0.6266666666666667,0.5625,-4.9375,97.4375
1589550681.9292915,-0.71,-3.24,8.84,0.5188888888888888,0.2411111111111111,-0.6266666666666667,0.4375,-5.3125,101.5625
1589550681.939262,-0.69,-3.19,8.81,0.5188888888888888,0.2411111111111111,-0.6266666666666667,0.6875,-5.1875,104.4375
1589550681.949393,-0.74,-3.16,8.81,0.5188888888888888,0.2411111111111111,-0.6266666666666667,0.75,-4.9375,106.625
1589550681.961328,-0.77,-3.29,8.82,0.5188888888888888,0.2411111111111111,-0.6266666666666667,1.375,-4.25,108.3125
1589550681.9737113,-0.78,-3.23,8.67,0.5255555555555556,0.1955555555555556,-0.6177777777777778,2.4375,-2.6875,108.75
1589550681.9795127,-0.81,-3.34,8.99,0.5255555555555556,0.1955555555555556,-0.6177777777777778,1.1875,-4.6875,108.0625
1589550681.9953208,-0.79,-3.15,8.9,0.5255555555555556,0.1955555555555556,-0.6177777777777778,0.5,-5.125,106.5625
1589550682.001891,-0.96,-3.07,8.71,0.5255555555555556,0.1955555555555556,-0.6177777777777778,1.5625,-4.6875,105.4375
1589550682.0146742,-1.12,-3.17,8.94,0.5255555555555556,0.1955555555555556,-0.6177777777777778,-0.3125,-6.4375,104.6875
1589550682.0206616,-1.08,-3.14,9.06,0.5455555555555556,0.16333333333333333,-0.6533333333333333,-0.8125,-7.0,105.0625
1589550682.0328321,-1.13,-3.14,8.87,0.5455555555555556,0.16333333333333333,-0.6533333333333333,0.8125,-5.375,105.875
1589550682.0397804,-1.23,-3.19,8.86,0.5455555555555556,0.16333333333333333,-0.6533333333333333,0.6875,-5.4375,106.1875
1589550682.0531075,-1.15,-3.09,8.83,0.5455555555555556,0.16333333333333333,-0.6533333333333333,1.0625,-4.625,106.3125
1589550682.062487,-1.18,-3.07,8.72,0.5455555555555556,0.16333333333333333,-0.6533333333333333,1.625,-4.4375,105.8125
1589550682.072931,-1.15,-3.03,8.92,0.5511111111111111,0.11666666666666667,-0.6466666666666666,0.5,-5.4375,103.5
1589550682.0799632,-1.35,-3.09,8.94,0.5511111111111111,0.11666666666666667,-0.6466666666666666,0.5,-4.8125,100.625
1589550682.0904512,-1.41,-3.13,8.8,0.5511111111111111,0.11666666666666667,-0.6466666666666666,1.5625,-4.0625,98.6875
1589550682.1000204,-1.42,-3.05,8.81,0.5511111111111111,0.11666666666666667,-0.6466666666666666,1.25,-4.1875,97.0625
1589550682.1112845,-1.48,-3.0,9.06,0.5511111111111111,0.11666666666666667,-0.6466666666666666,0.625,-4.8125,95.625
1589550682.1195164,-1.67,-3.14,8.92,0.5633333333333334,0.07777777777777778,-0.6733333333333333,0.4375,-4.75,94.25
1589550682.1302295,-1.65,-3.0,8.77,0.5633333333333334,0.07777777777777778,-0.6733333333333333,0.3125,-4.4375,93.25
1589550682.1399748,-1.67,-2.98,8.99,0.5633333333333334,0.07777777777777778,-0.6733333333333333,0.3125,-5.5625,91.6875
1589550682.150465,-1.6,-2.84,8.74,0.5633333333333334,0.07777777777777778,-0.6733333333333333,0.75,-4.1875,90.125
1589550682.1678364,-1.67,-2.93,8.94,0.5633333333333334,0.07777777777777778,-0.6733333333333333,0.6875,-3.875,88.25
1589550682.1731994,-1.69,-2.86,8.96,0.5688888888888889,0.04444444444444445,-0.6877777777777778,0.75,-3.6875,85.25
1589550682.1806946,-1.64,-2.66,8.8,0.5688888888888889,0.04444444444444445,-0.6877777777777778,1.25,-3.0625,82.4375
1589550682.1915398,-1.73,-2.74,8.97,0.5688888888888889,0.04444444444444445,-0.6877777777777778,0.5625,-4.1875,79.1875
1589550682.204494,-1.73,-2.7,8.82,0.5688888888888889,0.04444444444444445,-0.6877777777777778,0.6875,-3.625,76.3125
1589550682.2133613,-1.95,-2.83,9.1,0.5688888888888889,0.04444444444444445,-0.6877777777777778,0.625,-3.875,72.875
1589550682.2242432,-1.98,-2.81,8.92,0.52,0.004444444444444445,-0.7155555555555555,0.25,-3.375,69.4375
1589550682.2308006,-2.06,-2.83,8.96,0.52,0.004444444444444445,-0.7155555555555555,0.5,-3.0,66.625
1589550682.2401595,-2.11,-2.87,8.93,0.52,0.004444444444444445,-0.7155555555555555,0.0,-3.0625,63.875
1589550682.2461884,-2.11,-2.87,8.93,0.52,0.004444444444444445,-0.7155555555555555,0.0,-3.0625,63.875
1589550682.2526064,-2.18,-2.81,8.96,0.52,0.004444444444444445,-0.7155555555555555,0.25,-2.875,60.875
1589550682.262321,-2.17,-2.75,8.96,0.52,0.004444444444444445,-0.7155555555555555,0.0,-3.125,57.875
1589550682.273262,-2.01,-2.56,8.92,0.5466666666666666,-0.015555555555555557,-0.73,0.5625,-2.125,55.4375
1589550682.2822444,-1.98,-2.52,8.75,0.5466666666666666,-0.015555555555555557,-0.73,0.5,-2.0,52.75
1589550682.2916286,-2.2,-2.68,8.89,0.5466666666666666,-0.015555555555555557,-0.73,0.3125,-2.0,50.0
1589550682.3026955,-2.3,-2.71,9.09,0.5466666666666666,-0.015555555555555557,-0.73,-0.4375,-3.0625,46.6875
1589550682.3183208,-2.37,-2.74,8.89,0.5466666666666666,-0.015555555555555557,-0.73,0.25,-1.375,44.5
1589550682.324077,-2.25,-2.63,9.05,0.5377777777777778,-0.03555555555555556,-0.7422222222222222,0.8125,-1.25,42.375
1589550682.33219,-2.23,-2.58,8.91,0.5377777777777778,-0.03555555555555556,-0.7422222222222222,0.0625,-2.0,40.0625
1589550682.341793,-2.43,-2.68,8.94,0.5377777777777778,-0.03555555555555556,-0.7422222222222222,-0.5,-1.875,37.9375
1589550682.3561525,-2.36,-2.61,8.84,0.5377777777777778,-0.03555555555555556,-0.7422222222222222,-0.4375,-1.75,36.5
1589550682.3636684,-2.38,-2.62,9.06,0.5377777777777778,-0.03555555555555556,-0.7422222222222222,-0.9375,-2.1875,36.125
1589550682.3759465,-2.48,-2.62,9.0,0.5222222222222223,-0.06222222222222223,-0.7711111111111111,-0.25,-1.0625,36.5625
1589550682.3827074,-2.55,-2.62,8.87,0.5222222222222223,-0.06222222222222223,-0.7711111111111111,0.9375,0.0,37.5625
1589550682.3919275,-2.86,-2.78,8.97,0.5222222222222223,-0.06222222222222223,-0.7711111111111111,-0.1875,-0.9375,38.375
1589550682.4011366,-2.78,-2.68,8.9,0.5222222222222223,-0.06222222222222223,-0.7711111111111111,-0.3125,-1.5,40.25
1589550682.4129472,-2.91,-2.71,8.92,0.5222222222222223,-0.06222222222222223,-0.7711111111111111,0.1875,-0.9375,43.1875
1589550682.4205725,-3.11,-2.81,9.07,0.4833333333333333,-0.12777777777777774,-0.7588888888888888,0.125,-1.375,46.5625
1589550682.4359145,-2.91,-2.63,8.98,0.4833333333333333,-0.12777777777777774,-0.7588888888888888,-0.0625,-1.25,50.5625
1589550682.4433653,-3.11,-2.74,9.07,0.4833333333333333,-0.12777777777777774,-0.7588888888888888,-0.8125,-1.9375,54.5
1589550682.4557006,-3.1,-2.68,8.8,0.4833333333333333,-0.12777777777777774,-0.7588888888888888,0.0625,-0.8125,58.4375
1589550682.468708,-3.1,-2.68,9.3,0.4833333333333333,-0.12777777777777774,-0.7588888888888888,0.4375,-0.875,63.0
1589550682.4740882,-2.91,-2.49,8.91,0.4577777777777778,-0.15555555555555556,-0.75,-1.25,-3.0,66.5
1589550682.4832752,-2.96,-2.44,8.55,0.4577777777777778,-0.15555555555555556,-0.75,0.375,-0.5625,70.625
1589550682.4942102,-2.96,-2.49,9.26,0.4577777777777778,-0.15555555555555556,-0.75,-0.8125,-3.5625,72.625
1589550682.5058846,-2.9,-2.36,8.54,0.4577777777777778,-0.15555555555555556,-0.75,-0.6875,-2.75,74.625
1589550682.5134327,-2.87,-2.35,8.64,0.4577777777777778,-0.15555555555555556,-0.75,1.8125,1.1875,76.875
1589550682.5214627,-3.01,-2.43,9.32,0.4811111111111111,-0.18777777777777774,-0.7422222222222222,-0.5625,-3.5,76.3125
1589550682.5333269,-3.05,-2.36,9.2,0.4811111111111111,-0.18777777777777774,-0.7422222222222222,-1.5,-3.6875,75.9375
1589550682.541496,-3.07,-2.29,8.98,0.4811111111111111,-0.18777777777777774,-0.7422222222222222,0.4375,-1.375,76.4375
1589550682.5492187,-3.07,-2.29,8.98,0.4811111111111111,-0.18777777777777774,-0.7422222222222222,0.4375,-1.375,76.4375
1589550682.5554452,-3.18,-2.32,9.29,0.4811111111111111,-0.18777777777777774,-0.7422222222222222,-0.125,-3.0625,76.375
1589550682.5638757,-3.03,-2.22,8.97,0.4811111111111111,-0.18777777777777774,-0.7422222222222222,0.0625,-1.5,77.3125
1589550682.5719538,-2.83,-2.03,8.79,0.4155555555555556,-0.2222222222222222,-0.7711111111111111,2.0,0.375,78.3125
1589550682.586737,-2.92,-2.01,8.67,0.4155555555555556,-0.2222222222222222,-0.7711111111111111,0.625,-1.625,76.3125
1589550682.593474,-3.23,-2.21,9.26,0.4155555555555556,-0.2222222222222222,-0.7711111111111111,-2.0625,-5.25,73.0
1589550682.6057124,-3.14,-2.1,9.34,0.4155555555555556,-0.2222222222222222,-0.7711111111111111,-1.25,-5.3125,71.5625
1589550682.6202033,-2.65,-1.78,9.1,0.4155555555555556,-0.2222222222222222,-0.7711111111111111,1.3125,-0.9375,71.25
1589550682.6261175,-2.49,-1.67,8.58,0.34444444444444444,-0.2966666666666667,-0.7155555555555555,0.4375,-2.5,68.6875
1589550682.6342096,-2.55,-1.69,9.22,0.34444444444444444,-0.2966666666666667,-0.7155555555555555,-1.4375,-4.3125,64.5625
1589550682.6443918,-2.87,-1.69,8.85,0.34444444444444444,-0.2966666666666667,-0.7155555555555555,-0.875,-4.625,60.875
1589550682.655596,-2.87,-1.68,8.65,0.34444444444444444,-0.2966666666666667,-0.7155555555555555,1.8125,-0.1875,60.6875
1589550682.664632,-2.74,-1.66,9.36,0.34444444444444444,-0.2966666666666667,-0.7155555555555555,1.1875,-0.3125,59.875
1589550682.6784313,-2.58,-1.49,8.77,0.3533333333333333,-0.31222222222222223,-0.6588888888888889,1.0,-1.0,57.125
1589550682.6851091,-2.58,-1.59,9.55,0.3533333333333333,-0.31222222222222223,-0.6588888888888889,0.5625,-1.375,51.5625
1589550682.6973298,-2.91,-1.64,9.23,0.3533333333333333,-0.31222222222222223,-0.6588888888888889,-3.125,-7.0625,44.75
1589550682.7034824,-2.95,-1.49,8.55,0.3533333333333333,-0.31222222222222223,-0.6588888888888889,-0.0625,-1.375,40.6875
1589550682.7155678,-2.38,-1.32,8.76,0.3533333333333333,-0.31222222222222223,-0.6588888888888889,1.0,-0.9375,37.6875
1589550682.721993,-2.78,-1.41,9.0,0.3622222222222222,-0.3144444444444445,-0.6444444444444445,-0.9375,-3.875,28.625
1589550682.7369692,-2.75,-1.44,9.57,0.3622222222222222,-0.3144444444444445,-0.6444444444444445,-0.9375,-3.875,28.625
1589550682.7427554,-2.43,-1.22,8.36,0.3622222222222222,-0.3144444444444445,-0.6444444444444445,-0.875,-1.9375,25.125
1589550682.7558525,-2.36,-1.32,9.61,0.3622222222222222,-0.3144444444444445,-0.6444444444444445,-1.3125,-3.6875,18.1875
1589550682.7653108,-2.2,-1.21,8.71,0.3622222222222222,-0.3144444444444445,-0.6444444444444445,0.3125,0.75,14.6875
1589550682.7772648,-2.17,-1.22,9.09,0.38222222222222224,-0.3033333333333333,-0.64,1.3125,0.25,8.75
1589550682.784147,-2.38,-1.31,9.08,0.38222222222222224,-0.3033333333333333,-0.64,1.25,0.8125,2.0
1589550682.79371,-2.76,-1.36,8.96,0.38222222222222224,-0.3033333333333333,-0.64,0.0,1.375,-4.5
1589550682.8035002,-2.78,-1.46,9.17,0.38222222222222224,-0.3033333333333333,-0.64,0.9375,2.3125,-8.6875
1589550682.8153687,-2.54,-1.27,8.55,0.38222222222222224,-0.3033333333333333,-0.64,0.4375,0.0,-13.8125
1589550682.8224373,-1.79,-1.19,9.06,0.4033333333333333,-0.2966666666666667,-0.6088888888888889,-3.25,-4.5625,-21.5
1589550682.8341894,-2.57,-1.46,9.84,0.4033333333333333,-0.2966666666666667,-0.6088888888888889,-1.125,-1.1875,-27.4375
1589550682.8434775,-2.66,-1.41,8.97,0.4033333333333333,-0.2966666666666667,-0.6088888888888889,2.6875,5.375,-30.5625
1589550682.855844,-2.38,-1.33,8.5,0.4033333333333333,-0.2966666666666667,-0.6088888888888889,1.0625,3.125,-35.5
1589550682.8686562,-2.21,-1.27,8.06,0.4033333333333333,-0.2966666666666667,-0.6088888888888889,-0.1875,1.5625,-41.25
1589550682.8745673,-2.6,-1.62,9.42,0.4222222222222222,-0.27555555555555555,-0.6111111111111112,-3.5,-4.4375,-46.8125
1589550682.8883355,-2.88,-1.72,9.83,0.4222222222222222,-0.27555555555555555,-0.6111111111111112,-0.375,2.4375,-49.5625
1589550682.8951097,-2.64,-1.56,8.62,0.4222222222222222,-0.27555555555555555,-0.6111111111111112,0.4375,2.4375,-51.375
1589550682.9070628,-2.45,-1.61,9.29,0.4222222222222222,-0.27555555555555555,-0.6111111111111112,-1.75,-1.375,-53.25
1589550682.9160018,-2.41,-1.57,9.02,0.4222222222222222,-0.27555555555555555,-0.6111111111111112,-1.6875,0.4375,-54.5625
1589550682.926936,-2.33,-1.11,9.06,0.4533333333333333,-0.2611111111111111,-0.64,-0.5625,1.0,-59.9375
1589550682.9343019,-1.38,-1.17,9.8,0.4533333333333333,-0.2611111111111111,-0.64,-1.9375,1.875,-75.625
1589550682.9482336,-1.08,-1.04,8.23,0.4533333333333333,-0.2611111111111111,-0.64,4.125,9.9375,-93.625
1589550682.9543145,-1.36,-1.84,8.21,0.4533333333333333,-0.2611111111111111,-0.64,-2.1875,2.5625,-115.5
1589550682.965974,-2.03,-3.37,9.37,0.4533333333333333,-0.2611111111111111,-0.64,-1.875,5.3125,-132.3125
1589550682.9733179,-1.87,-2.9,7.95,0.4722222222222222,-0.23555555555555555,-0.6444444444444445,4.0625,13.0625,-139.0
1589550682.9835768,-1.87,-2.9,7.95,0.4722222222222222,-0.23555555555555555,-0.6444444444444445,4.0625,13.0625,-139.0
1589550682.9896722,-1.56,-2.45,8.24,0.4722222222222222,-0.23555555555555555,-0.6444444444444445,-3.3125,4.1875,-151.1875
1589550683.0014794,-1.48,-2.52,9.6,0.4722222222222222,-0.23555555555555555,-0.6444444444444445,-4.5625,1.875,-168.0625
1589550683.0080714,-1.76,-2.22,7.73,0.4722222222222222,-0.23555555555555555,-0.6444444444444445,3.3125,16.25,-179.875
1589550683.0171206,-1.74,-2.41,7.92,0.4722222222222222,-0.23555555555555555,-0.6444444444444445,-0.9375,8.5625,-192.25
1589550683.0244136,-2.15,-2.81,9.88,0.4866666666666667,-0.18222222222222226,-0.6444444444444445,-6.4375,1.4375,-199.25
1589550683.0394886,-2.52,-2.91,9.27,0.4866666666666667,-0.18222222222222226,-0.6444444444444445,-2.5,8.8125,-199.4375
1589550683.045921,-2.1,-2.77,9.46,0.4866666666666667,-0.18222222222222226,-0.6444444444444445,0.875,12.5,-198.875
1589550683.0591412,-1.87,-2.56,7.39,0.4866666666666667,-0.18222222222222226,-0.6444444444444445,2.375,14.125,-197.375
1589550683.0663972,-2.09,-3.01,9.08,0.4866666666666667,-0.18222222222222226,-0.6444444444444445,-5.3125,2.625,-199.8125
1589550683.0748663,-1.98,-2.85,8.56,0.5377777777777778,-0.14333333333333334,-0.6611111111111111,-3.375,9.0625,-198.3125
1589550683.0862296,-2.28,-3.26,8.84,0.5377777777777778,-0.14333333333333334,-0.6611111111111111,-1.25,9.0625,-192.875
1589550683.0979824,-2.35,-3.47,9.04,0.5377777777777778,-0.14333333333333334,-0.6611111111111111,-1.4375,7.5,-184.625
1589550683.104552,-2.39,-3.54,8.93,0.5377777777777778,-0.14333333333333334,-0.6611111111111111,-2.125,8.1875,-175.9375
1589550683.119786,-2.42,-3.58,8.85,0.5377777777777778,-0.14333333333333334,-0.6611111111111111,-0.875,7.1875,-165.6875
1589550683.1266954,-2.46,-3.71,9.02,0.5777777777777777,-0.18777777777777774,-0.6177777777777778,-1.4375,5.5,-154.6875
1589550683.1394465,-2.43,-3.64,8.9,0.5777777777777777,-0.18777777777777774,-0.6177777777777778,-3.5,4.5,-143.4375
1589550683.1461005,-2.34,-3.55,8.78,0.5777777777777777,-0.18777777777777774,-0.6177777777777778,-0.375,5.9375,-130.3125
1589550683.1584218,-2.29,-3.46,8.56,0.5777777777777777,-0.18777777777777774,-0.6177777777777778,-0.625,5.8125,-116.0625
1589550683.1686487,-2.14,-3.25,9.06,0.5777777777777777,-0.18777777777777774,-0.6177777777777778,-1.8125,3.375,-101.0
1589550683.175174,-2.03,-3.25,9.67,0.7677777777777778,-0.5255555555555556,-0.3422222222222222,1.9375,7.375,-85.125
1589550683.180643,-2.03,-3.25,9.67,0.7677777777777778,-0.5255555555555556,-0.3422222222222222,1.9375,7.375,-85.125
1589550683.1914911,-1.83,-3.15,7.71,0.7677777777777778,-0.5255555555555556,-0.3422222222222222,2.25,8.625,-70.3125
1589550683.1975641,-1.73,-3.25,8.93,0.7677777777777778,-0.5255555555555556,-0.3422222222222222,-4.9375,-4.875,-60.1875
1589550683.2106173,-1.76,-3.5,10.25,0.7677777777777778,-0.5255555555555556,-0.3422222222222222,-3.9375,-2.1875,-49.5625
1589550683.2173545,-1.23,-2.75,7.39,0.7677777777777778,-0.5255555555555556,-0.3422222222222222,4.5625,10.75,-39.375
1589550683.2260857,-1.3,-3.21,8.98,1.4311111111111108,0.12777777777777774,-0.20444444444444448,1.8125,2.6875,-35.4375
1589550683.2361,-1.35,-3.33,9.82,1.4311111111111108,0.12777777777777774,-0.20444444444444448,-4.5625,-2.8125,-32.1875
1589550683.249489,-1.31,-3.32,8.58,1.4311111111111108,0.12777777777777774,-0.20444444444444448,0.125,4.25,-26.75
1589550683.255898,-1.2,-3.53,9.38,1.4311111111111108,0.12777777777777774,-0.20444444444444448,-0.1875,-2.125,-23.375
1589550683.2684472,-1.27,-3.75,9.79,1.4311111111111108,0.12777777777777774,-0.20444444444444448,-1.5625,-3.5,-19.5625
1589550683.2751822,-1.12,-3.22,7.77,0.83,0.12555555555555556,-0.6677777777777778,-0.375,2.6875,-15.875
1589550683.2892935,-1.19,-3.61,9.4,0.83,0.12555555555555556,-0.6677777777777778,0.5,-1.4375,-13.3125
1589550683.2965386,-1.11,-3.53,8.16,0.83,0.12555555555555556,-0.6677777777777778,1.625,2.6875,-11.0625
1589550683.3063948,-1.19,-3.73,8.78,0.83,0.12555555555555556,-0.6677777777777778,-0.125,0.4375,-11.625
1589550683.319597,-1.05,-3.61,9.38,0.83,0.12555555555555556,-0.6677777777777778,-0.1875,-0.4375,-13.75
1589550683.326058,-0.95,-3.49,8.7,0.6044444444444445,0.10111111111111112,-0.6966666666666667,0.375,1.5,-14.875
1589550683.3413644,-1.12,-3.78,9.05,0.6044444444444445,0.10111111111111112,-0.6966666666666667,-0.875,-2.125,-17.1875
1589550683.3473005,-1.06,-3.67,9.25,0.6044444444444445,0.10111111111111112,-0.6966666666666667,-0.6875,-0.3125,-18.5625
1589550683.3613598,-0.93,-3.49,8.3,0.6044444444444445,0.10111111111111112,-0.6966666666666667,0.4375,2.125,-19.4375
1589550683.3679626,-1.08,-3.77,9.47,0.6044444444444445,0.10111111111111112,-0.6966666666666667,-1.4375,-1.6875,-21.1875
1589550683.377048,-0.98,-3.58,8.86,0.5611111111111111,0.13666666666666666,-0.7322222222222222,0.5,1.4375,-20.8125
1589550683.3873274,-0.95,-3.53,8.73,0.5611111111111111,0.13666666666666666,-0.7322222222222222,1.3125,2.9375,-20.25
1589550683.3975682,-0.85,-3.35,8.83,0.5611111111111111,0.13666666666666666,-0.7322222222222222,-0.9375,-0.125,-21.375
1589550683.4065735,-0.9,-3.48,9.09,0.5611111111111111,0.13666666666666666,-0.7322222222222222,-1.8125,-2.25,-22.9375
1589550683.4186034,-0.82,-3.17,9.08,0.5611111111111111,0.13666666666666666,-0.7322222222222222,-0.125,0.0625,-23.625
1589550683.4256828,-0.81,-3.27,8.7,0.5555555555555556,0.13444444444444445,-0.7111111111111111,1.4375,2.4375,-23.75
1589550683.4325447,-0.81,-3.27,8.7,0.5555555555555556,0.13444444444444445,-0.7111111111111111,1.4375,2.4375,-23.75
1589550683.446506,-0.52,-3.18,8.59,0.5555555555555556,0.13444444444444445,-0.7111111111111111,-0.8125,-0.25,-27.4375
1589550683.4555984,-0.52,-3.18,8.59,0.5555555555555556,0.13444444444444445,-0.7111111111111111,-0.8125,-0.25,-27.4375
1589550683.4610744,-0.54,-3.32,9.49,0.5555555555555556,0.13444444444444445,-0.7111111111111111,-1.9375,-3.75,-31.625
1589550683.4687192,-0.51,-3.29,8.68,0.5555555555555556,0.13444444444444445,-0.7111111111111111,0.0,1.25,-34.5625
1589550683.4799087,-0.54,-3.52,8.78,0.5511111111111111,0.13111111111111112,-0.6966666666666667,0.875,1.5,-38.5
1589550683.4925928,-0.69,-3.72,9.12,0.5511111111111111,0.13111111111111112,-0.6966666666666667,-0.5625,0.0625,-44.4375
1589550683.499306,-0.81,-3.82,8.94,0.5511111111111111,0.13111111111111112,-0.6966666666666667,0.0625,2.75,-49.9375
1589550683.512823,-0.87,-3.76,8.85,0.5511111111111111,0.13111111111111112,-0.6966666666666667,1.75,5.0,-53.5
1589550683.5191288,-8.86,-12.59,9.8,0.5511111111111111,0.13111111111111112,-0.6966666666666667,2.5,5.375,-56.1875
1589550683.5281985,-19.24,-9.05,0.56,0.5111111111111111,0.15222222222222226,-0.6877777777777778,-8.25,41.5,-95.9375
1589550683.5376027,2.88,-3.94,1.47,0.5111111111111111,0.15222222222222226,-0.6877777777777778,-94.875,-76.1875,-566.25
1589550683.5512884,-1.42,-4.27,9.31,0.5111111111111111,0.15222222222222226,-0.6877777777777778,-85.4375,-24.25,-502.625
1589550683.5573056,-5.97,-4.04,15.1,0.5111111111111111,0.15222222222222226,-0.6877777777777778,-14.5,116.8125,-421.4375
1589550683.570037,-1.5,-2.99,3.87,0.5111111111111111,0.15222222222222226,-0.6877777777777778,88.875,40.3125,-368.1875
1589550683.577966,-2.37,-0.52,1.79,0.4811111111111111,0.28,-0.6733333333333333,106.5,56.1875,-308.0
1589550683.5871944,-0.74,-1.6,7.45,0.4811111111111111,0.28,-0.6733333333333333,-20.75,17.0625,-218.1875
1589550683.5946352,-0.74,-1.6,7.45,0.4811111111111111,0.28,-0.6733333333333333,-20.75,17.0625,-218.1875
1589550683.6008244,1.43,-2.46,14.89,0.4811111111111111,0.28,-0.6733333333333333,-28.9375,-26.0,-167.625
1589550683.6126394,0.87,-1.39,7.66,0.4811111111111111,0.28,-0.6733333333333333,17.8125,24.0625,-149.5625
1589550683.6196678,1.19,-4.41,8.36,0.4811111111111111,0.28,-0.6733333333333333,2.875,14.0625,-105.3125
1589550683.627558,1.16,1.95,6.42,0.4066666666666667,0.4033333333333333,-0.6677777777777778,-2.375,3.3125,-1.6875
1589550683.6376019,2.88,-0.32,11.84,0.4066666666666667,0.4033333333333333,-0.6677777777777778,3.3125,-14.375,7.5625
1589550683.6488984,0.17,-7.45,8.06,0.4066666666666667,0.4033333333333333,-0.6677777777777778,-4.125,0.0,8.25
1589550683.6582296,0.73,-5.48,8.38,0.4066666666666667,0.4033333333333333,-0.6677777777777778,-1.125,3.8125,16.125
1589550683.6698186,0.81,-1.41,8.1,0.4066666666666667,0.4033333333333333,-0.6677777777777778,3.1875,0.0625,42.875
1589550683.6771307,0.6,-4.84,10.15,0.38222222222222224,0.4133333333333333,-0.6822222222222222,0.75,-5.8125,42.5625
1589550683.6877718,0.6,-4.84,10.15,0.38222222222222224,0.4133333333333333,-0.6822222222222222,0.75,-5.8125,42.5625
1589550683.6935349,0.27,-3.64,8.54,0.38222222222222224,0.4133333333333333,-0.6822222222222222,-0.125,0.1875,48.3125
1589550683.7042592,0.23,-4.32,9.16,0.38222222222222224,0.4133333333333333,-0.6822222222222222,0.1875,-3.0,54.0625
1589550683.7110405,0.4,-3.43,8.5,0.38222222222222224,0.4133333333333333,-0.6822222222222222,0.125,-2.625,61.0
1589550683.7240195,0.4,-3.71,8.75,0.38222222222222224,0.4133333333333333,-0.6822222222222222,0.625,-1.875,65.5625
1589550683.7292135,0.14,-3.99,8.78,0.3944444444444444,0.4122222222222222,-0.6755555555555556,2.875,-1.6875,71.25
1589550683.7441206,-0.01,-3.93,8.93,0.3944444444444444,0.4122222222222222,-0.6755555555555556,0.3125,-2.9375,75.3125
1589550683.7499607,0.19,-3.74,8.73,0.3944444444444444,0.4122222222222222,-0.6755555555555556,-0.4375,-4.375,81.3125
1589550683.758513,-0.04,-3.98,8.63,0.3944444444444444,0.4122222222222222,-0.6755555555555556,0.375,-3.1875,86.9375
1589550683.7711232,-0.03,-3.95,8.54,0.3944444444444444,0.4122222222222222,-0.6755555555555556,1.5,-3.0,93.0625
1589550683.7823384,0.31,-4.31,9.01,0.4133333333333333,0.3944444444444444,-0.6822222222222222,0.4375,-5.0625,98.5
1589550683.7889555,0.33,-4.32,8.85,0.4133333333333333,0.3944444444444444,-0.6822222222222222,0.625,-5.25,102.0
1589550683.8010507,2.24,-3.26,7.65,0.4133333333333333,0.3944444444444444,-0.6822222222222222,-0.4375,-6.8125,97.5
1589550683.8086088,-0.51,-1.56,10.2,0.4133333333333333,0.3944444444444444,-0.6822222222222222,-7.3125,-7.9375,44.625
1589550683.820561,-0.7,-4.23,8.3,0.4133333333333333,0.3944444444444444,-0.6822222222222222,7.5,5.8125,21.5
1589550683.828442,0.35,-4.53,9.29,0.4211111111111111,0.35,-0.6888888888888889,0.25,0.5625,3.625
1589550683.838849,0.06,-4.06,8.96,0.4211111111111111,0.35,-0.6888888888888889,-1.875,-4.3125,-1.1875
