time,acc_x,acc_y,acc_z,mag_x,mag_y,mag_z,gyr_x,gyr_y,gyr_z
1589550806.7315578,0.08,-4.13,8.93,0.5244444444444445,0.32,-0.6311111111111111,0.0625,0.125,0.125
1589550806.7381198,0.08,-4.17,8.79,0.5244444444444445,0.32,-0.6311111111111111,0.0,0.125,0.125
1589550806.74757,0.06,-4.15,8.76,0.5244444444444445,0.32,-0.6311111111111111,-0.1875,0.1875,0.0625
1589550806.7606232,0.08,-4.16,8.8,0.5244444444444445,0.32,-0.6311111111111111,-0.1875,0.1875,0.1875
1589550806.7683294,0.08,-4.15,8.8,0.5244444444444445,0.3466666666666667,-0.6355555555555555,-0.1875,-0.0625,0.0625
1589550806.7812984,0.07,-4.16,8.78,0.5244444444444445,0.3466666666666667,-0.6355555555555555,0.125,-0.125,0.0625
1589550806.7876813,0.09,-4.16,8.79,0.5244444444444445,0.3466666666666667,-0.6355555555555555,-0.125,0.0,0.125
1589550806.80305,0.08,-4.16,8.83,0.5244444444444445,0.3466666666666667,-0.6355555555555555,0.125,0.0,0.0625
1589550806.8102946,0.06,-4.14,8.88,0.5244444444444445,0.3466666666666667,-0.6355555555555555,0.125,0.125,0.375
1589550806.8180811,0.07,-4.15,8.9,0.5044444444444445,0.3333333333333333,-0.6444444444444445,0.0625,0.0625,0.0625
1589550806.8279572,0.06,-4.17,8.87,0.5044444444444445,0.3333333333333333,-0.6444444444444445,0.0,-0.125,-0.0625
1589550806.8387175,0.07,-4.16,8.77,0.5044444444444445,0.3333333333333333,-0.6444444444444445,-0.0625,-0.125,0.125
1589550806.8482854,0.05,-4.14,8.83,0.5044444444444445,0.3333333333333333,-0.6444444444444445,-0.375,-0.3125,0.125
1589550806.8606384,0.07,-4.16,8.84,0.5044444444444445,0.3333333333333333,-0.6444444444444445,-0.3125,-0.5,0.125
1589550806.8685439,0.09,-4.15,8.85,0.5166666666666667,0.3411111111111111,-0.6166666666666667,-0.5,-0.625,0.0
1589550806.8780134,0.07,-4.16,8.86,0.5166666666666667,0.3411111111111111,-0.6166666666666667,-0.375,-0.3125,0.1875
1589550806.8891325,0.06,-4.17,8.77,0.5166666666666667,0.3411111111111111,-0.6166666666666667,-0.1875,-0.25,0.375
1589550806.9005613,0.08,-4.13,8.81,0.5166666666666667,0.3411111111111111,-0.6166666666666667,-0.0625,-0.1875,0.1875
1589550806.9115865,0.07,-4.16,8.87,0.5166666666666667,0.3411111111111111,-0.6166666666666667,-0.125,-0.1875,0.3125
1589550806.9230027,0.04,-4.15,8.88,0.51,0.3411111111111111,-0.6433333333333333,-0.1875,0.1875,0.375
1589550806.933056,0.06,-4.15,8.83,0.51,0.3411111111111111,-0.6433333333333333,-0.125,0.4375,0.3125
1589550806.939351,0.09,-4.14,8.77,0.51,0.3411111111111111,-0.6433333333333333,0.125,0.0625,0.375
1589550806.953833,0.08,-4.15,8.79,0.51,0.3411111111111111,-0.6433333333333333,-0.0625,0.375,0.5
1589550806.9616585,0.09,-4.18,8.86,0.51,0.3411111111111111,-0.6433333333333333,-0.1875,0.0,0.5
1589550806.9698224,0.08,-4.15,8.85,0.5311111111111111,0.3411111111111111,-0.6355555555555555,-0.1875,0.1875,0.5
1589550806.9793534,0.06,-4.18,8.88,0.5311111111111111,0.3411111111111111,-0.6355555555555555,-0.0625,0.125,0.625
1589550806.9927938,0.07,-4.15,8.79,0.5311111111111111,0.3411111111111111,-0.6355555555555555,-0.125,0.3125,0.5625
1589550806.99903,0.06,-4.13,8.79,0.5311111111111111,0.3411111111111111,-0.6355555555555555,0.0625,0.3125,0.5
1589550807.011717,0.05,-4.12,8.83,0.5311111111111111,0.3411111111111111,-0.6355555555555555,-0.1875,0.375,0.6875
1589550807.0197473,0.06,-4.15,8.89,0.5244444444444445,0.3533333333333333,-0.6311111111111111,-0.3125,0.1875,0.625
1589550807.0290985,0.02,-4.16,8.75,0.5244444444444445,0.3533333333333333,-0.6311111111111111,-0.375,-0.125,0.6875
1589550807.0401275,0.05,-4.16,8.78,0.5244444444444445,0.3533333333333333,-0.6311111111111111,-0.4375,0.125,0.8125
1589550807.0502508,0.06,-4.14,8.81,0.5244444444444445,0.3533333333333333,-0.6311111111111111,-0.6875,-0.375,0.6875
1589550807.062165,0.07,-4.15,8.85,0.5244444444444445,0.3533333333333333,-0.6311111111111111,-0.5,-0.4375,0.8125
1589550807.073675,0.06,-4.08,8.88,0.5166666666666667,0.3333333333333333,-0.6355555555555555,-0.5625,-0.3125,0.875
1589550807.0823526,0.04,-4.04,8.88,0.5166666666666667,0.3333333333333333,-0.6355555555555555,-0.6875,-0.375,1.0
1589550807.0919592,0.02,-4.0,8.77,0.5166666666666667,0.3333333333333333,-0.6355555555555555,-0.6875,-0.3125,1.375
1589550807.0989525,-0.07,-3.46,8.66,0.5166666666666667,0.3333333333333333,-0.6355555555555555,-1.125,-0.625,1.4375
1589550807.1109266,-0.1,-3.76,9.17,0.5166666666666667,0.3333333333333333,-0.6355555555555555,-1.8125,-2.0,1.0
1589550807.1183527,-0.1,-3.69,8.9,0.5244444444444445,0.3333333333333333,-0.6233333333333333,-1.0,0.0,2.625
1589550807.1288831,-0.12,-3.61,8.82,0.5244444444444445,0.3333333333333333,-0.6233333333333333,-1.3125,-0.75,3.875
1589550807.134429,-0.12,-3.61,8.82,0.5244444444444445,0.3333333333333333,-0.6233333333333333,-1.3125,-0.75,3.875
1589550807.1453645,-0.09,-3.38,8.77,0.5244444444444445,0.3333333333333333,-0.6233333333333333,-1.4375,-0.5625,5.125
1589550807.151817,-0.07,-3.36,8.89,0.5244444444444445,0.3333333333333333,-0.6233333333333333,-1.125,-0.6875,6.125
1589550807.1615293,-0.09,-3.35,8.84,0.5244444444444445,0.3333333333333333,-0.6233333333333333,-0.8125,-0.3125,7.6875
1589550807.1693153,-0.08,-3.36,8.89,0.5166666666666667,0.3411111111111111,-0.6088888888888889,-0.8125,-0.875,8.9375
1589550807.181583,-0.07,-3.25,8.81,0.5166666666666667,0.3411111111111111,-0.6088888888888889,-0.25,-0.1875,10.8125
1589550807.1892815,-0.03,-2.85,8.73,0.5166666666666667,0.3411111111111111,-0.6088888888888889,-0.125,-0.375,15.0
1589550807.2018,-0.02,-2.94,8.95,0.5166666666666667,0.3411111111111111,-0.6088888888888889,0.375,-0.3125,20.5625
1589550807.211981,-0.14,-3.04,8.76,0.5166666666666667,0.3411111111111111,-0.6088888888888889,0.375,-0.25,25.3125
1589550807.2225733,-0.11,-3.1,9.12,0.5044444444444445,0.3411111111111111,-0.6355555555555555,-0.1875,-1.8125,29.6875
1589550807.2295964,-0.09,-3.11,9.0,0.5044444444444445,0.3411111111111111,-0.6355555555555555,0.75,-0.4375,34.25
1589550807.2411687,-0.07,-3.05,8.78,0.5044444444444445,0.3411111111111111,-0.6355555555555555,0.8125,-0.625,37.3125
1589550807.2514975,-0.13,-3.17,9.03,0.5044444444444445,0.3411111111111111,-0.6355555555555555,0.0,-2.1875,40.0625
1589550807.263084,-0.12,-3.12,8.79,0.5044444444444445,0.3411111111111111,-0.6355555555555555,0.375,-1.875,43.0
1589550807.2703412,-0.22,-3.14,8.93,0.5044444444444445,0.32,-0.6355555555555555,-0.1875,-2.6875,45.4375
1589550807.2806432,-0.18,-3.26,8.82,0.5044444444444445,0.32,-0.6355555555555555,-0.1875,-2.5625,48.6875
1589550807.2960837,-0.16,-3.28,8.93,0.5044444444444445,0.32,-0.6355555555555555,0.25,-2.1875,50.75
1589550807.3021574,-0.18,-3.22,8.69,0.5044444444444445,0.32,-0.6355555555555555,0.6875,-1.5625,52.375
1589550807.3166132,-0.21,-3.28,8.9,0.5044444444444445,0.32,-0.6355555555555555,0.125,-2.5625,53.4375
1589550807.3220794,-0.25,-3.44,9.05,0.5311111111111111,0.3144444444444445,-0.6355555555555555,0.625,-2.0625,54.25
1589550807.3345802,-0.22,-3.37,8.72,0.5311111111111111,0.3144444444444445,-0.6355555555555555,0.8125,-1.4375,55.125
1589550807.3408642,-0.22,-3.44,8.78,0.5311111111111111,0.3144444444444445,-0.6355555555555555,-0.1875,-3.0625,55.1875
1589550807.3511162,-0.35,-3.49,8.84,0.5311111111111111,0.3144444444444445,-0.6355555555555555,0.625,-1.875,55.0625
1589550807.3631995,-0.35,-3.56,8.74,0.5311111111111111,0.3144444444444445,-0.6355555555555555,0.6875,-1.75,55.4375
1589550807.373875,-0.29,-3.4,8.98,0.5555555555555556,0.2933333333333333,-0.6233333333333333,-0.5,-3.8125,55.75
1589550807.3807411,-0.34,-3.4,9.09,0.5555555555555556,0.2933333333333333,-0.6233333333333333,0.375,-2.625,55.6875
1589550807.3915,-0.45,-3.44,8.87,0.5555555555555556,0.2933333333333333,-0.6233333333333333,0.25,-2.6875,56.0625
1589550807.401429,-0.48,-3.4,8.83,0.5555555555555556,0.2933333333333333,-0.6233333333333333,0.1875,-2.6875,56.75
1589550807.4132493,-0.53,-3.38,8.87,0.5555555555555556,0.2933333333333333,-0.6233333333333333,0.5,-2.375,58.125
1589550807.4205186,-0.5,-3.37,8.84,0.5433333333333333,0.28,-0.65,0.1875,-2.875,59.25
1589550807.4317315,-0.55,-3.39,8.87,0.5433333333333333,0.28,-0.65,0.3125,-2.25,60.125
1589550807.443091,-0.61,-3.5,8.82,0.5433333333333333,0.28,-0.65,0.4375,-2.4375,61.125
1589550807.4515727,-0.55,-3.27,8.84,0.5433333333333333,0.28,-0.65,0.3125,-2.4375,61.6875
1589550807.4644382,-0.63,-3.39,9.0,0.5433333333333333,0.28,-0.65,0.5,-2.8125,62.0625
1589550807.470791,-0.65,-3.35,8.91,0.5555555555555556,0.2611111111111111,-0.6444444444444445,0.25,-2.875,62.375
1589550807.4842825,-0.6,-3.29,8.91,0.5555555555555556,0.2611111111111111,-0.6444444444444445,0.5625,-2.875,62.3125
1589550807.4917314,-0.74,-3.46,8.85,0.5555555555555556,0.2611111111111111,-0.6444444444444445,0.375,-2.6875,61.9375
1589550807.5018404,-0.68,-3.3,8.98,0.5555555555555556,0.2611111111111111,-0.6444444444444445,0.375,-2.4375,61.875
1589550807.5137398,-0.76,-3.25,8.61,0.5555555555555556,0.2611111111111111,-0.6444444444444445,0.9375,-1.5625,61.375
1589550807.524949,-0.83,-3.34,9.02,0.57,0.23222222222222225,-0.6666666666666666,-0.25,-3.25,61.125
1589550807.5315368,-0.88,-3.31,8.6,0.57,0.23222222222222225,-0.6666666666666666,0.625,-2.25,61.5625
1589550807.5455372,-0.97,-3.45,8.92,0.57,0.23222222222222225,-0.6666666666666666,0.4375,-3.125,62.125
1589550807.5520945,-0.91,-3.34,8.93,0.57,0.23222222222222225,-0.6666666666666666,0.1875,-3.4375,62.875
1589550807.5641215,-1.0,-3.41,8.85,0.57,0.23222222222222225,-0.6666666666666666,0.625,-2.9375,63.25
1589550807.5725482,-1.02,-3.31,8.86,0.59,0.20555555555555555,-0.6711111111111111,0.125,-3.0625,63.375
1589550807.5847359,-1.05,-3.28,8.89,0.59,0.20555555555555555,-0.6711111111111111,0.1875,-3.1875,63.875
1589550807.592501,-1.11,-3.26,8.99,0.59,0.20555555555555555,-0.6711111111111111,0.125,-3.625,64.4375
1589550807.6022,-1.22,-3.28,8.88,0.59,0.20555555555555555,-0.6711111111111111,0.4375,-2.8125,66.1875
1589550807.6144714,-1.27,-3.37,8.97,0.59,0.20555555555555555,-0.6711111111111111,0.375,-3.1875,68.125
1589550807.6219704,-1.24,-3.26,8.91,0.5811111111111111,0.2,-0.6577777777777778,0.3125,-3.0625,70.125
1589550807.6356525,-1.24,-3.26,8.95,0.5811111111111111,0.2,-0.6577777777777778,0.375,-2.9375,71.8125
1589550807.6424801,-1.23,-3.23,8.84,0.5811111111111111,0.2,-0.6577777777777778,0.5,-3.3125,73.0625
1589550807.652637,-1.27,-3.16,8.91,0.5811111111111111,0.2,-0.6577777777777778,0.5,-3.375,73.9375
1589550807.6648085,-1.28,-3.26,9.01,0.5811111111111111,0.2,-0.6577777777777778,0.75,-3.125,74.5625
1589550807.671754,-1.31,-3.14,8.74,0.5877777777777777,0.16111111111111112,-0.7,0.5625,-3.1875,75.125
1589550807.6823895,-1.43,-3.11,8.59,0.5877777777777777,0.16111111111111112,-0.7,0.375,-3.5,75.25
1589550807.6966946,-1.53,-3.21,8.95,0.5877777777777777,0.16111111111111112,-0.7,-0.3125,-4.9375,75.6875
1589550807.7029815,-1.4,-2.97,8.99,0.5877777777777777,0.16111111111111112,-0.7,-0.5625,-5.75,77.125
1589550807.71487,-1.6,-3.09,8.86,0.5877777777777777,0.16111111111111112,-0.7,0.4375,-4.125,79.0
1589550807.722303,-1.54,-3.05,9.03,0.5877777777777777,0.13444444444444445,-0.7144444444444444,0.25,-3.75,80.4375
1589550807.7341983,-1.61,-3.01,9.08,0.5877777777777777,0.13444444444444445,-0.7144444444444444,0.5625,-3.25,82.3125
1589550807.7429473,-1.54,-2.85,8.62,0.5877777777777777,0.13444444444444445,-0.7144444444444444,1.25,-2.625,84.5
1589550807.7543633,-1.62,-2.88,8.9,0.5877777777777777,0.13444444444444445,-0.7144444444444444,0.5,-4.0625,86.125
1589550807.7709007,-1.68,-2.92,8.95,0.5877777777777777,0.13444444444444445,-0.7144444444444444,0.1875,-3.9375,87.625
1589550807.7770138,-1.82,-3.0,9.05,0.5722222222222222,0.09555555555555556,-0.7288888888888889,0.1875,-4.5,89.375
1589550807.7833748,-1.93,-2.97,8.93,0.5722222222222222,0.09555555555555556,-0.7288888888888889,0.5,-4.1875,91.625
1589550807.7954645,-1.91,-2.96,8.95,0.5722222222222222,0.09555555555555556,-0.7288888888888889,0.4375,-4.1875,94.375
1589550807.803059,-1.94,-2.99,8.91,0.5722222222222222,0.09555555555555556,-0.7288888888888889,0.625,-3.6875,96.1875
1589550807.8148565,-1.99,-2.99,8.83,0.5722222222222222,0.09555555555555556,-0.7288888888888889,0.5625,-3.6875,97.1875
1589550807.8272805,-2.01,-2.85,9.2,0.5933333333333334,0.06666666666666668,-0.7566666666666667,-0.0625,-5.1875,98.6875
1589550807.8342135,-2.11,-2.92,8.86,0.5933333333333334,0.06666666666666668,-0.7566666666666667,0.625,-3.875,101.375
1589550807.844523,-2.11,-2.8,8.68,0.5933333333333334,0.06666666666666668,-0.7566666666666667,0.75,-3.75,102.8125
1589550807.853476,-2.14,-2.85,9.06,0.5933333333333334,0.06666666666666668,-0.7566666666666667,0.0625,-5.0625,104.125
1589550807.8657162,-2.25,-2.79,8.83,0.5933333333333334,0.06666666666666668,-0.7566666666666667,0.8125,-3.8125,106.25
1589550807.8725154,-2.31,-2.83,9.12,0.5777777777777777,0.008888888888888889,-0.7777777777777778,0.4375,-4.3125,107.9375
1589550807.8830967,-2.38,-2.83,9.01,0.5777777777777777,0.008888888888888889,-0.7777777777777778,0.625,-4.0,109.4375
1589550807.8940167,-2.37,-2.66,8.88,0.5777777777777777,0.008888888888888889,-0.7777777777777778,0.375,-4.25,110.6875
1589550807.9045155,-2.42,-2.68,9.08,0.5777777777777777,0.008888888888888889,-0.7777777777777778,-0.125,-5.1875,112.5625
1589550807.9187849,-2.54,-2.7,8.98,0.5777777777777777,0.008888888888888889,-0.7777777777777778,0.5,-4.1875,115.5
1589550807.9251902,-2.51,-2.63,8.94,0.5644444444444444,-0.06333333333333334,-0.7688888888888888,0.5,-3.9375,117.8125
1589550807.9333506,-2.53,-2.47,8.91,0.5644444444444444,-0.06333333333333334,-0.7688888888888888,0.0625,-4.4375,119.0625
1589550807.9453876,-2.4,-2.32,8.92,0.5644444444444444,-0.06333333333333334,-0.7688888888888888,0.0,-4.875,121.375
1589550807.9538655,-2.34,-2.29,9.04,0.5644444444444444,-0.06333333333333334,-0.7688888888888888,0.0625,-4.8125,124.625
1589550807.9655821,-2.39,-2.21,8.91,0.5644444444444444,-0.06333333333333334,-0.7688888888888888,0.0625,-4.25,126.9375
1589550807.9747598,-2.54,-2.27,9.22,0.5188888888888888,-0.14888888888888888,-0.7833333333333333,0.0,-4.8125,129.5
1589550807.984924,-2.61,-2.27,9.05,0.5188888888888888,-0.14888888888888888,-0.7833333333333333,0.5625,-3.875,132.1875
1589550807.998592,-2.56,-2.17,8.66,0.5188888888888888,-0.14888888888888888,-0.7833333333333333,0.6875,-3.375,133.25
1589550808.0049713,-2.84,-2.23,9.15,0.5188888888888888,-0.14888888888888888,-0.7833333333333333,-0.5625,-5.25,133.8125
1589550808.0197675,-2.93,-2.19,8.95,0.5188888888888888,-0.14888888888888888,-0.7833333333333333,0.0,-4.4375,135.1875
1589550808.0252295,-2.95,-2.15,8.95,0.5133333333333333,-0.2088888888888889,-0.7644444444444445,0.5,-3.9375,136.375
1589550808.0338318,-2.84,-2.0,9.15,0.5133333333333333,-0.2088888888888889,-0.7644444444444445,-0.25,-5.625,137.125
1589550808.044348,-2.94,-1.92,8.98,0.5133333333333333,-0.2088888888888889,-0.7644444444444445,-0.125,-5.75,139.6875
1589550808.057959,-3.07,-1.94,8.88,0.5133333333333333,-0.2088888888888889,-0.7644444444444445,0.875,-4.25,141.6875
1589550808.0659945,-3.11,-1.84,8.91,0.5133333333333333,-0.2088888888888889,-0.7644444444444445,0.1875,-4.875,141.25
1589550808.0730965,-3.4,-1.95,9.13,0.44222222222222224,-0.2888888888888889,-0.7777777777777778,0.25,-6.0,142.0
1589550808.0800436,-3.4,-1.95,9.13,0.44222222222222224,-0.2888888888888889,-0.7777777777777778,0.25,-6.0,142.0
1589550808.0863805,-3.25,-1.68,8.83,0.44222222222222224,-0.2888888888888889,-0.7777777777777778,0.3125,-4.875,143.25
1589550808.0975988,-3.17,-1.54,9.01,0.44222222222222224,-0.2888888888888889,-0.7777777777777778,0.1875,-6.0,144.5625
1589550808.104179,-3.23,-1.42,9.21,0.44222222222222224,-0.2888888888888889,-0.7777777777777778,0.375,-6.5625,143.75
1589550808.1159544,-3.35,-1.37,8.92,0.44222222222222224,-0.2888888888888889,-0.7777777777777778,0.875,-4.375,139.375
1589550808.12395,-3.3,-1.34,9.06,0.3322222222222222,-0.3377777777777778,-0.7211111111111111,0.5625,-4.9375,135.375
1589550808.1360776,-3.29,-1.23,9.07,0.3322222222222222,-0.3377777777777778,-0.7211111111111111,-0.0625,-5.875,133.375
1589550808.1495714,-3.56,-1.11,9.01,0.3322222222222222,-0.3377777777777778,-0.7211111111111111,0.125,-5.9375,129.9375
1589550808.1563866,-3.58,-1.04,8.86,0.3322222222222222,-0.3377777777777778,-0.7211111111111111,1.0,-4.3125,125.1875
1589550808.1713526,-3.6,-0.99,9.02,0.3322222222222222,-0.3377777777777778,-0.7211111111111111,0.5625,-4.9375,121.3125
1589550808.177252,-3.62,-0.96,9.26,0.2888888888888889,-0.35,-0.6933333333333334,-0.375,-6.0625,118.0625
1589550808.1857774,-3.74,-0.78,8.89,0.2888888888888889,-0.35,-0.6933333333333334,0.5,-4.4375,115.3125
1589550808.1951535,-3.56,-0.69,8.93,0.2888888888888889,-0.35,-0.6933333333333334,0.8125,-4.0625,112.5
1589550808.2087307,-3.35,-0.6,9.11,0.2888888888888889,-0.35,-0.6933333333333334,-0.1875,-5.8125,107.8125
1589550808.2166436,-3.58,-0.46,9.24,0.2888888888888889,-0.35,-0.6933333333333334,0.1875,-5.3125,102.0625
1589550808.2287047,-3.56,-0.39,8.98,0.2911111111111111,-0.3533333333333333,-0.6711111111111111,0.3125,-3.9375,98.125
1589550808.2343707,-3.51,-0.32,8.99,0.2911111111111111,-0.3533333333333333,-0.6711111111111111,0.5,-3.3125,93.625
1589550808.24467,-3.51,-0.28,9.24,0.2911111111111111,-0.3533333333333333,-0.6711111111111111,-0.0625,-5.0625,88.0
1589550808.2548034,-3.24,-0.16,8.95,0.2911111111111111,-0.3533333333333333,-0.6711111111111111,0.0,-3.75,82.875
1589550808.2668483,-3.44,-0.12,9.31,0.2911111111111111,-0.3533333333333333,-0.6711111111111111,-0.375,-4.0625,77.4375
1589550808.2741046,-3.48,-0.07,9.04,0.2822222222222222,-0.3688888888888889,-0.6377777777777778,0.3125,-3.25,71.875
1589550808.2871888,-3.35,-0.05,9.04,0.2822222222222222,-0.3688888888888889,-0.6377777777777778,0.0625,-3.125,67.375
1589550808.300267,-3.49,0.03,9.05,0.2822222222222222,-0.3688888888888889,-0.6377777777777778,-0.3125,-3.8125,62.875
1589550808.306201,-3.5,0.07,8.98,0.2822222222222222,-0.3688888888888889,-0.6377777777777778,0.125,-2.5,59.25
1589550808.3223133,-3.39,0.11,9.15,0.2822222222222222,-0.3688888888888889,-0.6377777777777778,-0.125,-3.0,55.5625
1589550808.3283474,-2.12,0.66,8.81,0.2933333333333333,-0.37666666666666665,-0.6444444444444445,0.0,-3.0625,51.0625
1589550808.3370936,-2.34,0.18,9.65,0.2933333333333333,-0.37666666666666665,-0.6444444444444445,-1.375,-3.875,37.3125
1589550808.3452327,-3.29,0.03,9.33,0.2933333333333333,-0.37666666666666665,-0.6444444444444445,-1.0,-1.5625,16.5
1589550808.3563955,-3.17,0.31,8.31,0.2933333333333333,-0.37666666666666665,-0.6444444444444445,2.9375,4.0,7.0
1589550808.3672268,-2.8,0.12,9.63,0.2933333333333333,-0.37666666666666665,-0.6444444444444445,-1.6875,-2.0625,-3.625
1589550808.374594,-3.18,0.13,9.2,0.27,-0.37666666666666665,-0.6577777777777778,-2.0625,-2.1875,-16.0
1589550808.3861053,-3.37,0.11,8.9,0.27,-0.37666666666666665,-0.6577777777777778,0.4375,1.875,-24.6875
1589550808.3955505,-3.14,0.13,9.17,0.27,-0.37666666666666665,-0.6577777777777778,-1.125,0.1875,-30.5625
1589550808.406215,-3.31,0.13,9.05,0.27,-0.37666666666666665,-0.6577777777777778,-0.25,0.5,-35.8125
1589550808.4187355,-3.33,0.03,9.13,0.27,-0.37666666666666665,-0.6577777777777778,0.0625,1.625,-43.0
1589550808.4251127,-3.3,-0.01,9.11,0.3,-0.3888888888888889,-0.6377777777777778,-0.875,1.4375,-50.25
1589550808.435905,-3.3,-0.01,9.11,0.3,-0.3888888888888889,-0.6377777777777778,-0.875,1.4375,-50.25
1589550808.4463882,-3.29,-0.13,8.96,0.3,-0.3888888888888889,-0.6377777777777778,-0.8125,1.8125,-58.3125
1589550808.4582071,-3.28,-0.17,9.12,0.3,-0.3888888888888889,-0.6377777777777778,-0.75,1.9375,-61.0625
1589550808.4737115,-3.32,-0.28,9.2,0.3,-0.3888888888888889,-0.6377777777777778,-0.9375,2.4375,-65.3125
1589550808.4797847,-3.22,-0.32,9.15,0.31222222222222223,-0.38,-0.6444444444444445,-1.0625,2.375,-69.0
1589550808.4869516,-3.5,-0.42,9.16,0.31222222222222223,-0.38,-0.6444444444444445,-0.8125,3.0625,-72.8125
1589550808.499181,-3.6,-0.53,9.11,0.31222222222222223,-0.38,-0.6444444444444445,-0.5625,3.0625,-75.8125
1589550808.5089693,-3.73,-0.57,9.24,0.31222222222222223,-0.38,-0.6444444444444445,-0.4375,3.5625,-75.5625
1589550808.518088,-3.76,-0.6,9.19,0.31222222222222223,-0.38,-0.6444444444444445,-1.0,2.1875,-74.875
1589550808.5316336,-3.74,-0.61,9.11,0.3644444444444445,-0.36777777777777776,-0.65,-0.75,2.8125,-71.3125
1589550808.5377276,-3.83,-0.62,9.22,0.3644444444444445,-0.36777777777777776,-0.65,-0.5,2.6875,-66.6875
1589550808.5503635,-3.85,-0.68,9.08,0.3644444444444445,-0.36777777777777776,-0.65,-0.375,2.875,-62.3125
1589550808.5570798,-3.42,-0.69,8.94,0.3644444444444445,-0.36777777777777776,-0.65,-0.5,2.9375,-58.3125
1589550808.5693302,-3.78,-0.73,8.95,0.3644444444444445,-0.36777777777777776,-0.65,-0.5,2.625,-56.25
1589550808.5766912,-3.67,-0.85,9.31,0.3888888888888889,-0.36,-0.6788888888888889,-1.25,1.1875,-54.75
1589550808.5875444,-3.69,-0.85,9.1,0.3888888888888889,-0.36,-0.6788888888888889,-1.25,1.125,-52.25
1589550808.5980036,-3.59,-0.85,9.04,0.3888888888888889,-0.36,-0.6788888888888889,-0.125,2.4375,-50.125
1589550808.6072786,-3.63,-0.86,8.91,0.3888888888888889,-0.36,-0.6788888888888889,-0.5,2.125,-49.25
1589550808.6188226,-3.46,-0.95,9.17,0.3888888888888889,-0.36,-0.6788888888888889,-0.9375,1.5625,-49.0625
1589550808.630262,-3.06,-0.88,9.17,0.37666666666666665,-0.3477777777777778,-0.6711111111111111,-0.875,1.4375,-48.875
1589550808.6366813,-2.84,-0.93,8.87,0.37666666666666665,-0.3477777777777778,-0.6711111111111111,-0.5,2.0,-49.1875
1589550808.6466286,-3.71,-1.1,9.22,0.37666666666666665,-0.3477777777777778,-0.6711111111111111,-0.6875,2.375,-52.5
1589550808.6524372,-3.71,-1.1,9.22,0.37666666666666665,-0.3477777777777778,-0.6711111111111111,-0.6875,2.375,-52.5
1589550808.6636605,-3.57,-1.05,8.82,0.37666666666666665,-0.3477777777777778,-0.6711111111111111,-0.5,2.3125,-53.75
1589550808.6696324,-3.49,-1.06,9.16,0.37666666666666665,-0.3477777777777778,-0.6711111111111111,-0.1875,3.5625,-52.8125
1589550808.681959,-3.48,-1.1,8.95,0.42777777777777776,-0.3944444444444444,-0.6711111111111111,-0.8125,2.0,-52.625
1589550808.6877,-3.64,-1.17,9.13,0.42777777777777776,-0.3944444444444444,-0.6711111111111111,-0.875,2.125,-53.125
1589550808.7026765,-3.06,-1.12,8.93,0.42777777777777776,-0.3944444444444444,-0.6711111111111111,-0.9375,1.75,-52.875
1589550808.7088294,-2.84,-1.12,8.9,0.42777777777777776,-0.3944444444444444,-0.6711111111111111,-0.625,1.625,-52.125
1589550808.7193613,-3.09,-1.22,9.24,0.42777777777777776,-0.3944444444444444,-0.6711111111111111,-1.4375,1.8125,-55.625
1589550808.7267804,-3.4,-1.3,9.31,0.4477777777777778,-0.49,-0.6788888888888889,0.0625,4.4375,-60.1875
1589550808.7412508,-3.08,-1.21,8.84,0.4477777777777778,-0.49,-0.6788888888888889,0.0625,4.4375,-60.1875
1589550808.7471259,-3.11,-1.18,8.27,0.4477777777777778,-0.49,-0.6788888888888889,-2.6875,-0.875,-63.375
1589550808.7596848,-3.0,-1.35,9.24,0.4477777777777778,-0.49,-0.6788888888888889,-2.25,0.75,-65.6875
1589550808.7694461,-3.2,-1.4,8.62,0.4477777777777778,-0.49,-0.6788888888888889,-0.4375,3.875,-67.5625
1589550808.7778902,-2.97,-1.35,9.16,0.4922222222222222,-0.76,-0.6311111111111111,-2.1875,0.8125,-68.6875
1589550808.7874625,-2.64,-1.38,9.2,0.4922222222222222,-0.76,-0.6311111111111111,-1.75,2.125,-71.3125
1589550808.7977324,-3.11,-1.59,9.01,0.4922222222222222,-0.76,-0.6311111111111111,-0.875,3.5625,-73.0
1589550808.8106058,-3.01,-1.61,8.88,0.4922222222222222,-0.76,-0.6311111111111111,-0.5625,4.0625,-73.5625
1589550808.8199859,-2.57,-1.48,8.94,0.4922222222222222,-0.76,-0.6311111111111111,-0.9375,2.875,-75.4375
1589550808.826821,-2.69,-1.64,8.99,0.7766666666666666,-1.2922222222222222,-0.49,-0.9375,3.625,-77.9375
1589550808.8388972,-2.58,-1.63,8.97,0.7766666666666666,-1.2922222222222222,-0.49,-0.9375,3.375,-80.75
1589550808.8487625,-2.72,-1.69,9.17,0.7766666666666666,-1.2922222222222222,-0.49,-1.0625,3.625,-82.75
1589550808.8607266,-2.53,-1.64,8.78,0.7766666666666666,-1.2922222222222222,-0.49,-0.625,4.0,-84.0625
1589550808.873284,-2.55,-1.76,9.14,0.7766666666666666,-1.2922222222222222,-0.49,-1.4375,3.0,-87.4375
1589550808.8788786,-2.59,-1.79,8.94,0.7711111111111111,-0.8655555555555555,-0.7211111111111111,-0.9375,3.8125,-89.8125
1589550808.892949,-2.87,-1.91,9.14,0.7711111111111111,-0.8655555555555555,-0.7211111111111111,-0.8125,3.75,-90.8125
1589550808.898702,-2.52,-1.86,8.59,0.7711111111111111,-0.8655555555555555,-0.7211111111111111,-0.4375,4.8125,-89.625
1589550808.9129386,-2.65,-2.01,9.26,0.7711111111111111,-0.8655555555555555,-0.7211111111111111,-1.6875,2.375,-90.0
1589550808.9199455,-2.65,-2.02,9.09,0.7711111111111111,-0.8655555555555555,-0.7211111111111111,-1.125,4.0,-91.1875
1589550808.9287984,-2.91,-2.21,9.22,0.6177777777777778,-0.4388888888888889,-0.7211111111111111,-0.1875,5.0625,-91.6875
1589550808.9387155,-2.45,-2.07,8.94,0.6177777777777778,-0.4388888888888889,-0.7211111111111111,-0.625,4.0625,-92.6875
1589550808.9509368,-2.41,-2.18,9.2,0.6177777777777778,-0.4388888888888889,-0.7211111111111111,-2.0625,2.5625,-94.9375
1589550808.9590108,-2.51,-2.22,8.84,0.6177777777777778,-0.4388888888888889,-0.7211111111111111,-0.75,4.4375,-96.5
1589550808.970482,-2.47,-2.3,8.99,0.6177777777777778,-0.4388888888888889,-0.7211111111111111,-1.3125,3.5625,-98.8125
1589550808.9778185,-2.44,-2.41,8.99,0.57,-0.23555555555555555,-0.7266666666666667,-1.4375,3.9375,-100.9375
1589550808.9895985,-2.34,-2.47,9.02,0.57,-0.23555555555555555,-0.7266666666666667,-1.0625,4.4375,-103.3125
1589550808.9992235,-2.42,-2.53,8.86,0.57,-0.23555555555555555,-0.7266666666666667,-1.1875,4.625,-106.6875
1589550809.0105462,-2.15,-2.57,9.12,0.57,-0.23555555555555555,-0.7266666666666667,-1.125,4.875,-110.6875
1589550809.0243561,-2.43,-2.69,8.67,0.57,-0.23555555555555555,-0.7266666666666667,-0.9375,5.875,-114.5625
1589550809.030697,-2.28,-2.7,9.19,0.6,-0.13777777777777778,-0.7333333333333333,-1.75,4.25,-116.4375
1589550809.0430033,-2.22,-2.74,9.06,0.6,-0.13777777777777778,-0.7333333333333333,0.0,6.0625,-116.6875
1589550809.0497313,-2.13,-2.76,8.6,0.6,-0.13777777777777778,-0.7333333333333333,0.1875,7.1875,-117.4375
1589550809.0616865,-2.11,-2.89,8.7,0.6,-0.13777777777777778,-0.7333333333333333,-1.125,4.3125,-118.5
1589550809.071133,-2.37,-3.09,9.49,0.6,-0.13777777777777778,-0.7333333333333333,-2.375,3.5625,-119.25
1589550809.0800974,-2.23,-2.98,8.77,0.5966666666666667,-0.07111111111111111,-0.7477777777777778,-0.6875,5.8125,-116.375
1589550809.0892322,-2.13,-3.06,9.24,0.5966666666666667,-0.07111111111111111,-0.7477777777777778,-1.0625,4.0625,-113.75
1589550809.1027372,-2.19,-3.16,8.89,0.5966666666666667,-0.07111111111111111,-0.7477777777777778,-0.9375,5.25,-111.1875
1589550809.1097105,-2.29,-3.18,8.77,0.5966666666666667,-0.07111111111111111,-0.7477777777777778,-0.875,4.8125,-108.5625
1589550809.1221926,-2.02,-3.14,8.92,0.5966666666666667,-0.07111111111111111,-0.7477777777777778,-0.625,4.75,-105.0
1589550809.1297426,-2.17,-3.33,9.04,0.64,-0.02666666666666667,-0.7422222222222222,-1.0,4.75,-102.0625
1589550809.140424,-2.02,-3.38,8.82,0.64,-0.02666666666666667,-0.7422222222222222,-0.625,4.25,-99.8125
1589550809.1500092,-1.78,-3.2,9.06,0.64,-0.02666666666666667,-0.7422222222222222,-1.25,3.0625,-98.75
1589550809.1628613,-1.82,-3.26,8.84,0.64,-0.02666666666666667,-0.7422222222222222,-0.75,4.4375,-96.875
1589550809.1719472,-1.81,-3.36,8.88,0.64,-0.02666666666666667,-0.7422222222222222,-0.0625,4.5625,-94.0
1589550809.1839824,-0.81,-2.46,8.88,0.6222222222222222,0.01888888888888889,-0.7422222222222222,-1.3125,3.9375,-96.0
1589550809.1948135,-2.21,-4.23,9.14,0.6222222222222222,0.01888888888888889,-0.7422222222222222,-9.5,3.6875,-174.4375
1589550809.2011216,-2.1,-3.88,9.42,0.6222222222222222,0.01888888888888889,-0.7422222222222222,4.375,11.3125,-202.3125
1589550809.214819,-2.4,-4.53,8.45,0.6222222222222222,0.01888888888888889,-0.7422222222222222,5.625,15.125,-184.1875
1589550809.2217321,-1.95,-4.01,8.24,0.6222222222222222,0.01888888888888889,-0.7422222222222222,-3.4375,7.0,-166.125
1589550809.2301092,-27.94,-28.85,15.63,0.5722222222222222,0.08666666666666667,-0.7288888888888889,1.375,7.3125,-142.9375
1589550809.2417774,-16.77,-18.83,-3.52,0.5722222222222222,0.08666666666666667,-0.7288888888888889,9.75,53.9375,-93.625
1589550809.2533894,4.16,6.55,0.55,0.5722222222222222,0.08666666666666667,-0.7288888888888889,-56.5625,-31.6875,-197.8125
1589550809.2599027,3.99,-0.39,16.78,0.5722222222222222,0.08666666666666667,-0.7288888888888889,-18.8125,-32.0625,-137.5625
1589550809.272286,-1.05,0.24,4.55,0.5722222222222222,0.08666666666666667,-0.7288888888888889,69.6875,18.9375,-124.75
1589550809.280879,-0.8,0.06,3.78,0.5933333333333334,0.1811111111111111,-0.7144444444444444,7.0625,35.125,-92.4375
1589550809.290669,0.74,-1.36,12.62,0.5933333333333334,0.1811111111111111,-0.7144444444444444,-30.4375,-25.3125,-50.5
1589550809.3003092,-0.64,-2.48,5.9,0.5933333333333334,0.1811111111111111,-0.7144444444444444,5.625,11.125,-21.625
1589550809.3104837,-0.57,-2.83,8.54,0.5933333333333334,0.1811111111111111,-0.7144444444444444,7.5,3.9375,7.375
1589550809.3220305,-0.46,-2.75,10.12,0.5933333333333334,0.1811111111111111,-0.7144444444444444,-7.4375,-8.0625,28.875
1589550809.3339891,-0.31,-2.3,9.02,0.5633333333333334,0.2433333333333333,-0.7122222222222222,1.625,-0.5,42.5625
1589550809.342984,-0.23,-2.32,8.93,0.5633333333333334,0.2433333333333333,-0.7122222222222222,3.3125,-1.1875,47.4375
1589550809.352917,-0.44,-2.47,8.73,0.5633333333333334,0.2433333333333333,-0.7122222222222222,-1.375,-2.3125,46.4375
1589550809.3659205,-0.62,-2.45,8.98,0.5633333333333334,0.2433333333333333,-0.7122222222222222,-1.1875,-2.625,45.8125
1589550809.3728216,-6.12,-14.22,7.4,0.5633333333333334,0.2433333333333333,-0.7122222222222222,-0.625,-5.3125,28.5625
1589550809.3807256,1.18,1.35,9.67,0.57,0.23555555555555555,-0.7055555555555556,-4.8125,-5.375,-28.25
1589550809.3906627,-0.27,-1.0,9.27,0.57,0.23555555555555555,-0.7055555555555556,10.5,12.5,-22.4375
1589550809.401286,-1.6,-2.03,7.69,0.57,0.23555555555555555,-0.7055555555555556,0.625,3.1875,0.9375
1589550809.410976,-1.92,-7.9,9.88,0.57,0.23555555555555555,-0.7055555555555556,-8.75,-8.5,12.4375
1589550809.4227502,-2.07,-4.99,8.13,0.57,0.23555555555555555,-0.7055555555555556,0.1875,0.8125,3.1875
1589550809.4298792,-0.87,-2.51,8.73,0.5722222222222222,0.21777777777777774,-0.7055555555555556,4.6875,1.375,-4.5
1589550809.4380395,-0.87,-2.51,8.73,0.5722222222222222,0.21777777777777774,-0.7055555555555556,4.6875,1.375,-4.5
1589550809.4506063,-1.19,-4.05,9.05,0.5722222222222222,0.21777777777777774,-0.7055555555555556,-2.5625,-1.125,-0.125
1589550809.4607058,-1.19,-4.05,9.05,0.5722222222222222,0.21777777777777774,-0.7055555555555556,-2.5625,-1.125,-0.125
