time,acc_x,acc_y,acc_z,mag_x,mag_y,mag_z,gyr_x,gyr_y,gyr_z
1589552836.3207505,0.13,-4.2,8.84,0.4811111111111111,0.3322222222222222,-0.5866666666666667,1.375,-4.3125,-12.9375
1589552836.3289795,0.12,-4.24,8.9,0.4811111111111111,0.3322222222222222,-0.5866666666666667,5.625,-0.1875,-2.125
1589552836.3414338,0.1,-4.24,8.95,0.4755555555555556,0.3388888888888889,-0.5866666666666667,-4.625,-5.6875,3.0
1589552836.3473,0.1,-4.25,8.87,0.4755555555555556,0.3388888888888889,-0.5866666666666667,10.1875,5.6875,0.375
1589552836.3590252,0.12,-4.26,8.8,0.4755555555555556,0.3388888888888889,-0.5866666666666667,-1.375,-4.6875,4.25
1589552836.3677197,0.11,-4.19,8.84,0.4755555555555556,0.3388888888888889,-0.5866666666666667,-6.75,0.0625,-5.625
1589552836.3791866,0.14,-4.19,8.86,0.4755555555555556,0.3388888888888889,-0.5866666666666667,3.875,8.25,-1.75
1589552836.3898318,0.15,-4.2,8.89,0.4811111111111111,0.3388888888888889,-0.5722222222222222,1.375,-1.6875,-3.0
1589552836.397075,0.13,-4.22,8.87,0.4811111111111111,0.3388888888888889,-0.5722222222222222,-1.375,2.9375,2.625
1589552836.4110992,0.11,-4.23,8.78,0.4811111111111111,0.3388888888888889,-0.5722222222222222,2.0,-3.1875,6.5
1589552836.417186,0.14,-4.25,8.83,0.4811111111111111,0.3388888888888889,-0.5722222222222222,1.0,4.8125,-8.6875
1589552836.4337554,0.14,-4.26,8.85,0.4811111111111111,0.3388888888888889,-0.5722222222222222,-3.625,1.4375,-2.5
1589552836.4392335,0.14,-4.21,8.9,0.4811111111111111,0.3322222222222222,-0.5866666666666667,1.25,0.3125,-3.0
1589552836.4489567,0.13,-4.23,8.9,0.4811111111111111,0.3322222222222222,-0.5866666666666667,4.75,-1.0625,8.8125
1589552836.457785,0.12,-4.21,8.82,0.4811111111111111,0.3322222222222222,-0.5866666666666667,-11.3125,-3.0625,-1.125
1589552836.468789,0.11,-4.21,8.86,0.4811111111111111,0.3322222222222222,-0.5866666666666667,5.5,2.5625,-1.25
1589552836.479929,0.14,-4.19,8.89,0.4811111111111111,0.3322222222222222,-0.5866666666666667,3.875,4.0625,-7.0625
1589552836.4917133,0.11,-4.19,8.9,0.4755555555555556,0.3388888888888889,-0.5788888888888889,6.875,6.1875,-5.0
1589552836.4974566,0.11,-4.19,8.88,0.4755555555555556,0.3388888888888889,-0.5788888888888889,3.125,2.9375,-3.75
1589552836.5079913,0.13,-4.21,8.81,0.4755555555555556,0.3388888888888889,-0.5788888888888889,-3.375,-0.1875,0.25
1589552836.5180898,0.11,-4.21,8.83,0.4755555555555556,0.3388888888888889,-0.5788888888888889,-3.125,-10.125,-1.75
1589552836.5300608,0.13,-4.2,8.88,0.4755555555555556,0.3388888888888889,-0.5788888888888889,-4.375,-4.9375,-4.5
1589552836.5377312,0.13,-4.22,8.92,0.4888888888888889,0.32666666666666666,-0.5644444444444444,2.125,-0.6875,-1.0
1589552836.5476432,0.15,-4.2,8.9,0.4888888888888889,0.32666666666666666,-0.5644444444444444,-1.125,-4.4375,1.875
1589552836.5579116,0.11,-4.19,8.79,0.4888888888888889,0.32666666666666666,-0.5644444444444444,-1.375,0.9375,3.625
1589552836.5703735,0.12,-4.19,8.82,0.4888888888888889,0.32666666666666666,-0.5644444444444444,-3.0,-1.5625,-1.25
1589552836.5846658,0.12,-4.2,8.92,0.4888888888888889,0.32666666666666666,-0.5644444444444444,3.875,-4.8125,-0.375
1589552836.5904858,0.11,-4.2,8.91,0.4955555555555556,0.3388888888888889,-0.5933333333333334,-5.625,-5.9375,-0.625
1589552836.599565,0.09,-4.17,8.9,0.4955555555555556,0.3388888888888889,-0.5933333333333334,2.375,-6.5625,3.5
1589552836.608949,0.09,-4.19,8.72,0.4955555555555556,0.3388888888888889,-0.5933333333333334,1.25,1.9375,-6.25
1589552836.6226814,0.02,-4.15,8.63,0.4955555555555556,0.3388888888888889,-0.5933333333333334,-6.5,-5.0625,4.75
1589552836.6304936,0.07,-4.15,8.7,0.4955555555555556,0.3388888888888889,-0.5933333333333334,-4.375,4.1875,-5.875
1589552836.6426528,0.22,-4.25,9.09,0.4811111111111111,0.3388888888888889,-0.6144444444444445,1.5,-0.0625,3.5
1589552836.6491394,0.07,-4.17,8.76,0.4811111111111111,0.3388888888888889,-0.6144444444444445,7.1875,0.9375,4.375
1589552836.659498,0.12,-4.21,8.83,0.4811111111111111,0.3388888888888889,-0.6144444444444445,-2.875,1.5625,5.25
1589552836.6686444,0.13,-4.21,8.92,0.4811111111111111,0.3388888888888889,-0.6144444444444445,0.0,2.3125,3.375
1589552836.6806107,0.11,-4.18,8.85,0.4811111111111111,0.3388888888888889,-0.6144444444444445,4.75,-4.8125,1.375
1589552836.6879196,0.15,-4.19,8.92,0.4888888888888889,0.3466666666666667,-0.5788888888888889,-1.25,-3.3125,-3.875
1589552836.6990356,0.14,-4.19,8.92,0.4888888888888889,0.3466666666666667,-0.5788888888888889,1.875,-0.9375,-0.25
1589552836.7090135,0.13,-4.19,8.81,0.4888888888888889,0.3466666666666667,-0.5788888888888889,-1.5,-5.9375,4.625
1589552836.718957,0.13,-4.2,8.87,0.4888888888888889,0.3466666666666667,-0.5788888888888889,1.25,-0.8125,-7.1875
1589552836.7310634,0.11,-4.18,8.88,0.4888888888888889,0.3466666666666667,-0.5788888888888889,-0.125,-0.8125,7.4375
1589552836.742841,0.13,-4.21,8.87,0.4811111111111111,0.3388888888888889,-0.5933333333333334,-2.375,-2.6875,2.625
1589552836.7494285,0.03,-4.14,8.7,0.4811111111111111,0.3388888888888889,-0.5933333333333334,1.625,0.0625,-3.5
1589552836.7603884,0.17,-4.21,8.88,0.4811111111111111,0.3388888888888889,-0.5933333333333334,-1.875,8.125,-4.75
1589552836.7745125,0.01,-4.16,8.59,0.4811111111111111,0.3388888888888889,-0.5933333333333334,0.5,-2.1875,2.375
1589552836.7817018,0.18,-4.21,8.99,0.4811111111111111,0.3388888888888889,-0.5933333333333334,-3.5,-4.0625,-0.375
1589552836.79401,0.08,-4.16,8.81,0.4633333333333333,0.3533333333333333,-0.6,5.125,3.9375,4.375
1589552836.8014884,0.1,-4.19,8.81,0.4633333333333333,0.3533333333333333,-0.6,2.5,2.5625,-4.0
1589552836.8146784,0.14,-4.2,8.82,0.4633333333333333,0.3533333333333333,-0.6,0.5,-5.0625,2.75
1589552836.8214107,0.16,-4.21,8.86,0.4633333333333333,0.3533333333333333,-0.6,0.25,2.4375,-2.25
1589552836.8312285,0.14,-4.19,8.88,0.4633333333333333,0.3533333333333333,-0.6,1.25,1.0625,3.25
1589552836.839291,0.1,-4.17,8.83,0.4711111111111111,0.32666666666666666,-0.5933333333333334,-4.75,-4.9375,1.375
1589552836.8500378,0.17,-4.24,8.96,0.4711111111111111,0.32666666666666666,-0.5933333333333334,7.5625,-8.5,5.625
1589552836.859304,0.17,-4.25,8.96,0.4711111111111111,0.32666666666666666,-0.5933333333333334,-7.1875,-0.3125,7.1875
1589552836.8694153,0.15,-4.2,8.89,0.4711111111111111,0.32666666666666666,-0.5933333333333334,-0.125,-2.8125,-7.9375
1589552836.8879886,0.17,-4.15,8.95,0.4711111111111111,0.32666666666666666,-0.5933333333333334,-2.125,5.5625,1.625
1589552836.8948984,0.1,-3.98,8.79,0.4755555555555556,0.32,-0.6,1.5,2.6875,3.0
1589552836.9024415,0.05,-3.79,8.88,0.4755555555555556,0.32,-0.6,0.125,-1.3125,-7.6875
1589552836.9137175,0.17,-3.85,8.97,0.4755555555555556,0.32,-0.6,2.25,-2.9375,-3.625
1589552836.925695,0.18,-3.93,8.9,0.4755555555555556,0.32,-0.6,0.125,6.3125,-4.625
1589552836.931551,0.16,-3.86,8.87,0.4755555555555556,0.32,-0.6,-5.75,-7.5,-6.625
1589552836.9448502,0.06,-3.75,8.89,0.4811111111111111,0.3466666666666667,-0.5933333333333334,-1.625,5.9375,-4.375
1589552836.9511845,0.03,-3.68,8.87,0.4811111111111111,0.3466666666666667,-0.5933333333333334,-6.75,-8.375,-3.0
1589552836.9594946,0.04,-3.62,8.82,0.4811111111111111,0.3466666666666667,-0.5933333333333334,-4.375,-0.0625,5.25
1589552836.9700625,0.1,-3.22,8.85,0.4811111111111111,0.3466666666666667,-0.5933333333333334,-7.1875,-2.5625,3.25
1589552836.984243,0.12,-2.81,8.93,0.4811111111111111,0.3466666666666667,-0.5933333333333334,-2.25,-1.0625,-7.3125
1589552836.990418,0.17,-2.93,8.98,0.4811111111111111,0.3388888888888889,-0.5933333333333334,-4.875,-0.4375,3.5
1589552837.0000944,0.23,-3.01,8.97,0.4811111111111111,0.3388888888888889,-0.5933333333333334,-3.375,-1.1875,3.625
1589552837.0121994,0.06,-2.79,8.84,0.4811111111111111,0.3388888888888889,-0.5933333333333334,3.5,-1.3125,2.25
1589552837.0242994,0.11,-2.78,8.81,0.4811111111111111,0.3388888888888889,-0.5933333333333334,-2.875,-6.5625,-0.5
1589552837.0317485,0.16,-2.85,8.9,0.4811111111111111,0.3388888888888889,-0.5933333333333334,3.875,2.8125,2.125
1589552837.043888,0.02,-2.97,8.91,0.4811111111111111,0.3322222222222222,-0.5866666666666667,-1.25,-4.6875,8.5625
1589552837.0516748,0.02,-3.05,8.93,0.4811111111111111,0.3322222222222222,-0.5866666666666667,2.375,-4.4375,18.875
1589552837.0613842,0.11,-3.08,8.94,0.4811111111111111,0.3322222222222222,-0.5866666666666667,4.625,-2.1875,14.25
1589552837.0738356,0.21,-3.12,8.85,0.4811111111111111,0.3322222222222222,-0.5866666666666667,-2.875,-5.9375,16.25
1589552837.0829992,0.15,-3.16,8.99,0.4811111111111111,0.3322222222222222,-0.5866666666666667,-1.875,-1.4375,16.5
1589552837.0956664,0.13,-3.13,8.98,0.4888888888888889,0.3533333333333333,-0.5866666666666667,-3.25,2.1875,19.375
1589552837.1020195,0.03,-3.07,8.89,0.4888888888888889,0.3533333333333333,-0.5866666666666667,-3.5,-3.8125,17.5
1589552837.111687,0.12,-3.12,8.86,0.4888888888888889,0.3533333333333333,-0.5866666666666667,-12.5625,3.4375,18.75
1589552837.1242392,0.16,-3.13,8.81,0.4888888888888889,0.3533333333333333,-0.5866666666666667,0.375,-8.25,24.8125
1589552837.1332662,0.06,-3.21,8.96,0.4888888888888889,0.3533333333333333,-0.5866666666666667,-0.625,-0.6875,30.125
1589552837.1404982,-0.07,-3.22,8.98,0.4711111111111111,0.3322222222222222,-0.5722222222222222,-6.75,0.6875,21.9375
1589552837.1549776,-0.05,-3.28,8.91,0.4711111111111111,0.3322222222222222,-0.5722222222222222,0.125,3.4375,22.9375
1589552837.162015,-0.01,-3.31,8.87,0.4711111111111111,0.3322222222222222,-0.5722222222222222,2.75,0.3125,25.0625
1589552837.17622,-0.03,-3.4,8.86,0.4711111111111111,0.3322222222222222,-0.5722222222222222,0.125,1.4375,35.6875
1589552837.1842039,-0.01,-3.37,8.87,0.4711111111111111,0.3322222222222222,-0.5722222222222222,-0.625,-7.125,23.0625
1589552837.1955092,-0.06,-3.41,8.94,0.4811111111111111,0.3533333333333333,-0.5933333333333334,-0.625,-2.3125,30.375
1589552837.2019405,0.01,-3.29,8.89,0.4811111111111111,0.3533333333333333,-0.5933333333333334,-0.75,-6.6875,23.5625
1589552837.2141864,0.01,-3.37,8.78,0.4811111111111111,0.3533333333333333,-0.5933333333333334,-2.625,-0.5625,36.5625
1589552837.2222195,-0.05,-3.32,8.92,0.4811111111111111,0.3533333333333333,-0.5933333333333334,5.5,-5.6875,38.5625
1589552837.2347386,-0.22,-3.25,8.86,0.4811111111111111,0.3533333333333333,-0.5933333333333334,-1.125,-3.5625,36.0625
1589552837.242047,-0.12,-3.34,9.0,0.4888888888888889,0.32666666666666666,-0.6,-2.125,1.3125,38.0625
1589552837.253826,-0.06,-3.43,8.92,0.4888888888888889,0.32666666666666666,-0.6,7.0625,-3.4375,34.25
1589552837.262413,-0.11,-3.45,8.81,0.4888888888888889,0.32666666666666666,-0.6,6.25,-3.8125,35.1875
1589552837.2746415,-0.14,-3.51,8.89,0.4888888888888889,0.32666666666666666,-0.6,-2.375,-0.8125,42.875
1589552837.2851615,-0.16,-3.51,8.92,0.4888888888888889,0.32666666666666666,-0.6,-6.75,-9.5,42.75
1589552837.2926188,-0.18,-3.47,8.95,0.4811111111111111,0.32666666666666666,-0.6144444444444445,3.125,-3.9375,47.5
1589552837.3059466,-0.23,-3.53,8.98,0.4811111111111111,0.32666666666666666,-0.6144444444444445,-0.75,0.1875,39.9375
1589552837.311861,-0.21,-3.55,8.75,0.4811111111111111,0.32666666666666666,-0.6144444444444445,6.375,1.4375,48.625
1589552837.3280013,-0.24,-3.6,8.85,0.4811111111111111,0.32666666666666666,-0.6144444444444445,-5.0,-5.5625,40.9375
1589552837.3345664,-0.31,-3.6,8.93,0.4811111111111111,0.32666666666666666,-0.6144444444444445,1.0,-3.9375,51.4375
1589552837.3456786,-0.33,-3.56,8.97,0.5222222222222223,0.3033333333333333,-0.6433333333333333,-4.125,-4.4375,51.9375
1589552837.3529685,-0.36,-3.52,8.91,0.5222222222222223,0.3033333333333333,-0.6433333333333333,-1.875,-5.5625,45.375
1589552837.3633847,-0.35,-3.54,8.83,0.5222222222222223,0.3033333333333333,-0.6433333333333333,-5.5,-10.25,61.25
1589552837.3728142,-0.42,-3.6,8.87,0.5222222222222223,0.3033333333333333,-0.6433333333333333,1.625,-6.5625,52.4375
1589552837.386985,-0.41,-3.55,8.92,0.5222222222222223,0.3033333333333333,-0.6433333333333333,0.375,-4.5625,45.625
1589552837.3936062,-0.45,-3.56,8.9,0.5222222222222223,0.2977777777777777,-0.6577777777777778,-1.0,-2.3125,52.5625
1589552837.4041975,-0.44,-3.54,8.91,0.5222222222222223,0.2977777777777777,-0.6577777777777778,1.75,-3.5625,53.1875
1589552837.4133825,-0.42,-3.62,8.82,0.5222222222222223,0.2977777777777777,-0.6577777777777778,-2.75,-9.375,56.125
1589552837.4232078,-0.46,-3.54,8.94,0.5222222222222223,0.2977777777777777,-0.6577777777777778,7.0625,1.6875,47.875
1589552837.434949,-0.5,-3.51,9.01,0.5222222222222223,0.2977777777777777,-0.6577777777777778,0.625,-0.5625,40.0625
1589552837.444649,-0.56,-3.51,8.84,0.5222222222222223,0.2766666666666667,-0.6577777777777778,5.5,0.5625,51.4375
1589552837.4582682,-0.58,-3.58,9.14,0.5222222222222223,0.2766666666666667,-0.6577777777777778,-3.875,0.0625,45.0
1589552837.4639626,-0.64,-3.59,8.86,0.5222222222222223,0.2766666666666667,-0.6577777777777778,8.3125,4.9375,49.0625
1589552837.4788435,-0.75,-3.61,8.89,0.5222222222222223,0.2766666666666667,-0.6577777777777778,-7.1875,-5.8125,50.0625
1589552837.4855065,-0.78,-3.62,9.0,0.5222222222222223,0.2766666666666667,-0.6577777777777778,5.5,0.3125,46.125
1589552837.4984848,-0.77,-3.58,8.9,0.5277777777777778,0.2588888888888889,-0.6711111111111111,0.875,-7.125,56.125
1589552837.5049891,-0.81,-3.61,8.94,0.5277777777777778,0.2588888888888889,-0.6711111111111111,-10.1875,-1.0625,55.1875
1589552837.51681,-0.86,-3.63,8.83,0.5277777777777778,0.2588888888888889,-0.6711111111111111,1.75,-3.6875,51.4375
1589552837.5238526,-0.9,-3.65,8.93,0.5277777777777778,0.2588888888888889,-0.6711111111111111,-2.0,-0.6875,62.25
1589552837.5375545,-0.84,-3.55,8.9,0.5277777777777778,0.2588888888888889,-0.6711111111111111,2.5,-2.3125,57.75
1589552837.5429635,-0.83,-3.52,8.99,0.54,0.23222222222222225,-0.6911111111111111,-3.125,-2.0625,70.375
1589552837.5551054,-0.84,-3.43,8.86,0.54,0.23222222222222225,-0.6911111111111111,-0.875,-7.125,76.375
1589552837.5632858,-0.91,-3.41,8.86,0.54,0.23222222222222225,-0.6911111111111111,6.75,-0.0625,62.875
1589552837.574616,-0.96,-3.48,8.93,0.54,0.23222222222222225,-0.6911111111111111,4.5,-2.1875,66.0625
1589552837.5863762,-0.96,-3.41,8.91,0.54,0.23222222222222225,-0.6911111111111111,-0.875,-1.8125,60.25
1589552837.5979574,-0.92,-3.35,8.9,0.5333333333333333,0.21777777777777774,-0.6911111111111111,0.125,-4.0625,66.5625
1589552837.6074724,-1.0,-3.4,9.0,0.5333333333333333,0.21777777777777774,-0.6911111111111111,-1.625,-2.1875,62.625
1589552837.6139808,-0.99,-3.38,8.9,0.5333333333333333,0.21777777777777774,-0.6911111111111111,-0.625,-2.1875,67.0625
1589552837.6243994,-1.07,-3.34,8.98,0.5333333333333333,0.21777777777777774,-0.6911111111111111,9.4375,3.8125,66.3125
1589552837.6362062,-1.12,-3.4,8.95,0.5333333333333333,0.21777777777777774,-0.6911111111111111,2.5,-1.1875,55.4375
1589552837.6442182,-1.09,-3.27,8.98,0.56,0.19111111111111112,-0.7144444444444444,-7.4375,4.4375,59.875
1589552837.6559286,-1.09,-3.19,8.96,0.56,0.19111111111111112,-0.7144444444444444,4.125,-1.1875,67.0625
1589552837.6659446,-1.1,-3.2,8.92,0.56,0.19111111111111112,-0.7144444444444444,1.0,-4.5625,56.375
1589552837.6747336,-1.12,-3.19,8.77,0.56,0.19111111111111112,-0.7144444444444444,2.0,-0.9375,49.5625
1589552837.6862388,-1.13,-3.17,9.09,0.56,0.19111111111111112,-0.7144444444444444,-3.125,2.0625,63.3125
1589552837.6938975,-1.14,-3.12,8.75,0.5577777777777778,0.12555555555555556,-0.7477777777777778,-0.625,-4.8125,60.125
1589552837.707181,-1.17,-3.15,8.98,0.5577777777777778,0.12555555555555556,-0.7477777777777778,0.125,-3.9375,49.1875
1589552837.714135,-1.19,-3.12,8.89,0.5577777777777778,0.12555555555555556,-0.7477777777777778,4.5,3.0625,46.125
1589552837.7267005,-1.24,-3.08,8.81,0.5577777777777778,0.12555555555555556,-0.7477777777777778,1.5,0.5625,51.8125
1589552837.7370696,-1.38,-3.14,8.92,0.5577777777777778,0.12555555555555556,-0.7477777777777778,1.625,-3.1875,47.0
1589552837.7485547,-1.35,-3.02,8.88,0.5777777777777777,0.06,-0.7422222222222222,2.0,7.25,44.375
1589552837.7582295,-1.34,-3.04,9.2,0.5777777777777777,0.06,-0.7422222222222222,-2.5,0.5625,44.375
1589552837.7652948,-1.4,-3.04,8.77,0.5777777777777777,0.06,-0.7422222222222222,0.125,2.1875,45.625
1589552837.774475,-1.26,-2.9,9.03,0.5777777777777777,0.06,-0.7422222222222222,3.375,0.5625,43.5
1589552837.7871351,-1.37,-3.01,9.0,0.5777777777777777,0.06,-0.7422222222222222,6.0,-0.4375,32.875
1589552837.7944312,-1.48,-3.07,8.98,0.5866666666666667,0.008888888888888889,-0.7333333333333333,-7.6875,6.1875,37.3125
1589552837.8066347,-1.27,-2.87,8.98,0.5866666666666667,0.008888888888888889,-0.7333333333333333,-1.0,4.8125,36.0625
1589552837.8198128,-1.43,-2.99,8.95,0.5866666666666667,0.008888888888888889,-0.7333333333333333,-3.0,1.8125,29.5
1589552837.826408,-1.35,-2.84,8.78,0.5866666666666667,0.008888888888888889,-0.7333333333333333,1.0,1.4375,29.0
1589552837.8411162,-1.44,-2.87,9.06,0.5866666666666667,0.008888888888888889,-0.7333333333333333,-2.125,-2.6875,32.625
1589552837.8464613,-1.52,-2.91,8.85,0.57,-0.06222222222222223,-0.7355555555555555,-5.875,-2.9375,28.0
1589552837.8591912,-1.53,-2.95,9.04,0.57,-0.06222222222222223,-0.7355555555555555,-3.625,-3.0625,34.25
1589552837.8656235,-1.55,-2.95,8.78,0.57,-0.06222222222222223,-0.7355555555555555,-3.625,-2.9375,30.625
1589552837.8756185,-1.69,-3.04,8.98,0.57,-0.06222222222222223,-0.7355555555555555,3.25,5.1875,31.0
1589552837.8871055,-1.56,-2.94,9.02,0.57,-0.06222222222222223,-0.7355555555555555,9.9375,3.5625,24.3125
1589552837.897548,-1.6,-2.98,9.04,0.5077777777777778,-0.10111111111111112,-0.67,-4.0,0.4375,35.6875
1589552837.905977,-1.52,-2.98,8.96,0.5077777777777778,-0.10111111111111112,-0.67,0.625,-1.9375,24.0625
1589552837.9159222,-1.52,-2.95,8.99,0.5077777777777778,-0.10111111111111112,-0.67,1.75,-1.0625,24.0625
1589552837.9257646,-1.42,-2.82,8.62,0.5077777777777778,-0.10111111111111112,-0.67,-1.5,3.8125,9.3125
1589552837.9375515,-1.43,-2.83,9.06,0.5077777777777778,-0.10111111111111112,-0.67,1.75,-1.4375,15.0
1589552837.9443974,-1.43,-2.67,8.89,0.5044444444444445,-0.06333333333333334,-0.6133333333333333,-2.375,2.1875,-1.0
1589552837.954771,-1.17,-2.49,9.13,0.5044444444444445,-0.06333333333333334,-0.6133333333333333,5.125,-2.9375,7.3125
1589552837.968212,-1.31,-2.6,9.07,0.5044444444444445,-0.06333333333333334,-0.6133333333333333,-2.25,-7.0,9.4375
1589552837.9757311,-1.25,-2.5,8.75,0.5044444444444445,-0.06333333333333334,-0.6133333333333333,5.5,-6.8125,3.375
1589552837.9917295,-1.45,-2.57,8.96,0.5044444444444445,-0.06333333333333334,-0.6133333333333333,-7.4375,0.4375,8.1875
1589552837.9982526,-1.41,-2.53,9.0,0.54,-0.02666666666666667,-0.6133333333333333,-8.3125,-2.6875,5.25
1589552838.0107934,-1.56,-2.73,9.12,0.54,-0.02666666666666667,-0.6133333333333333,0.625,-3.1875,8.8125
1589552838.0173898,-1.48,-2.73,8.98,0.54,-0.02666666666666667,-0.6133333333333333,5.0,-1.1875,-0.375
1589552838.029901,-1.23,-2.61,8.87,0.54,-0.02666666666666667,-0.6133333333333333,2.875,-2.9375,-5.25
1589552838.0378554,-1.39,-2.8,8.95,0.54,-0.02666666666666667,-0.6133333333333333,2.5,-2.8125,-11.5625
1589552838.0490296,-1.7,-2.96,8.99,0.5333333333333333,0.006666666666666667,-0.5777777777777777,1.125,-2.6875,-8.6875
1589552838.0555995,-1.61,-2.66,9.04,0.5333333333333333,0.006666666666666667,-0.5777777777777777,0.125,-9.0,-7.0625
1589552838.0665185,-1.37,-2.38,8.95,0.5333333333333333,0.006666666666666667,-0.5777777777777777,1.625,4.5625,-10.4375
1589552838.0759258,-1.48,-2.5,8.86,0.5333333333333333,0.006666666666666667,-0.5777777777777777,-1.75,0.0625,-13.3125
1589552838.0879698,-1.72,-2.87,9.19,0.5333333333333333,0.006666666666666667,-0.5777777777777777,4.5,-0.1875,-7.6875
1589552838.095777,-1.62,-2.7,9.22,0.5511111111111111,0.024444444444444446,-0.6055555555555555,6.0,1.5625,-9.0625
1589552838.1062293,-1.43,-2.63,8.84,0.5511111111111111,0.024444444444444446,-0.6055555555555555,-3.125,-7.25,-8.4375
1589552838.116212,-1.34,-2.6,8.55,0.5511111111111111,0.024444444444444446,-0.6055555555555555,-4.875,-5.3125,0.375
1589552838.1264575,-1.35,-2.67,9.11,0.5511111111111111,0.024444444444444446,-0.6055555555555555,-2.875,0.0625,-10.9375
1589552838.1431699,-1.54,-2.83,9.03,0.5511111111111111,0.024444444444444446,-0.6055555555555555,7.1875,-0.0625,-12.9375
1589552838.1487348,-1.54,-2.85,8.9,0.5822222222222222,0.04444444444444445,-0.5988888888888889,8.5625,3.3125,-14.75
1589552838.1617332,-1.6,-2.88,9.16,0.5822222222222222,0.04444444444444445,-0.5988888888888889,-0.375,-1.4375,-7.3125
1589552838.167435,-1.14,-2.24,8.46,0.5822222222222222,0.04444444444444445,-0.5988888888888889,-1.0,-1.4375,-23.6875
1589552838.1760993,-0.68,-2.31,9.31,0.5822222222222222,0.04444444444444445,-0.5988888888888889,-1.0,4.1875,-44.875
1589552838.1875904,-0.27,-2.38,9.05,0.5822222222222222,0.04444444444444445,-0.5988888888888889,8.5625,9.25,-56.875
1589552838.2000804,-1.82,-4.22,8.79,0.5877777777777777,0.05111111111111112,-0.5777777777777777,-0.75,-4.0625,-39.6875
1589552838.206149,-1.52,-3.91,8.69,0.5877777777777777,0.05111111111111112,-0.5777777777777777,1.75,-2.8125,-43.375
1589552838.2205887,-0.83,-3.47,8.76,0.5877777777777777,0.05111111111111112,-0.5777777777777777,-3.625,3.6875,-44.375
1589552838.2273269,-0.86,-3.44,9.22,0.5877777777777777,0.05111111111111112,-0.5777777777777777,2.375,1.4375,-53.9375
1589552838.2382312,-0.85,-3.17,9.28,0.5877777777777777,0.05111111111111112,-0.5777777777777777,-0.875,4.0625,-62.5
1589552838.2457225,-0.88,-3.35,9.16,0.6077777777777778,0.03666666666666667,-0.6133333333333333,-3.125,0.8125,-75.875
1589552838.2603936,-0.75,-3.47,8.64,0.6077777777777778,0.03666666666666667,-0.6133333333333333,2.625,-0.6875,-89.125
1589552838.2665875,-0.39,-3.09,9.07,0.6077777777777778,0.03666666666666667,-0.6133333333333333,3.25,6.3125,-101.125
1589552838.2765975,-0.65,-3.2,9.1,0.6077777777777778,0.03666666666666667,-0.6133333333333333,2.5,11.125,-114.25
1589552838.29088,-0.98,-3.52,9.01,0.6077777777777778,0.03666666666666667,-0.6133333333333333,2.5,8.125,-113.75
1589552838.298423,-0.92,-3.52,8.68,0.6411111111111111,0.024444444444444446,-0.5911111111111111,-4.25,5.9375,-124.4375
1589552838.3069172,-1.08,-3.66,9.19,0.6411111111111111,0.024444444444444446,-0.5911111111111111,-1.5,13.125,-115.375
1589552838.3185134,-1.34,-4.07,8.79,0.6411111111111111,0.024444444444444446,-0.5911111111111111,-3.875,6.6875,-112.25
1589552838.3266366,-1.32,-4.31,8.62,0.6411111111111111,0.024444444444444446,-0.5911111111111111,1.875,-5.4375,-102.125
1589552838.3385644,-0.92,-3.96,9.01,0.6411111111111111,0.024444444444444446,-0.5911111111111111,0.625,9.625,-109.5625
1589552838.3515902,-1.05,-3.87,8.9,0.9044444444444444,-0.12,-0.57,-5.375,5.0625,-95.0625
1589552838.3582618,-1.1,-3.9,9.02,0.9044444444444444,-0.12,-0.57,-4.875,3.8125,-96.1875
1589552838.3718581,-0.98,-3.76,8.66,0.9044444444444444,-0.12,-0.57,-1.5,4.9375,-98.125
1589552838.3779805,-1.08,-3.97,9.03,0.9044444444444444,-0.12,-0.57,-1.75,-5.5625,-90.0
1589552838.3905404,-1.15,-4.18,8.88,0.9044444444444444,-0.12,-0.57,-0.125,1.5625,-87.25
1589552838.3977056,-1.07,-4.2,8.96,1.6355555555555557,-0.13111111111111112,-0.5077777777777778,-5.625,8.0,-84.5
1589552838.4068234,-1.05,-4.27,8.91,1.6355555555555557,-0.13111111111111112,-0.5077777777777778,-7.1875,-1.5625,-77.3125
1589552838.414459,-1.05,-4.27,8.91,1.6355555555555557,-0.13111111111111112,-0.5077777777777778,-7.1875,-1.5625,-77.3125
1589552838.420716,-0.91,-4.09,8.85,1.6355555555555557,-0.13111111111111112,-0.5077777777777778,6.25,6.1875,-97.5625
1589552838.4320152,-0.69,-3.79,8.84,1.6355555555555557,-0.13111111111111112,-0.5077777777777778,4.0,-0.5625,-89.75
1589552838.4430134,-0.64,-3.89,8.8,1.6355555555555557,-0.13111111111111112,-0.5077777777777778,5.375,6.1875,-92.8125
1589552838.4514875,-0.83,-4.23,9.0,0.8711111111111111,0.13777777777777778,-0.6855555555555556,4.375,5.1875,-80.6875
1589552838.4580946,-0.78,-4.19,8.88,0.8711111111111111,0.13777777777777778,-0.6855555555555556,4.125,0.6875,-77.6875
1589552838.4703898,-0.74,-4.21,8.84,0.8711111111111111,0.13777777777777778,-0.6855555555555556,1.125,11.5,-70.75
1589552838.4782658,-0.65,-4.0,8.89,0.8711111111111111,0.13777777777777778,-0.6855555555555556,-3.75,1.6875,-72.125
1589552838.4901779,-0.46,-3.94,8.85,0.8711111111111111,0.13777777777777778,-0.6855555555555556,-3.75,4.0625,-63.0625
1589552838.4994512,-0.54,-4.18,8.92,0.6411111111111111,0.2677777777777778,-0.6644444444444444,0.75,3.8125,-64.5625
1589552838.5103455,-0.58,-4.32,8.92,0.6411111111111111,0.2677777777777778,-0.6644444444444444,-4.0,0.0625,-66.9375
1589552838.5223365,-0.46,-4.25,8.81,0.6411111111111111,0.2677777777777778,-0.6644444444444444,-5.75,1.5625,-69.5625
1589552838.5285387,-0.66,-4.54,8.85,0.6411111111111111,0.2677777777777778,-0.6644444444444444,5.75,4.8125,-56.25
1589552838.543953,-0.61,-4.55,8.92,0.6411111111111111,0.2677777777777778,-0.6644444444444444,5.5,10.125,-55.1875
1589552838.5513456,-0.5,-4.47,8.95,0.5733333333333334,0.3055555555555556,-0.6622222222222223,1.75,3.1875,-66.9375
1589552838.5620985,-0.46,-4.34,8.96,0.5733333333333334,0.3055555555555556,-0.6622222222222223,-1.5,6.3125,-51.0625
1589552838.5692494,-0.58,-4.44,8.86,0.5733333333333334,0.3055555555555556,-0.6622222222222223,1.25,-2.5625,-37.8125
1589552838.5815706,-0.46,-4.27,8.8,0.5733333333333334,0.3055555555555556,-0.6622222222222223,-3.625,1.4375,-46.375
1589552838.5896823,-0.38,-3.99,9.07,0.5733333333333334,0.3055555555555556,-0.6622222222222223,0.375,0.8125,-36.6875
1589552838.6019108,-0.65,-4.31,8.92,0.5455555555555556,0.3411111111111111,-0.6844444444444444,-1.625,8.125,-28.375
1589552838.6093454,-0.38,-4.1,8.72,0.5455555555555556,0.3411111111111111,-0.6844444444444444,0.25,1.6875,-30.0
1589552838.6205368,-0.33,-4.13,8.94,0.5455555555555556,0.3411111111111111,-0.6844444444444444,4.75,4.8125,-23.4375
1589552838.6296446,-0.32,-4.05,8.82,0.5455555555555556,0.3411111111111111,-0.6844444444444444,2.375,1.3125,-19.375
1589552838.6409485,-0.3,-4.22,9.21,0.5455555555555556,0.3411111111111111,-0.6844444444444444,5.75,4.9375,-19.5
1589552838.6509974,-0.46,-4.33,8.88,0.5466666666666666,0.33,-0.6911111111111111,-3.625,-5.3125,-20.375
1589552838.6592903,-0.29,-4.03,8.49,0.5466666666666666,0.33,-0.6911111111111111,-1.75,-0.1875,-10.8125
1589552838.674577,-0.29,-3.81,8.82,0.5466666666666666,0.33,-0.6911111111111111,0.0,0.4375,-10.1875
1589552838.6811242,-0.42,-3.94,9.01,0.5466666666666666,0.33,-0.6911111111111111,-1.5,-5.0625,4.5
1589552838.6948981,-0.48,-3.94,8.85,0.5466666666666666,0.33,-0.6911111111111111,0.125,5.0625,19.875
1589552838.701609,-2.91,-11.13,5.69,0.4866666666666667,0.3511111111111111,-0.67,-42.5,26.0,-133.1875
1589552838.7127256,-20.76,-19.69,5.07,0.4866666666666667,0.3511111111111111,-0.67,-172.625,-138.0,-328.5
1589552838.7183564,3.66,8.26,3.43,0.4866666666666667,0.3511111111111111,-0.67,-116.0,49.5,-217.0625
1589552838.7327898,1.17,-2.64,12.87,0.4866666666666667,0.3511111111111111,-0.67,-89.5,91.125,-192.5625
1589552838.740707,-0.05,-0.95,5.22,0.4866666666666667,0.3511111111111111,-0.67,-34.125,170.8125,-184.875
1589552838.7527108,-2.74,-1.81,20.34,0.4633333333333333,0.38222222222222224,-0.6555555555555556,84.375,-15.5625,-155.625
1589552838.7586205,-0.77,-0.27,-1.48,0.4633333333333333,0.38222222222222224,-0.6555555555555556,167.1875,56.6875,-150.0625
1589552838.7686336,-1.01,-1.38,7.91,0.4633333333333333,0.38222222222222224,-0.6555555555555556,227.5,-6.6875,-136.1875
1589552838.7753177,-1.01,-1.38,7.91,0.4633333333333333,0.38222222222222224,-0.6555555555555556,227.5,-6.6875,-136.1875
1589552838.7818596,0.57,-2.29,13.14,0.4633333333333333,0.38222222222222224,-0.6555555555555556,66.6875,89.3125,-72.75
1589552838.7939818,-1.42,3.7,7.38,0.4633333333333333,0.38222222222222224,-0.6555555555555556,-70.25,-49.75,-19.625
1589552838.799527,-0.04,-0.72,2.1,0.4033333333333333,0.5077777777777778,-0.6344444444444445,38.8125,13.625,-11.8125
1589552838.809549,0.61,-0.42,6.06,0.4033333333333333,0.5077777777777778,-0.6344444444444445,25.3125,0.3125,-25.8125
1589552838.8248346,0.62,-1.67,6.99,0.4033333333333333,0.5077777777777778,-0.6344444444444445,-23.8125,-23.5,0.5
1589552838.8311305,0.61,-2.61,10.51,0.4033333333333333,0.5077777777777778,-0.6344444444444445,12.3125,12.75,15.375
1589552838.8455994,0.78,-2.0,7.38,0.4033333333333333,0.5077777777777778,-0.6344444444444445,1.0,-4.0625,20.375
1589552838.8515074,0.97,-6.78,9.93,0.3922222222222223,0.4844444444444445,-0.6533333333333333,-4.0,19.5625,62.75
1589552838.863517,2.81,-23.94,9.34,0.3922222222222223,0.4844444444444445,-0.6533333333333333,8.0625,-16.5625,122.5625
1589552838.869544,0.37,0.5,4.64,0.3922222222222223,0.4844444444444445,-0.6533333333333333,-4.875,0.6875,94.9375
1589552838.8834114,1.11,-1.95,9.08,0.3922222222222223,0.4844444444444445,-0.6533333333333333,-2.75,-9.875,76.5
1589552838.8913062,0.51,-2.54,7.7,0.3922222222222223,0.4844444444444445,-0.6533333333333333,7.5625,10.0,89.625
1589552838.9034724,0.03,-9.71,10.29,0.4066666666666667,0.4688888888888889,-0.64,-1.0,-15.3125,109.5625
1589552838.9101036,0.69,-2.19,6.42,0.4066666666666667,0.4688888888888889,-0.64,7.3125,9.0,105.5625
1589552838.9205256,0.18,-4.45,8.27,0.4066666666666667,0.4688888888888889,-0.64,-5.125,-4.3125,90.9375
1589552838.9295158,0.22,-4.09,8.36,0.4066666666666667,0.4688888888888889,-0.64,4.125,-7.75,104.125
1589552838.941726,0.41,-3.95,9.39,0.4066666666666667,0.4688888888888889,-0.64,4.75,-9.375,98.75
1589552838.949583,0.28,-4.06,8.71,0.43333333333333335,0.4511111111111111,-0.6311111111111111,3.75,-3.4375,104.0
1589552838.9603806,0.31,-4.37,9.17,0.43333333333333335,0.4511111111111111,-0.6311111111111111,1.0,-9.375,98.5
1589552838.9697654,0.22,-4.26,8.67,0.43333333333333335,0.4511111111111111,-0.6311111111111111,-2.125,-7.125,101.25
1589552838.9800994,0.26,-4.44,8.84,0.43333333333333335,0.4511111111111111,-0.6311111111111111,-14.0,-28.4375,42.25
1589552838.9978938,2.01,-1.88,8.03,0.43333333333333335,0.4511111111111111,-0.6311111111111111,14.25,-13.875,28.875
1589552839.0037384,-0.14,-3.36,9.91,0.4688888888888889,0.4244444444444445,-0.6444444444444445,4.5,1.1875,9.5625
1589552839.010342,-0.98,-3.4,8.09,0.4688888888888889,0.4244444444444445,-0.6444444444444445,-9.8125,-6.5625,-1.875
1589552839.0201685,0.32,-4.7,9.56,0.4688888888888889,0.4244444444444445,-0.6444444444444445,3.125,-2.9375,0.0
1589552839.0341215,-0.16,-3.97,8.52,0.4688888888888889,0.4244444444444445,-0.6444444444444445,-7.8125,-6.6875,-1.25
1589552839.0425663,0.13,-4.36,9.01,0.4688888888888889,0.4244444444444445,-0.6444444444444445,-5.0,-5.1875,-0.875
1589552839.054884,0.08,-4.21,8.84,0.4755555555555556,0.4044444444444445,-0.6577777777777778,5.375,2.1875,1.75
1589552839.061638,0.12,-4.26,8.88,0.4755555555555556,0.4044444444444445,-0.6577777777777778,1.0,-6.4375,1.75
1589552839.0761662,0.09,-4.2,8.82,0.4755555555555556,0.4044444444444445,-0.6577777777777778,-2.875,-3.0625,-3.375
1589552839.082616,0.09,-4.24,8.86,0.4755555555555556,0.4044444444444445,-0.6577777777777778,-4.0,0.9375,15.875
1589552839.0937712,0.1,-4.22,8.84,0.4755555555555556,0.4044444444444445,-0.6577777777777778,0.375,-2.3125,2.125
1589552839.1002266,0.08,-4.35,8.84,0.4933333333333334,0.4122222222222222,-0.6355555555555555,5.25,-1.6875,2.25
1589552839.1116655,0.09,-4.2,8.87,0.4933333333333334,0.4122222222222222,-0.6355555555555555,0.375,-2.8125,0.375
1589552839.1210976,0.08,-4.29,8.78,0.4933333333333334,0.4122222222222222,-0.6355555555555555,-3.75,-3.6875,5.625
1589552839.132971,0.09,-4.21,8.88,0.4933333333333334,0.4122222222222222,-0.6355555555555555,-3.375,-0.8125,1.625
1589552839.1440792,0.09,-4.27,8.88,0.4933333333333334,0.4122222222222222,-0.6355555555555555,1.125,4.8125,-2.5
1589552839.1556034,0.09,-4.26,8.82,0.4688888888888889,0.4122222222222222,-0.65,0.375,-3.3125,3.375
1589552839.1621482,0.1,-4.29,8.91,0.4688888888888889,0.4122222222222222,-0.65,0.125,-1.3125,-3.75
1589552839.1718035,0.08,-4.22,8.76,0.4688888888888889,0.4122222222222222,-0.65,-0.625,0.6875,-2.375
1589552839.1835046,0.07,-4.23,8.86,0.4688888888888889,0.4122222222222222,-0.65,-3.75,-8.125,4.25
1589552839.193899,0.09,-4.21,8.88,0.4688888888888889,0.4122222222222222,-0.65,2.125,0.4375,1.75
1589552839.2058752,0.11,-4.26,8.85,0.4933333333333334,0.4122222222222222,-0.6711111111111111,5.5,2.6875,-4.375
1589552839.2121513,0.1,-4.26,8.84,0.4933333333333334,0.4122222222222222,-0.6711111111111111,0.875,-0.4375,1.375
1589552839.2276056,0.09,-4.25,8.81,0.4933333333333334,0.4122222222222222,-0.6711111111111111,-5.125,3.0625,7.1875
1589552839.2340984,0.09,-4.21,8.84,0.4933333333333334,0.4122222222222222,-0.6711111111111111,1.75,-3.3125,-1.875
1589552839.2471054,0.07,-4.21,8.89,0.4933333333333334,0.4122222222222222,-0.6711111111111111,-4.0,1.5625,-9.1875
1589552839.253149,0.1,-4.25,8.9,0.4888888888888889,0.4044444444444445,-0.6577777777777778,0.5,1.4375,-2.25
1589552839.266047,0.09,-4.28,8.88,0.4888888888888889,0.4044444444444445,-0.6577777777777778,0.25,-3.6875,-5.5
1589552839.2725134,0.08,-4.26,8.79,0.4888888888888889,0.4044444444444445,-0.6577777777777778,2.625,-1.8125,8.4375
1589552839.2826653,0.07,-4.21,8.85,0.4888888888888889,0.4044444444444445,-0.6577777777777778,-1.75,-8.625,0.25
1589552839.2941945,0.1,-4.22,8.88,0.4888888888888889,0.4044444444444445,-0.6577777777777778,-2.75,-3.5625,3.5
1589552839.3049116,0.09,-4.26,8.92,0.4755555555555556,0.4044444444444445,-0.6355555555555555,2.75,0.9375,-2.5
1589552839.312642,0.09,-4.28,8.83,0.4755555555555556,0.4044444444444445,-0.6355555555555555,4.375,-0.4375,2.625
1589552839.322335,0.07,-4.24,8.77,0.4755555555555556,0.4044444444444445,-0.6355555555555555,-6.375,-6.1875,0.5
1589552839.335237,0.1,-4.22,8.85,0.4755555555555556,0.4044444444444445,-0.6355555555555555,-3.875,-1.1875,-1.0
1589552839.3445153,0.09,-4.21,8.88,0.4755555555555556,0.4044444444444445,-0.6355555555555555,-3.625,3.1875,-3.0
1589552839.3517485,0.09,-4.24,8.91,0.4688888888888889,0.3977777777777778,-0.6488888888888888,-4.125,3.3125,1.375
1589552839.3637626,0.08,-4.24,8.86,0.4688888888888889,0.3977777777777778,-0.6488888888888888,-3.25,-0.8125,-3.875
1589552839.3730028,0.09,-4.26,8.75,0.4688888888888889,0.3977777777777778,-0.6488888888888888,4.125,0.9375,-3.0
1589552839.3852804,0.08,-4.22,8.85,0.4688888888888889,0.3977777777777778,-0.6488888888888888,-3.125,7.25,10.5625
1589552839.3946052,0.09,-4.23,8.9,0.4688888888888889,0.3977777777777778,-0.6488888888888888,-1.875,-3.0625,10.3125
1589552839.403691,0.12,-4.22,8.9,0.5011111111111111,0.4177777777777778,-0.65,0.0,1.3125,-4.625
1589552839.4171884,0.1,-4.27,8.88,0.5011111111111111,0.4177777777777778,-0.65,4.75,2.9375,-5.25
1589552839.4227755,0.07,-4.24,8.75,0.5011111111111111,0.4177777777777778,-0.65,2.0,2.0625,-3.5
1589552839.4374688,0.08,-4.26,8.84,0.5011111111111111,0.4177777777777778,-0.65,6.375,2.1875,-3.75
1589552839.4452474,0.09,-4.21,8.88,0.5011111111111111,0.4177777777777778,-0.65,6.375,2.5625,6.0
1589552839.4553552,0.09,-4.25,8.91,0.4833333333333333,0.3955555555555556,-0.6488888888888888,2.375,1.9375,5.125
1589552839.4634619,0.09,-4.24,8.86,0.4833333333333333,0.3955555555555556,-0.6488888888888888,-2.25,-0.6875,-4.5
1589552839.4733553,0.09,-4.26,8.76,0.4833333333333333,0.3955555555555556,-0.6488888888888888,-3.5,-2.5625,-1.75
1589552839.4830213,0.06,-4.25,8.77,0.4833333333333333,0.3955555555555556,-0.6488888888888888,-3.875,3.6875,-3.875
1589552839.4949515,0.09,-4.23,8.9,0.4833333333333333,0.3955555555555556,-0.6488888888888888,-3.5,-2.9375,0.5
1589552839.5028856,0.07,-4.22,8.9,0.4833333333333333,0.4033333333333333,-0.6355555555555555,0.625,1.6875,0.0
1589552839.515101,0.08,-4.25,8.91,0.4833333333333333,0.4033333333333333,-0.6355555555555555,1.0,-3.1875,-1.5
1589552839.5294342,0.1,-4.26,8.75,0.4833333333333333,0.4033333333333333,-0.6355555555555555,-5.75,1.3125,4.875
1589552839.5361366,0.09,-4.25,8.83,0.4833333333333333,0.4033333333333333,-0.6355555555555555,-1.0,-2.6875,1.375
1589552839.5487802,0.07,-4.23,8.87,0.4833333333333333,0.4033333333333333,-0.6355555555555555,-5.25,-2.9375,5.5
1589552839.5543685,0.08,-4.21,8.91,0.4833333333333333,0.3955555555555556,-0.6577777777777778,-6.5,3.3125,-2.25
1589552839.5680456,0.09,-4.25,8.86,0.4833333333333333,0.3955555555555556,-0.6577777777777778,-1.5,-0.4375,11.3125
1589552839.5739956,0.07,-4.25,8.75,0.4833333333333333,0.3955555555555556,-0.6577777777777778,-6.75,2.5625,0.25
1589552839.5882509,0.09,-4.26,8.79,0.4833333333333333,0.3955555555555556,-0.6577777777777778,-0.625,-9.25,-0.125
1589552839.595792,0.09,-4.23,8.89,0.4833333333333333,0.3955555555555556,-0.6577777777777778,-1.5,-1.8125,-1.5
1589552839.606374,0.08,-4.25,8.9,0.4688888888888889,0.41,-0.6577777777777778,3.125,-0.6875,-6.25
1589552839.6144762,0.08,-4.23,8.89,0.4688888888888889,0.41,-0.6577777777777778,-1.875,-7.5,11.3125
1589552839.6245835,0.08,-4.26,8.79,0.4688888888888889,0.41,-0.6577777777777778,0.625,-3.5625,6.5
1589552839.6348095,0.1,-4.25,8.82,0.4688888888888889,0.41,-0.6577777777777778,1.125,-0.0625,-4.0
1589552839.6462848,0.08,-4.28,8.86,0.4688888888888889,0.41,-0.6577777777777778,4.75,-4.8125,-2.625
1589552839.653606,0.08,-4.23,8.91,0.4833333333333333,0.41,-0.6644444444444444,-9.6875,4.0625,-0.625
1589552839.6652873,0.1,-4.24,8.92,0.4833333333333333,0.41,-0.6644444444444444,-2.5,1.0625,1.125
1589552839.6742172,0.09,-4.25,8.79,0.4833333333333333,0.41,-0.6644444444444444,3.5,0.6875,-5.625
1589552839.6867545,0.09,-4.25,8.83,0.4833333333333333,0.41,-0.6644444444444444,10.3125,3.1875,-8.9375
1589552839.7019155,0.08,-4.26,8.85,0.4833333333333333,0.41,-0.6644444444444444,0.875,0.4375,2.5
1589552839.7081168,0.09,-4.23,8.9,0.4888888888888889,0.41,-0.6488888888888888,2.875,-2.1875,4.75
1589552839.719291,0.09,-4.23,8.85,0.4888888888888889,0.41,-0.6488888888888888,-0.625,3.6875,-5.375
1589552839.725327,0.09,-4.24,8.78,0.4888888888888889,0.41,-0.6488888888888888,-1.5,-1.3125,7.6875
1589552839.7390404,0.09,-4.27,8.8,0.4888888888888889,0.41,-0.6488888888888888,-2.5,-2.4375,-2.125
1589552839.7468514,0.08,-4.23,8.86,0.4888888888888889,0.41,-0.6488888888888888,4.875,-2.5625,-1.375
1589552839.7599056,0.09,-4.24,8.9,0.4833333333333333,0.4033333333333333,-0.6433333333333333,3.5,-0.6875,-6.875
1589552839.7668874,0.08,-4.24,8.91,0.4833333333333333,0.4033333333333333,-0.6433333333333333,0.125,-4.4375,2.0
1589552839.7774858,0.08,-4.24,8.77,0.4833333333333333,0.4033333333333333,-0.6433333333333333,3.875,4.3125,-5.5
1589552839.78486,0.08,-4.23,8.84,0.4833333333333333,0.4033333333333333,-0.6433333333333333,-0.25,7.25,5.125
1589552839.7971592,0.07,-4.24,8.87,0.4833333333333333,0.4033333333333333,-0.6433333333333333,2.75,2.0625,2.25
1589552839.8048153,0.08,-4.24,8.9,0.4688888888888889,0.3911111111111111,-0.6433333333333333,2.0,-3.1875,-0.875
1589552839.8147936,0.08,-4.25,8.85,0.4688888888888889,0.3911111111111111,-0.6433333333333333,-5.875,-2.3125,0.5
1589552839.8252206,0.09,-4.23,8.8,0.4688888888888889,0.3911111111111111,-0.6433333333333333,1.625,0.4375,0.625
1589552839.8356154,0.09,-4.24,8.81,0.4688888888888889,0.3911111111111111,-0.6433333333333333,3.75,2.8125,-10.6875
1589552839.846882,0.09,-4.26,8.84,0.4688888888888889,0.3911111111111111,-0.6433333333333333,-6.0,-2.6875,0.5
1589552839.858167,0.1,-4.25,8.92,0.4833333333333333,0.3955555555555556,-0.6577777777777778,0.375,2.5625,-2.625
1589552839.8677518,0.09,-4.23,8.87,0.4833333333333333,0.3955555555555556,-0.6577777777777778,4.0,-0.1875,0.375
1589552839.8752935,0.1,-4.23,8.82,0.4833333333333333,0.3955555555555556,-0.6577777777777778,-1.375,0.8125,-7.0625
1589552839.890592,0.11,-4.24,8.84,0.4833333333333333,0.3955555555555556,-0.6577777777777778,1.75,2.1875,1.625
1589552839.8974047,0.09,-4.26,8.86,0.4833333333333333,0.3955555555555556,-0.6577777777777778,0.625,4.3125,-1.25
1589552839.9108758,0.08,-4.25,8.89,0.4888888888888889,0.3911111111111111,-0.6355555555555555,3.5,0.6875,-5.25
1589552839.917682,0.08,-4.23,8.91,0.4888888888888889,0.3911111111111111,-0.6355555555555555,0.125,0.0625,1.75
1589552839.9298394,0.1,-4.25,8.78,0.4888888888888889,0.3911111111111111,-0.6355555555555555,-0.625,-2.8125,3.375
1589552839.9359965,0.09,-4.25,8.86,0.4888888888888889,0.3911111111111111,-0.6355555555555555,3.375,-0.5625,0.25
1589552839.9476507,0.09,-4.26,8.85,0.4888888888888889,0.3911111111111111,-0.6355555555555555,8.1875,3.3125,2.75
1589552839.9546776,0.1,-4.26,8.88,0.5155555555555555,0.3955555555555556,-0.65,3.5,-1.8125,-8.1875
1589552839.960075,0.1,-4.26,8.88,0.5155555555555555,0.3955555555555556,-0.65,3.5,-1.8125,-8.1875
1589552839.9706035,0.08,-4.23,8.88,0.5155555555555555,0.3955555555555556,-0.65,0.125,1.0625,-2.25
1589552839.9765642,0.09,-4.24,8.79,0.5155555555555555,0.3955555555555556,-0.65,1.25,7.125,-7.5625
1589552839.98641,0.07,-4.27,8.8,0.5155555555555555,0.3955555555555556,-0.65,1.125,0.6875,-2.5
1589552839.9979053,0.08,-4.25,8.86,0.5155555555555555,0.3955555555555556,-0.65,-3.5,-2.3125,5.375
1589552840.0055895,0.07,-4.24,8.88,0.4755555555555556,0.41,-0.6488888888888888,-3.375,-4.4375,-6.875
1589552840.0161846,0.09,-4.25,8.89,0.4755555555555556,0.41,-0.6488888888888888,-1.25,-3.1875,0.75
1589552840.028293,0.09,-4.24,8.79,0.4755555555555556,0.41,-0.6488888888888888,-1.5,0.0625,2.375
1589552840.0366194,0.08,-4.26,8.84,0.4755555555555556,0.41,-0.6488888888888888,1.5,-1.6875,-3.5
1589552840.04814,0.09,-4.24,8.87,0.4755555555555556,0.41,-0.6488888888888888,-2.5,-3.8125,8.0625
1589552840.0557632,0.1,-4.24,8.87,0.4833333333333333,0.41,-0.6577777777777778,0.5,-4.4375,3.5
1589552840.067851,0.09,-4.25,8.85,0.4833333333333333,0.41,-0.6577777777777778,-1.75,2.1875,-2.375
1589552840.0779927,0.09,-4.23,8.8,0.4833333333333333,0.41,-0.6577777777777778,2.875,-1.8125,-9.9375
1589552840.0866494,0.07,-4.23,8.82,0.4833333333333333,0.41,-0.6577777777777778,3.625,-0.9375,-2.0
1589552840.0990307,0.11,-4.26,8.86,0.4833333333333333,0.41,-0.6577777777777778,5.75,1.9375,-1.625
1589552840.1066198,0.07,-4.26,8.88,0.4888888888888889,0.41,-0.6577777777777778,-5.125,2.9375,-9.0625
1589552840.1172452,0.09,-4.25,8.87,0.4888888888888889,0.41,-0.6577777777777778,2.875,1.3125,-7.6875
1589552840.1266742,0.09,-4.25,8.8,0.4888888888888889,0.41,-0.6577777777777778,-4.375,1.6875,-3.75
1589552840.1388814,0.09,-4.25,8.86,0.4888888888888889,0.41,-0.6577777777777778,-5.625,-3.1875,8.6875
1589552840.1488204,0.1,-4.24,8.88,0.4888888888888889,0.41,-0.6577777777777778,-1.125,4.3125,-6.625
1589552840.1570926,0.09,-4.22,8.89,0.4622222222222222,0.41,-0.6355555555555555,-6.625,4.0625,-3.0
1589552840.16643,0.09,-4.24,8.9,0.4622222222222222,0.41,-0.6355555555555555,6.25,0.0625,-12.4375
1589552840.177181,0.09,-4.23,8.79,0.4622222222222222,0.41,-0.6355555555555555,4.125,3.9375,4.125
1589552840.1871245,0.09,-4.24,8.84,0.4622222222222222,0.41,-0.6355555555555555,-6.75,-0.0625,-1.875
1589552840.1991045,0.09,-4.25,8.86,0.4622222222222222,0.41,-0.6355555555555555,-4.875,-6.8125,3.875
1589552840.2062745,0.08,-4.23,8.92,0.4688888888888889,0.4033333333333333,-0.6488888888888888,4.25,2.0625,1.375
1589552840.2165804,0.09,-4.24,8.86,0.4688888888888889,0.4033333333333333,-0.6488888888888888,-0.875,-0.4375,0.375
1589552840.2321901,0.1,-4.24,8.78,0.4688888888888889,0.4033333333333333,-0.6488888888888888,-7.1875,4.1875,0.625
1589552840.238358,0.1,-4.24,8.83,0.4688888888888889,0.4033333333333333,-0.6488888888888888,6.375,2.3125,0.0
1589552840.2499092,0.09,-4.25,8.87,0.4688888888888889,0.4033333333333333,-0.6488888888888888,-4.75,-2.9375,-1.375
1589552840.2567422,0.09,-4.26,8.89,0.4755555555555556,0.3911111111111111,-0.6644444444444444,1.0,-4.6875,2.5
1589552840.2715745,0.08,-4.25,8.88,0.4755555555555556,0.3911111111111111,-0.6644444444444444,-1.375,-2.9375,0.625
1589552840.2777846,0.1,-4.24,8.77,0.4755555555555556,0.3911111111111111,-0.6644444444444444,4.625,1.8125,5.0
1589552840.2876651,0.09,-4.27,8.85,0.4755555555555556,0.3911111111111111,-0.6644444444444444,2.375,-3.4375,6.125
1589552840.299701,0.09,-4.22,8.87,0.4755555555555556,0.3911111111111111,-0.6644444444444444,2.0,-0.8125,1.625
1589552840.3106284,0.09,-4.26,8.91,0.4755555555555556,0.3911111111111111,-0.6288888888888889,4.25,-1.3125,-2.125
1589552840.3176172,0.09,-4.23,8.85,0.4755555555555556,0.3911111111111111,-0.6288888888888889,-5.875,1.3125,2.875
1589552840.3286164,0.09,-4.23,8.78,0.4755555555555556,0.3911111111111111,-0.6288888888888889,-8.3125,-0.1875,5.0
1589552840.3381186,0.1,-4.25,8.83,0.4755555555555556,0.3911111111111111,-0.6288888888888889,-0.75,-1.6875,3.75
1589552840.3498855,0.09,-4.25,8.85,0.4755555555555556,0.3911111111111111,-0.6288888888888889,1.0,0.1875,-9.5625
1589552840.3577778,0.08,-4.24,8.9,0.4888888888888889,0.3977777777777778,-0.6488888888888888,-0.125,3.9375,-2.875
1589552840.3698704,0.07,-4.26,8.89,0.4888888888888889,0.3977777777777778,-0.6488888888888888,-4.875,-3.9375,1.875
1589552840.3781853,0.09,-4.24,8.78,0.4888888888888889,0.3977777777777778,-0.6488888888888888,0.625,2.1875,-0.75
1589552840.3902786,0.08,-4.25,8.85,0.4888888888888889,0.3977777777777778,-0.6488888888888888,-1.875,-2.3125,0.875
1589552840.4038775,0.1,-4.23,8.89,0.4888888888888889,0.3977777777777778,-0.6488888888888888,-6.0,-2.1875,-1.5
1589552840.4090867,0.1,-4.23,8.89,0.4688888888888889,0.3922222222222223,-0.6577777777777778,-4.375,-0.6875,-1.375
1589552840.423219,0.08,-4.23,8.91,0.4688888888888889,0.3922222222222223,-0.6577777777777778,-4.75,-2.0625,2.5
1589552840.4293928,0.09,-4.24,8.77,0.4688888888888889,0.3922222222222223,-0.6577777777777778,0.25,-6.5625,1.25
1589552840.4439092,0.07,-4.26,8.83,0.4688888888888889,0.3922222222222223,-0.6577777777777778,-4.5,-5.3125,4.75
1589552840.4505522,0.09,-4.25,8.88,0.4688888888888889,0.3922222222222223,-0.6577777777777778,-4.0,-2.1875,-11.6875
1589552840.4611714,0.08,-4.25,8.89,0.4833333333333333,0.3977777777777778,-0.65,2.5,1.6875,4.125
1589552840.4678655,0.08,-4.25,8.86,0.4833333333333333,0.3977777777777778,-0.65,-9.3125,-4.8125,0.5
1589552840.4798484,0.1,-4.24,8.76,0.4833333333333333,0.3977777777777778,-0.65,4.0,-6.1875,-3.875
1589552840.4884071,0.09,-4.25,8.8,0.4833333333333333,0.3977777777777778,-0.65,-1.375,8.125,-8.0625
1589552840.500791,0.07,-4.23,8.88,0.4833333333333333,0.3977777777777778,-0.65,0.875,-3.3125,3.875
1589552840.5080106,0.09,-4.24,8.91,0.4888888888888889,0.4188888888888889,-0.65,2.875,-2.3125,-3.5
1589552840.5191793,0.09,-4.25,8.9,0.4888888888888889,0.4188888888888889,-0.65,-2.125,-5.4375,12.0625
1589552840.5285256,0.08,-4.26,8.81,0.4888888888888889,0.4188888888888889,-0.65,-5.75,-3.1875,2.5
1589552840.5387378,0.09,-4.25,8.84,0.4888888888888889,0.4188888888888889,-0.65,-0.25,2.4375,2.25
1589552840.5531027,0.1,-4.23,8.86,0.4888888888888889,0.4188888888888889,-0.65,-0.625,-6.6875,0.625
1589552840.558783,0.09,-4.25,8.86,0.4888888888888889,0.3977777777777778,-0.6433333333333333,3.625,3.1875,6.375
1589552840.5736833,0.08,-4.24,8.82,0.4888888888888889,0.3977777777777778,-0.6433333333333333,1.0,-0.9375,4.125
1589552840.5797331,0.1,-4.26,8.77,0.4888888888888889,0.3977777777777778,-0.6433333333333333,1.25,1.9375,-2.5
1589552840.5894375,0.07,-4.28,8.82,0.4888888888888889,0.3977777777777778,-0.6433333333333333,-0.875,-0.0625,5.625
1589552840.6009574,0.08,-4.26,8.86,0.4888888888888889,0.3977777777777778,-0.6433333333333333,4.625,0.9375,-0.375
1589552840.613767,0.1,-4.25,8.9,0.4755555555555556,0.3922222222222223,-0.6488888888888888,0.125,5.0625,-2.375
1589552840.6196554,0.08,-4.23,8.89,0.4755555555555556,0.3922222222222223,-0.6488888888888888,2.0,-1.1875,-4.125
1589552840.6331992,0.08,-4.23,8.79,0.4755555555555556,0.3922222222222223,-0.6488888888888888,-8.1875,-3.9375,8.9375
1589552840.639138,0.09,-4.24,8.84,0.4755555555555556,0.3922222222222223,-0.6488888888888888,3.0,2.8125,-6.75
1589552840.6518154,0.07,-4.23,8.86,0.4755555555555556,0.3922222222222223,-0.6488888888888888,-1.0,-3.1875,1.0
1589552840.6595075,0.08,-4.25,8.88,0.4755555555555556,0.4122222222222222,-0.6355555555555555,7.8125,7.625,-16.5
1589552840.6712306,0.1,-4.24,8.9,0.4755555555555556,0.4122222222222222,-0.6355555555555555,-1.25,-4.3125,-5.375
1589552840.6795506,0.08,-4.25,8.78,0.4755555555555556,0.4122222222222222,-0.6355555555555555,-3.125,1.8125,-1.25
1589552840.68968,0.09,-4.23,8.84,0.4755555555555556,0.4122222222222222,-0.6355555555555555,-5.625,-3.0625,-1.75
1589552840.7044866,0.08,-4.25,8.85,0.4755555555555556,0.4122222222222222,-0.6355555555555555,-4.75,10.5,1.625
1589552840.7098825,0.09,-4.23,8.91,0.4888888888888889,0.3977777777777778,-0.6577777777777778,-2.375,-6.4375,-3.125
1589552840.7190485,0.07,-4.24,8.87,0.4888888888888889,0.3977777777777778,-0.6577777777777778,-3.5,1.4375,-2.0
1589552840.7302904,0.1,-4.27,8.79,0.4888888888888889,0.3977777777777778,-0.6577777777777778,3.75,-1.8125,2.375
1589552840.7406807,0.09,-4.23,8.8,0.4888888888888889,0.3977777777777778,-0.6577777777777778,1.625,0.8125,-2.0
1589552840.751914,0.1,-4.24,8.88,0.4888888888888889,0.3977777777777778,-0.6577777777777778,-4.375,-2.3125,2.5
1589552840.7641768,0.09,-4.24,8.88,0.4933333333333334,0.3922222222222223,-0.65,1.625,-0.8125,-7.6875
1589552840.7709062,0.1,-4.23,8.88,0.4933333333333334,0.3922222222222223,-0.65,-2.75,1.4375,0.5
1589552840.7843075,0.09,-4.23,8.8,0.4933333333333334,0.3922222222222223,-0.65,3.125,0.4375,-2.25
1589552840.7903345,0.08,-4.26,8.84,0.4933333333333334,0.3922222222222223,-0.65,-1.375,-4.6875,-3.75
1589552840.8032198,0.11,-4.25,8.86,0.4933333333333334,0.3922222222222223,-0.65,-1.875,-10.25,4.375
1589552840.812029,0.08,-4.26,8.86,0.4755555555555556,0.3922222222222223,-0.65,3.0,5.8125,-4.25
1589552840.8202398,0.09,-4.25,8.85,0.4755555555555556,0.3922222222222223,-0.65,0.0,3.9375,4.875
1589552840.8302116,0.08,-4.24,8.76,0.4755555555555556,0.3922222222222223,-0.65,-0.75,-1.9375,-3.75
1589552840.84051,0.09,-4.25,8.84,0.4755555555555556,0.3922222222222223,-0.65,-3.375,-1.5625,-2.5
1589552840.8525355,0.09,-4.26,8.86,0.4755555555555556,0.3922222222222223,-0.65,-5.75,-1.0625,3.5
1589552840.8631995,0.09,-4.24,8.89,0.4755555555555556,0.4044444444444445,-0.65,-2.25,3.9375,-2.625
1589552840.8705227,0.07,-4.22,8.87,0.4755555555555556,0.4044444444444445,-0.65,5.125,3.8125,-4.5
1589552840.8804054,0.09,-4.24,8.8,0.4755555555555556,0.4044444444444445,-0.65,-3.625,4.1875,-1.5
1589552840.890666,0.09,-4.24,8.85,0.4755555555555556,0.4044444444444445,-0.65,-4.125,0.1875,-4.875
1589552840.9028823,0.08,-4.27,8.85,0.4755555555555556,0.4044444444444445,-0.65,0.375,-2.6875,4.375
1589552840.9129202,0.09,-4.24,8.89,0.4755555555555556,0.4044444444444445,-0.65,-2.875,2.1875,-0.625
1589552840.9203715,0.09,-4.24,8.91,0.4755555555555556,0.4044444444444445,-0.65,-2.75,0.8125,-1.5
1589552840.9360428,0.08,-4.25,8.79,0.4755555555555556,0.4044444444444445,-0.65,1.75,-12.125,5.25
1589552840.9423318,0.09,-4.24,8.83,0.4755555555555556,0.4044444444444445,-0.65,-6.125,0.1875,9.9375
1589552840.95401,0.09,-4.24,8.85,0.4755555555555556,0.4044444444444445,-0.65,-0.25,-2.8125,-6.5
1589552840.960149,0.09,-4.23,8.89,0.4933333333333334,0.4044444444444445,-0.6577777777777778,4.375,1.5625,1.5
1589552840.9744725,0.07,-4.22,8.86,0.4933333333333334,0.4044444444444445,-0.6577777777777778,-8.0625,4.9375,7.9375
1589552840.9809823,0.09,-4.25,8.78,0.4933333333333334,0.4044444444444445,-0.6577777777777778,-1.625,2.3125,2.75
1589552840.9945855,0.09,-4.25,8.8,0.4933333333333334,0.4044444444444445,-0.6577777777777778,0.125,8.0,2.25
1589552841.0031312,0.09,-4.23,8.88,0.4933333333333334,0.4044444444444445,-0.6577777777777778,-0.25,3.5625,2.25
1589552841.0146167,0.09,-4.26,8.9,0.4755555555555556,0.4044444444444445,-0.6433333333333333,-4.0,-4.5625,-4.875
1589552841.0209956,0.09,-4.25,8.9,0.4755555555555556,0.4044444444444445,-0.6433333333333333,-2.875,-2.8125,2.375
1589552841.0313122,0.09,-4.25,8.8,0.4755555555555556,0.4044444444444445,-0.6433333333333333,0.375,2.1875,2.25
1589552841.0413024,0.11,-4.25,8.86,0.4755555555555556,0.4044444444444445,-0.6433333333333333,-0.375,-7.125,0.125
1589552841.0534275,0.1,-4.25,8.87,0.4755555555555556,0.4044444444444445,-0.6433333333333333,2.625,-3.1875,-3.25
1589552841.0609586,0.09,-4.23,8.89,0.4888888888888889,0.4044444444444445,-0.6488888888888888,-1.375,-0.4375,1.125
1589552841.0728035,0.08,-4.25,8.85,0.4888888888888889,0.4044444444444445,-0.6488888888888888,-3.5,-4.9375,7.6875
1589552841.085908,0.09,-4.25,8.77,0.4888888888888889,0.4044444444444445,-0.6488888888888888,-3.375,-1.6875,-4.125
1589552841.0920422,0.08,-4.22,8.83,0.4888888888888889,0.4044444444444445,-0.6488888888888888,-3.375,1.1875,-0.25
1589552841.1083224,0.09,-4.21,8.85,0.4888888888888889,0.4044444444444445,-0.6488888888888888,-3.25,-1.5625,-4.0
1589552841.1139927,0.08,-4.25,8.9,0.4833333333333333,0.3922222222222223,-0.6355555555555555,-7.5625,1.6875,-6.75
1589552841.1224046,0.08,-4.24,8.89,0.4833333333333333,0.3922222222222223,-0.6355555555555555,3.25,1.9375,3.25
1589552841.1320667,0.09,-4.25,8.78,0.4833333333333333,0.3922222222222223,-0.6355555555555555,1.125,3.8125,8.8125
1589552841.1455276,0.1,-4.24,8.84,0.4833333333333333,0.3922222222222223,-0.6355555555555555,-2.125,-5.0625,0.75
1589552841.1539152,0.09,-4.23,8.85,0.4833333333333333,0.3922222222222223,-0.6355555555555555,-3.0,-0.1875,2.875
1589552841.1651704,0.1,-4.24,8.88,0.4622222222222222,0.4044444444444445,-0.6488888888888888,-4.25,4.0625,-3.5
1589552841.1713393,0.09,-4.26,8.9,0.4622222222222222,0.4044444444444445,-0.6488888888888888,1.5,1.3125,-9.0625
1589552841.1830776,0.08,-4.23,8.77,0.4622222222222222,0.4044444444444445,-0.6488888888888888,-3.125,-3.5625,-10.4375
1589552841.1927426,0.09,-4.22,8.84,0.4622222222222222,0.4044444444444445,-0.6488888888888888,3.375,4.4375,-5.375
1589552841.203837,0.06,-4.24,8.86,0.4622222222222222,0.4044444444444445,-0.6488888888888888,-4.375,-2.1875,7.8125
1589552841.211427,0.09,-4.27,8.91,0.4833333333333333,0.4122222222222222,-0.6433333333333333,-0.25,-2.3125,4.375
1589552841.2219622,0.09,-4.25,8.88,0.4833333333333333,0.4122222222222222,-0.6433333333333333,2.75,8.625,-2.375
1589552841.2349706,0.09,-4.25,8.76,0.4833333333333333,0.4122222222222222,-0.6433333333333333,-0.25,1.1875,-5.0
1589552841.2425895,0.09,-4.24,8.8,0.4833333333333333,0.4122222222222222,-0.6433333333333333,-2.125,-5.0625,5.25
1589552841.2603064,0.09,-4.25,8.88,0.4833333333333333,0.4122222222222222,-0.6433333333333333,-1.5,-0.6875,-1.75
1589552841.2662008,0.08,-4.25,8.9,0.4833333333333333,0.4122222222222222,-0.6711111111111111,-1.875,-1.3125,12.8125
1589552841.2728338,0.09,-4.26,8.88,0.4833333333333333,0.4122222222222222,-0.6711111111111111,-1.5,-1.5625,0.75
1589552841.2849422,0.09,-4.24,8.82,0.4833333333333333,0.4122222222222222,-0.6711111111111111,-1.375,-1.5625,-2.0
1589552841.2959385,0.09,-4.23,8.84,0.4833333333333333,0.4122222222222222,-0.6711111111111111,-1.5,1.3125,6.25
1589552841.3041365,0.09,-4.25,8.87,0.4833333333333333,0.4122222222222222,-0.6711111111111111,0.75,2.5625,-4.375
1589552841.3158386,0.09,-4.25,8.91,0.4688888888888889,0.3922222222222223,-0.6355555555555555,-3.0,0.3125,1.375
1589552841.3229995,0.1,-4.26,8.85,0.4688888888888889,0.3922222222222223,-0.6355555555555555,0.125,-1.1875,2.125
1589552841.3356626,0.09,-4.25,8.78,0.4688888888888889,0.3922222222222223,-0.6355555555555555,5.75,-5.0625,-2.625
1589552841.342659,0.09,-4.24,8.84,0.4688888888888889,0.3922222222222223,-0.6355555555555555,-1.625,-7.875,-2.25
1589552841.3551486,0.08,-4.24,8.83,0.4688888888888889,0.3922222222222223,-0.6355555555555555,-3.25,-4.3125,8.9375
1589552841.3617885,0.09,-4.24,8.88,0.4833333333333333,0.4044444444444445,-0.6577777777777778,4.625,1.9375,7.1875
1589552841.3729234,0.06,-4.26,8.87,0.4833333333333333,0.4044444444444445,-0.6577777777777778,-0.25,-0.9375,-3.25
1589552841.3824346,0.09,-4.25,8.79,0.4833333333333333,0.4044444444444445,-0.6577777777777778,3.25,6.0625,-7.3125
1589552841.3925867,0.07,-4.26,8.86,0.4833333333333333,0.4044444444444445,-0.6577777777777778,0.25,-0.4375,2.75
1589552841.409667,0.09,-4.22,8.89,0.4833333333333333,0.4044444444444445,-0.6577777777777778,-4.0,-0.4375,-4.25
1589552841.4157932,0.08,-4.25,8.9,0.4755555555555556,0.3922222222222223,-0.6644444444444444,-4.25,-3.3125,6.5
1589552841.4235873,0.1,-4.25,8.91,0.4755555555555556,0.3922222222222223,-0.6644444444444444,2.5,0.9375,-2.25
1589552841.4497998,0.1,-4.24,8.8,0.4755555555555556,0.3922222222222223,-0.6644444444444444,1.75,-3.1875,5.125
1589552841.4558995,0.08,-4.25,8.88,0.4755555555555556,0.3922222222222223,-0.6644444444444444,-0.375,7.5,-6.5
1589552841.4677222,0.1,-4.24,8.88,0.4833333333333333,0.3977777777777778,-0.6355555555555555,4.5,-0.1875,3.75
1589552841.474215,0.1,-4.22,8.85,0.4833333333333333,0.3977777777777778,-0.6355555555555555,0.125,3.9375,-2.75
1589552841.4875393,0.08,-4.23,8.79,0.4833333333333333,0.3977777777777778,-0.6355555555555555,-3.625,-2.4375,0.875
1589552841.4936464,0.09,-4.25,8.84,0.4833333333333333,0.3977777777777778,-0.6355555555555555,-7.5625,2.5625,2.5
1589552841.5076716,0.1,-4.26,8.87,0.4833333333333333,0.3977777777777778,-0.6355555555555555,2.625,0.0625,-11.0625
1589552841.5134096,0.08,-4.27,8.9,0.4755555555555556,0.4044444444444445,-0.65,5.75,-2.9375,-4.0
1589552841.5269887,0.08,-4.25,8.9,0.4755555555555556,0.4044444444444445,-0.65,3.375,7.5,-0.5
1589552841.534201,0.09,-4.23,8.81,0.4755555555555556,0.4044444444444445,-0.65,-5.75,-7.375,1.875
1589552841.546165,0.09,-4.25,8.83,0.4755555555555556,0.4044444444444445,-0.65,3.75,1.3125,2.875
1589552841.5555027,0.09,-4.24,8.86,0.4755555555555556,0.4044444444444445,-0.65,0.375,2.6875,-0.5
1589552841.5667794,0.09,-4.24,8.87,0.4888888888888889,0.4044444444444445,-0.6433333333333333,0.75,-1.6875,-2.875
1589552841.5737267,0.1,-4.24,8.84,0.4888888888888889,0.4044444444444445,-0.6433333333333333,1.125,1.8125,-10.6875
1589552841.5837054,0.09,-4.28,8.78,0.4888888888888889,0.4044444444444445,-0.6433333333333333,1.25,4.3125,5.25
1589552841.598858,0.09,-4.25,8.82,0.4888888888888889,0.4044444444444445,-0.6433333333333333,-4.25,-1.5625,6.25
1589552841.606266,0.08,-4.24,8.85,0.4888888888888889,0.4044444444444445,-0.6433333333333333,-3.0,3.6875,-0.375
1589552841.616923,0.09,-4.25,8.9,0.4833333333333333,0.3977777777777778,-0.65,4.25,2.8125,-5.25
1589552841.624159,0.07,-4.24,8.88,0.4833333333333333,0.3977777777777778,-0.65,2.875,3.0625,-2.0
1589552841.6340632,0.09,-4.23,8.78,0.4833333333333333,0.3977777777777778,-0.65,2.375,0.0625,-4.625
1589552841.6460807,0.07,-4.25,8.84,0.4833333333333333,0.3977777777777778,-0.65,2.5,0.3125,0.125
1589552841.6585195,0.08,-4.24,8.89,0.4833333333333333,0.3977777777777778,-0.65,3.875,2.1875,0.5
1589552841.663774,0.09,-4.24,8.91,0.4833333333333333,0.3922222222222223,-0.6577777777777778,1.875,3.8125,3.375
1589552841.677925,0.09,-4.26,8.91,0.4833333333333333,0.3922222222222223,-0.6577777777777778,-3.125,-0.3125,-2.875
1589552841.6840882,0.09,-4.23,8.78,0.4833333333333333,0.3922222222222223,-0.6577777777777778,-2.875,-0.6875,3.625
1589552841.6949224,0.09,-4.23,8.84,0.4833333333333333,0.3922222222222223,-0.6577777777777778,3.0,-3.5625,-3.375
1589552841.7068815,0.1,-4.24,8.86,0.4833333333333333,0.3922222222222223,-0.6577777777777778,-1.25,0.9375,-1.375
1589552841.7176278,0.09,-4.23,8.9,0.5011111111111111,0.3922222222222223,-0.6433333333333333,-9.9375,-3.5625,-1.5
1589552841.7249868,0.1,-4.25,8.87,0.5011111111111111,0.3922222222222223,-0.6433333333333333,-0.25,7.875,-4.875
1589552841.734324,0.09,-4.24,8.8,0.5011111111111111,0.3922222222222223,-0.6433333333333333,1.625,-6.4375,4.625
1589552841.744543,0.09,-4.26,8.79,0.5011111111111111,0.3922222222222223,-0.6433333333333333,-0.5,6.1875,-0.5
1589552841.7566564,0.09,-4.24,8.89,0.5011111111111111,0.3922222222222223,-0.6433333333333333,0.375,-1.8125,-4.0
1589552841.7701435,0.07,-4.24,8.89,0.5077777777777778,0.3922222222222223,-0.6355555555555555,-1.0,-1.6875,12.5625
1589552841.7767587,0.1,-4.24,8.9,0.5077777777777778,0.3922222222222223,-0.6355555555555555,3.25,2.1875,-3.5
1589552841.7846458,0.07,-4.26,8.79,0.5077777777777778,0.3922222222222223,-0.6355555555555555,-1.25,-2.4375,-4.5
1589552841.7968721,0.09,-4.24,8.85,0.5077777777777778,0.3922222222222223,-0.6355555555555555,-0.25,2.6875,8.0625
1589552841.8072085,0.09,-4.24,8.85,0.5077777777777778,0.3922222222222223,-0.6355555555555555,-3.125,-0.0625,4.5
1589552841.8151515,0.08,-4.24,8.89,0.4833333333333333,0.4188888888888889,-0.6355555555555555,3.25,0.1875,-3.625
1589552841.8292894,0.09,-4.24,8.84,0.4833333333333333,0.4188888888888889,-0.6355555555555555,0.25,-5.6875,-1.75
1589552841.8352776,0.09,-4.25,8.79,0.4833333333333333,0.4188888888888889,-0.6355555555555555,0.0,1.3125,-3.375
1589552841.8491008,0.1,-4.26,8.82,0.4833333333333333,0.4188888888888889,-0.6355555555555555,2.375,2.4375,3.25
1589552841.857255,0.09,-4.23,8.85,0.4833333333333333,0.4188888888888889,-0.6355555555555555,-0.625,-1.3125,1.625
1589552841.86782,0.09,-4.26,8.89,0.4566666666666666,0.3977777777777778,-0.6488888888888888,-1.125,2.5625,5.125
1589552841.8748832,0.07,-4.24,8.86,0.4566666666666666,0.3977777777777778,-0.6488888888888888,-0.625,-1.1875,3.875
1589552841.8852885,0.09,-4.25,8.8,0.4566666666666666,0.3977777777777778,-0.6488888888888888,0.125,3.8125,-1.25
1589552841.8955336,0.06,-4.26,8.84,0.4566666666666666,0.3977777777777778,-0.6488888888888888,3.25,-0.8125,7.5625
1589552841.9076645,0.09,-4.25,8.88,0.4566666666666666,0.3977777777777778,-0.6488888888888888,-2.5,1.3125,1.125
1589552841.9148088,0.07,-4.24,8.88,0.4888888888888889,0.4044444444444445,-0.6644444444444444,3.25,4.9375,0.625
1589552841.9256868,0.09,-4.23,8.9,0.4888888888888889,0.4044444444444445,-0.6644444444444444,-0.875,2.9375,-2.375
1589552841.935804,0.09,-4.24,8.78,0.4888888888888889,0.4044444444444445,-0.6644444444444444,-3.625,4.1875,0.0
1589552841.9484482,0.08,-4.24,8.85,0.4888888888888889,0.4044444444444445,-0.6644444444444444,-3.875,-2.9375,-2.375
1589552841.9577856,0.09,-4.25,8.86,0.4888888888888889,0.4044444444444445,-0.6644444444444444,10.5625,2.3125,-2.375
1589552841.9693027,0.09,-4.26,8.9,0.4688888888888889,0.3922222222222223,-0.65,-2.5,7.125,2.625
1589552841.9807384,0.09,-4.25,8.87,0.4688888888888889,0.3922222222222223,-0.65,-6.25,1.5625,8.0625
1589552841.9865394,0.08,-4.23,8.78,0.4688888888888889,0.3922222222222223,-0.65,6.0,3.8125,-3.375
1589552842.0007071,0.09,-4.24,8.78,0.4688888888888889,0.3922222222222223,-0.65,-5.625,2.8125,2.375
