time,acc_x,acc_y,acc_z,mag_x,mag_y,mag_z,gyr_x,gyr_y,gyr_z
1589550998.7728667,0.74,-4.03,8.76,0.4477777777777778,0.4,-0.6433333333333333,0.375,0.375,-2.6875
1589550998.783957,0.78,-4.05,8.75,0.4477777777777778,0.4,-0.6433333333333333,0.1875,0.5,-3.25
1589550998.7936456,0.75,-4.06,8.68,0.4477777777777778,0.4,-0.6433333333333333,0.3125,0.5,-4.375
1589550998.8105175,0.81,-4.11,8.85,0.4477777777777778,0.4,-0.6433333333333333,0.375,0.375,-4.3125
1589550998.8165355,0.81,-4.08,8.83,0.44,0.4066666666666667,-0.6433333333333333,0.75,1.0625,-4.6875
1589550998.8240864,0.78,-4.13,8.76,0.44,0.4066666666666667,-0.6433333333333333,0.625,0.5625,-4.8125
1589550998.8347948,0.79,-4.16,8.72,0.44,0.4066666666666667,-0.6433333333333333,0.375,0.5625,-4.5
1589550998.847807,0.79,-4.08,8.75,0.44,0.4066666666666667,-0.6433333333333333,0.3125,0.6875,-4.1875
1589550998.8564882,0.81,-4.14,8.72,0.44,0.4066666666666667,-0.6433333333333333,0.125,0.5,-3.625
1589550998.8687582,0.81,-4.17,8.77,0.4544444444444444,0.4133333333333333,-0.6355555555555555,-0.1875,0.375,-3.0625
1589550998.8748055,0.81,-4.14,8.83,0.4544444444444444,0.4133333333333333,-0.6355555555555555,0.25,0.3125,-2.4375
1589550998.8848634,0.82,-4.13,8.68,0.4544444444444444,0.4133333333333333,-0.6355555555555555,0.25,0.625,-1.625
1589550998.8946354,0.76,-4.07,8.69,0.4544444444444444,0.4133333333333333,-0.6355555555555555,-0.0625,0.625,-1.4375
1589550998.906092,0.79,-4.05,8.77,0.4544444444444444,0.4133333333333333,-0.6355555555555555,-0.125,-0.0625,-1.5
1589550998.914515,0.81,-4.06,8.83,0.4477777777777778,0.4244444444444445,-0.6577777777777778,-0.1875,-0.375,-1.875
1589550998.924942,0.81,-4.07,8.82,0.4477777777777778,0.4244444444444445,-0.6577777777777778,-0.0625,-0.3125,-2.25
1589550998.934378,0.8,-4.08,8.72,0.4477777777777778,0.4244444444444445,-0.6577777777777778,-0.0625,0.0,-2.25
1589550998.9468355,0.8,-4.07,8.78,0.4477777777777778,0.4244444444444445,-0.6577777777777778,-0.1875,-0.0625,-2.3125
1589550998.9611998,0.8,-4.07,8.77,0.4477777777777778,0.4244444444444445,-0.6577777777777778,-0.25,0.0,-2.4375
1589550998.9672446,0.8,-4.05,8.76,0.4544444444444444,0.4,-0.6355555555555555,-0.1875,0.25,-2.9375
1589550998.9764712,0.82,-4.05,8.77,0.4544444444444444,0.4,-0.6355555555555555,-0.125,0.375,-3.0625
1589550998.988156,0.8,-4.07,8.67,0.4544444444444444,0.4,-0.6355555555555555,-0.25,0.125,-3.25
1589550998.9998894,0.85,-4.09,8.69,0.4544444444444444,0.4,-0.6355555555555555,-0.4375,-0.1875,-3.125
1589550999.0069115,0.82,-4.06,8.76,0.4544444444444444,0.4,-0.6355555555555555,-0.5,-0.4375,-2.875
1589550999.0186195,0.8,-4.04,8.83,0.4477777777777778,0.4188888888888889,-0.6433333333333333,-0.9375,-0.875,-2.5
1589550999.0245414,0.81,-3.94,8.79,0.4477777777777778,0.4188888888888889,-0.6433333333333333,-1.375,-1.3125,-2.6875
1589550999.0393634,0.85,-3.75,8.76,0.4477777777777778,0.4188888888888889,-0.6433333333333333,-1.5625,-1.75,-4.1875
1589550999.045216,0.83,-3.72,8.83,0.4477777777777778,0.4188888888888889,-0.6433333333333333,-1.5625,-1.4375,-6.4375
1589550999.0564926,0.83,-3.72,8.82,0.4477777777777778,0.4188888888888889,-0.6433333333333333,-0.875,-0.625,-8.8125
1589550999.0637414,0.86,-3.79,8.77,0.44,0.4,-0.6355555555555555,-0.375,0.125,-11.3125
1589550999.0700026,0.86,-3.79,8.77,0.44,0.4,-0.6355555555555555,-0.375,0.125,-11.3125
1589550999.0804155,0.83,-3.99,8.7,0.44,0.4,-0.6355555555555555,-0.3125,0.4375,-13.125
1589550999.0867224,0.85,-4.14,8.64,0.44,0.4,-0.6355555555555555,-0.0625,0.5,-13.6875
1589550999.0983715,0.85,-4.11,8.64,0.44,0.4,-0.6355555555555555,-0.375,0.1875,-13.0
1589550999.107115,0.81,-4.03,8.68,0.44,0.4,-0.6355555555555555,-1.375,-0.9375,-12.375
1589550999.1182265,0.75,-3.71,8.79,0.42777777777777776,0.4066666666666667,-0.6355555555555555,-2.0625,-1.5,-12.625
1589550999.1247165,0.5,-3.49,8.89,0.42777777777777776,0.4066666666666667,-0.6355555555555555,-3.0625,-2.4375,-13.75
1589550999.1348975,0.34,-3.19,8.88,0.42777777777777776,0.4066666666666667,-0.6355555555555555,-3.75,-2.9375,-14.5
1589550999.1451225,0.01,-2.74,8.89,0.42777777777777776,0.4066666666666667,-0.6355555555555555,-4.8125,-3.375,-15.625
1589550999.1571429,0.26,-2.23,8.94,0.42777777777777776,0.4066666666666667,-0.6355555555555555,-4.375,-2.625,-16.3125
1589550999.170514,0.27,-2.12,8.6,0.44,0.4188888888888889,-0.6355555555555555,-3.8125,-2.125,-15.125
1589550999.177047,0.22,-2.28,8.84,0.44,0.4188888888888889,-0.6355555555555555,-3.875,-2.9375,-14.625
1589550999.1861465,0.23,-2.86,8.29,0.44,0.4188888888888889,-0.6355555555555555,-0.25,2.0,-3.1875
1589550999.1980915,0.31,-2.95,8.45,0.44,0.4188888888888889,-0.6355555555555555,1.5,1.125,14.6875
1589550999.2074196,0.36,-2.93,8.86,0.44,0.4188888888888889,-0.6355555555555555,0.125,-2.3125,28.75
1589550999.2145808,0.57,-2.84,8.6,0.4355555555555555,0.4244444444444445,-0.6433333333333333,0.1875,-1.125,38.8125
1589550999.2296007,0.45,-2.97,9.1,0.4355555555555555,0.4244444444444445,-0.6433333333333333,-0.375,-2.8125,43.4375
1589550999.235826,0.38,-3.04,8.99,0.4355555555555555,0.4244444444444445,-0.6433333333333333,0.0,-2.1875,48.8125
1589550999.2498865,0.53,-3.05,8.64,0.4355555555555555,0.4244444444444445,-0.6433333333333333,0.5625,-2.0625,55.25
1589550999.2585273,0.48,-3.01,8.93,0.4355555555555555,0.4244444444444445,-0.6433333333333333,-0.5,-3.3125,59.375
1589550999.2703125,0.48,-3.05,8.72,0.4477777777777778,0.4133333333333333,-0.6288888888888889,0.375,-2.75,62.6875
1589550999.2770536,0.4,-3.18,8.73,0.4477777777777778,0.4133333333333333,-0.6288888888888889,0.0625,-3.75,65.3125
1589550999.2865255,0.33,-3.09,8.7,0.4477777777777778,0.4133333333333333,-0.6288888888888889,-0.4375,-4.375,68.375
1589550999.298357,0.31,-3.08,8.69,0.4477777777777778,0.4133333333333333,-0.6288888888888889,0.5,-3.625,72.0625
1589550999.3087242,0.29,-3.03,8.6,0.4477777777777778,0.4133333333333333,-0.6288888888888889,0.4375,-3.625,75.5
1589550999.3161352,0.34,-3.03,8.84,0.4544444444444444,0.38666666666666666,-0.6577777777777778,-0.25,-4.75,78.6875
1589550999.3286645,0.29,-2.93,8.72,0.4544444444444444,0.38666666666666666,-0.6577777777777778,0.3125,-3.9375,81.125
1589550999.3371158,0.34,-3.03,8.86,0.4544444444444444,0.38666666666666666,-0.6577777777777778,0.5625,-3.4375,83.125
1589550999.3489175,0.29,-3.02,8.83,0.4544444444444444,0.38666666666666666,-0.6577777777777778,0.6875,-3.0,84.0
1589550999.3615828,0.19,-2.94,8.84,0.4544444444444444,0.38666666666666666,-0.6577777777777778,0.6875,-3.1875,84.5
1589550999.367006,0.3,-3.06,8.68,0.48,0.38,-0.65,0.75,-3.3125,85.9375
1589550999.3781602,0.29,-3.22,8.98,0.48,0.38,-0.65,-0.125,-4.25,86.1875
1589550999.3860712,0.29,-3.32,8.72,0.48,0.38,-0.65,0.8125,-3.0,85.4375
1589550999.4014726,0.19,-3.34,8.85,0.48,0.38,-0.65,0.75,-3.6875,84.375
1589550999.4083974,0.15,-3.28,8.85,0.48,0.38,-0.65,0.125,-4.5,83.625
1589550999.4196546,0.13,-3.28,8.76,0.4988888888888889,0.3388888888888889,-0.67,1.0,-2.875,83.4375
1589550999.4274828,0.03,-3.23,8.68,0.4988888888888889,0.3388888888888889,-0.67,0.9375,-3.0,83.25
1589550999.437148,0.07,-3.11,8.73,0.4988888888888889,0.3388888888888889,-0.67,0.25,-4.1875,83.0625
1589550999.4473805,0.0,-3.19,8.94,0.4988888888888889,0.3388888888888889,-0.67,0.125,-4.0,82.4375
1589550999.4587257,-0.2,-3.32,8.91,0.4988888888888889,0.3388888888888889,-0.67,1.1875,-2.6875,82.75
1589550999.4659734,-0.25,-3.39,8.79,0.52,0.3333333333333333,-0.6788888888888889,1.25,-2.625,84.9375
1589550999.4774427,-0.32,-3.28,8.82,0.52,0.3333333333333333,-0.6788888888888889,0.125,-4.6875,87.25
1589550999.4867456,-0.41,-3.38,8.95,0.52,0.3333333333333333,-0.6788888888888889,-0.1875,-5.4375,90.1875
1589550999.4964972,-0.54,-3.37,8.62,0.52,0.3333333333333333,-0.6788888888888889,0.3125,-4.5625,94.5625
1589550999.502021,-0.54,-3.37,8.62,0.52,0.3333333333333333,-0.6788888888888889,0.3125,-4.5625,94.5625
1589550999.5097842,-0.52,-3.53,8.82,0.52,0.3333333333333333,-0.6788888888888889,0.5625,-4.625,99.75
1589550999.5171392,-0.48,-3.28,8.79,0.5522222222222222,0.3055555555555556,-0.6911111111111111,0.3125,-4.5625,105.0
1589550999.5315645,-0.5,-3.33,8.76,0.5522222222222222,0.3055555555555556,-0.6911111111111111,1.0625,-4.5,109.375
1589550999.5374928,-0.53,-3.45,8.86,0.5522222222222222,0.3055555555555556,-0.6911111111111111,0.875,-5.0,112.875
1589550999.5516467,-0.67,-3.52,8.48,0.5522222222222222,0.3055555555555556,-0.6911111111111111,1.75,-3.5,115.8125
1589550999.560224,-0.63,-3.34,8.86,0.5522222222222222,0.3055555555555556,-0.6911111111111111,0.75,-5.8125,118.3125
1589550999.5711222,-0.63,-3.3,9.32,0.5633333333333334,0.27111111111111114,-0.7055555555555556,-0.125,-6.5625,121.0
1589550999.5772018,-0.85,-3.42,8.43,0.5633333333333334,0.27111111111111114,-0.7055555555555556,0.5625,-3.5625,124.75
1589550999.5877864,-0.92,-3.73,9.1,0.5633333333333334,0.27111111111111114,-0.7055555555555556,0.0625,-7.9375,128.1875
1589550999.5973663,-1.05,-3.8,9.09,0.5633333333333334,0.27111111111111114,-0.7055555555555556,0.25,-7.75,132.375
1589550999.6093614,-1.0,-3.71,8.62,0.5633333333333334,0.27111111111111114,-0.7055555555555556,1.25,-4.5625,136.875
1589550999.6168401,-0.82,-3.3,9.06,0.57,0.22,-0.7122222222222222,0.5625,-6.5625,138.5625
1589550999.628028,-0.94,-3.32,8.85,0.57,0.22,-0.7122222222222222,-0.0625,-6.875,138.625
1589550999.637808,-1.13,-3.49,8.73,0.57,0.22,-0.7122222222222222,0.875,-5.3125,139.6875
1589550999.6489005,-0.99,-3.25,8.68,0.57,0.22,-0.7122222222222222,2.0625,-4.1875,141.375
1589550999.6593714,-1.02,-3.22,8.44,0.57,0.22,-0.7122222222222222,2.1875,-3.375,142.9375
1589550999.6701267,-1.02,-3.15,9.04,0.6022222222222222,0.16111111111111112,-0.7477777777777778,-0.1875,-7.3125,141.625
1589550999.6831408,-1.16,-3.29,9.08,0.6022222222222222,0.16111111111111112,-0.7477777777777778,0.0625,-7.0,139.4375
1589550999.689101,-1.23,-3.19,8.9,0.6022222222222222,0.16111111111111112,-0.7477777777777778,0.25,-6.375,137.5
1589550999.703401,-1.24,-3.11,9.13,0.6022222222222222,0.16111111111111112,-0.7477777777777778,-1.6875,-9.5,134.25
1589550999.7096484,-1.24,-2.99,8.58,0.6022222222222222,0.16111111111111112,-0.7477777777777778,-0.25,-6.0,130.75
1589550999.7171574,-1.42,-3.09,9.22,0.5666666666666667,0.10111111111111112,-0.7833333333333333,-0.3125,-7.0625,127.4375
1589550999.7293036,-1.52,-3.07,8.83,0.5666666666666667,0.10111111111111112,-0.7833333333333333,-0.0625,-5.6875,123.6875
1589550999.7418652,-1.61,-3.08,8.42,0.5666666666666667,0.10111111111111112,-0.7833333333333333,1.25,-2.9375,119.5625
1589550999.7482376,-1.72,-3.13,8.77,0.5666666666666667,0.10111111111111112,-0.7833333333333333,0.1875,-5.0,114.8125
1589550999.7599082,-1.83,-2.92,8.68,0.5666666666666667,0.10111111111111112,-0.7833333333333333,0.0625,-4.875,110.125
1589550999.7676473,-1.68,-2.71,8.8,0.54,0.021111111111111112,-0.7911111111111111,-0.1875,-3.6875,106.0
1589550999.7799325,-1.72,-2.65,9.21,0.54,0.021111111111111112,-0.7911111111111111,-0.125,-4.5,103.5
1589550999.7888775,-1.9,-2.72,8.73,0.54,0.021111111111111112,-0.7911111111111111,1.375,-2.9375,101.9375
1589550999.7982304,-1.74,-2.59,8.86,0.54,0.021111111111111112,-0.7911111111111111,-0.375,-3.0,98.9375
1589550999.8105464,-1.81,-2.65,8.69,0.54,0.021111111111111112,-0.7911111111111111,-0.625,-3.25,95.9375
1589550999.820158,-2.01,-2.7,9.24,0.5077777777777778,-0.05333333333333334,-0.7766666666666666,-1.375,-4.25,91.125
1589550999.8314562,-1.69,-2.31,8.32,0.5077777777777778,-0.05333333333333334,-0.7766666666666666,0.125,-1.125,87.4375
1589550999.8417392,-1.8,-2.25,7.87,0.5077777777777778,-0.05333333333333334,-0.7766666666666666,-0.125,1.1875,83.125
1589550999.8543925,-2.25,-2.62,9.92,0.5077777777777778,-0.05333333333333334,-0.7766666666666666,-3.5,-6.75,78.1875
1589550999.8606155,-2.18,-2.55,9.31,0.5077777777777778,-0.05333333333333334,-0.7766666666666666,0.9375,-1.25,78.5625
1589550999.8694339,-1.68,-2.21,9.77,0.5011111111111111,-0.10111111111111112,-0.7688888888888888,1.1875,0.1875,76.5625
1589550999.8817835,-1.7,-2.02,8.9,0.5011111111111111,-0.10111111111111112,-0.7688888888888888,-2.8125,-5.1875,70.4375
1589550999.89334,-1.93,-2.12,8.8,0.5011111111111111,-0.10111111111111112,-0.7688888888888888,1.375,-2.25,67.625
1589550999.9018486,-1.29,-1.68,7.58,0.5011111111111111,-0.10111111111111112,-0.7688888888888888,0.3125,1.0625,64.9375
1589550999.9119105,-2.12,-2.24,8.82,0.5011111111111111,-0.10111111111111112,-0.7688888888888888,-1.6875,2.5625,59.625
1589550999.9181294,-2.35,-2.38,10.14,0.4688888888888889,-0.1288888888888889,-0.8244444444444444,-2.25,-7.0625,53.125
1589550999.9242926,-2.35,-2.38,10.14,0.4688888888888889,-0.1288888888888889,-0.8244444444444444,-2.25,-7.0625,53.125
1589550999.9345467,-2.35,-2.17,8.31,0.4688888888888889,-0.1288888888888889,-0.8244444444444444,1.4375,1.75,51.25
1589550999.9406786,-2.11,-2.14,9.56,0.4688888888888889,-0.1288888888888889,-0.8244444444444444,-1.9375,-2.6875,47.4375
1589550999.9501119,-2.37,-2.23,9.18,0.4688888888888889,-0.1288888888888889,-0.8244444444444444,-1.3125,-3.625,45.1875
1589550999.9612641,-2.0,-1.93,8.32,0.4688888888888889,-0.1288888888888889,-0.8244444444444444,1.875,2.3125,44.3125
1589550999.9715242,-1.9,-1.94,9.07,0.3911111111111111,-0.2344444444444445,-0.7411111111111112,-0.25,-1.4375,40.5
1589550999.9791734,-2.1,-2.03,9.0,0.3911111111111111,-0.2344444444444445,-0.7411111111111112,-0.125,-0.9375,37.0625
1589550999.9891367,-2.31,-2.14,8.76,0.3911111111111111,-0.2344444444444445,-0.7411111111111112,1.25,0.5,33.375
1589550999.9947257,-2.31,-2.14,8.76,0.3911111111111111,-0.2344444444444445,-0.7411111111111112,1.25,0.5,33.375
1589551000.0057724,-2.15,-1.95,8.27,0.3911111111111111,-0.2344444444444445,-0.7411111111111112,-0.125,-1.3125,28.6875
1589551000.0121038,-1.82,-1.88,9.36,0.3911111111111111,-0.2344444444444445,-0.7411111111111112,-3.375,-6.1875,24.8125
1589551000.01968,-1.81,-1.77,8.45,0.4622222222222222,-0.2311111111111111,-0.65,-0.375,-1.625,24.1875
1589551000.0301533,-2.08,-1.93,8.6,0.4622222222222222,-0.2311111111111111,-0.65,1.9375,2.0625,21.6875
1589551000.0444975,-2.6,-2.31,9.82,0.4622222222222222,-0.2311111111111111,-0.65,-1.375,-3.375,17.3125
1589551000.0504525,-2.22,-2.0,8.25,0.4622222222222222,-0.2311111111111111,-0.65,0.8125,2.75,17.4375
1589551000.0658514,-1.85,-1.76,8.3,0.4622222222222222,-0.2311111111111111,-0.65,1.4375,1.3125,15.875
1589551000.0712626,-2.23,-2.05,9.62,0.4666666666666667,-0.21333333333333332,-0.65,-3.625,-8.1875,11.625
1589551000.0832222,-1.78,-1.69,8.68,0.4666666666666667,-0.21333333333333332,-0.65,-4.0,-4.6875,9.1875
1589551000.090543,-2.18,-1.94,8.5,0.4666666666666667,-0.21333333333333332,-0.65,3.5625,4.4375,9.1875
1589551000.1026232,-2.43,-2.2,9.85,0.4666666666666667,-0.21333333333333332,-0.65,2.9375,0.8125,10.0
1589551000.1119654,-2.03,-1.85,8.22,0.4666666666666667,-0.21333333333333332,-0.65,1.5,2.8125,11.4375
1589551000.1228867,-2.28,-2.11,10.01,0.5066666666666667,-0.19333333333333333,-0.6355555555555555,-0.625,-0.375,11.1875
1589551000.1300287,-2.15,-1.86,8.39,0.5066666666666667,-0.19333333333333333,-0.6355555555555555,0.25,-3.125,11.5625
1589551000.1406338,-2.21,-2.0,8.23,0.5066666666666667,-0.19333333333333333,-0.6355555555555555,1.875,1.1875,9.625
1589551000.1504312,-2.15,-1.99,8.58,0.5066666666666667,-0.19333333333333333,-0.6355555555555555,-2.6875,-5.9375,3.8125
1589551000.1620064,-2.21,-1.99,8.78,0.5066666666666667,-0.19333333333333333,-0.6355555555555555,1.0625,0.25,-1.5625
1589551000.1702654,-2.32,-2.0,9.02,0.5333333333333333,-0.16444444444444445,-0.65,0.0,-0.5,-7.4375
1589551000.1805167,-2.27,-2.07,9.31,0.5333333333333333,-0.16444444444444445,-0.65,-0.6875,-2.0,-10.6875
1589551000.192875,-2.43,-2.08,8.56,0.5333333333333333,-0.16444444444444445,-0.65,1.1875,1.5,-14.3125
1589551000.201885,-2.9,-2.43,9.34,0.5333333333333333,-0.16444444444444445,-0.65,0.5625,0.25,-17.75
1589551000.2122822,-2.64,-2.29,9.15,0.5333333333333333,-0.16444444444444445,-0.65,-0.75,-0.9375,-20.3125
1589551000.2210102,-1.87,-1.81,8.57,0.5244444444444445,-0.16444444444444445,-0.6577777777777778,1.6875,2.8125,-21.0625
1589551000.2356305,-2.42,-1.54,9.75,0.5244444444444445,-0.16444444444444445,-0.6577777777777778,0.375,-2.3125,-23.6875
1589551000.2417266,-1.78,-2.55,8.89,0.5244444444444445,-0.16444444444444445,-0.6577777777777778,-3.375,-3.4375,-26.0625
1589551000.2538238,-2.68,-3.35,8.78,0.5244444444444445,-0.16444444444444445,-0.6577777777777778,1.875,4.5,-25.9375
1589551000.2628367,-1.41,-1.77,8.77,0.5244444444444445,-0.16444444444444445,-0.6577777777777778,1.875,2.4375,-27.0625
1589551000.273666,-1.87,-1.78,9.57,0.5311111111111111,-0.15222222222222226,-0.67,-0.875,0.0625,-34.625
1589551000.281261,-2.04,-1.86,9.03,0.5311111111111111,-0.15222222222222226,-0.67,-2.25,-0.25,-54.4375
1589551000.2946672,-1.89,-1.86,8.49,0.5311111111111111,-0.15222222222222226,-0.67,0.75,4.5,-66.3125
1589551000.3009875,-2.24,-2.51,9.08,0.5311111111111111,-0.15222222222222226,-0.67,0.5625,3.1875,-77.875
1589551000.3164403,-2.4,-2.56,8.52,0.5311111111111111,-0.15222222222222226,-0.67,1.0,5.4375,-84.125
1589551000.3235884,-2.33,-2.58,8.89,0.5222222222222223,-0.15222222222222226,-0.6577777777777778,-0.5625,3.875,-87.375
1589551000.335305,-2.47,-2.55,8.99,0.5222222222222223,-0.15222222222222226,-0.6577777777777778,-3.3125,-1.0625,-88.625
1589551000.342135,-1.89,-2.12,7.33,0.5222222222222223,-0.15222222222222226,-0.6577777777777778,1.0,6.6875,-86.5625
1589551000.3516376,-1.99,-2.46,9.39,0.5222222222222223,-0.15222222222222226,-0.6577777777777778,0.75,4.625,-88.5625
1589551000.3662915,-1.91,-2.46,9.21,0.5222222222222223,-0.15222222222222226,-0.6577777777777778,-3.0,-0.5,-93.875
1589551000.3719115,-2.11,-2.65,9.47,0.4955555555555556,-0.2111111111111111,-0.6577777777777778,0.25,4.875,-95.1875
1589551000.3811734,-2.4,-2.98,8.58,0.4955555555555556,-0.2111111111111111,-0.6577777777777778,-1.5,4.0,-97.6875
1589551000.391842,-2.33,-3.02,8.71,0.4955555555555556,-0.2111111111111111,-0.6577777777777778,-0.125,5.375,-96.125
1589551000.40231,-2.57,-3.12,8.39,0.4955555555555556,-0.2111111111111111,-0.6577777777777778,-1.0625,3.0,-89.9375
1589551000.413463,-2.44,-3.07,8.79,0.4955555555555556,-0.2111111111111111,-0.6577777777777778,-0.25,5.125,-81.25
1589551000.4257653,-2.42,-3.11,9.28,0.41,-0.5522222222222222,-0.37666666666666665,-0.5625,1.8125,-70.8125
1589551000.4324186,-2.36,-3.22,9.08,0.41,-0.5522222222222222,-0.37666666666666665,-0.5625,1.8125,-70.8125
1589551000.4461875,-2.4,-3.4,9.05,0.41,-0.5522222222222222,-0.37666666666666665,1.1875,3.875,-66.3125
1589551000.4520967,-1.68,-2.77,8.36,0.41,-0.5522222222222222,-0.37666666666666665,0.125,3.75,-60.25
1589551000.463527,-1.56,-2.83,9.01,0.41,-0.5522222222222222,-0.37666666666666665,0.375,2.9375,-61.625
1589551000.471473,-1.8,-3.23,8.69,1.4022222222222225,0.04,0.2255555555555556,-0.6875,2.9375,-65.9375
1589551000.4828606,-1.52,-2.95,9.05,1.4022222222222225,0.04,0.2255555555555556,-2.0,0.8125,-69.75
1589551000.4925506,-1.55,-2.99,8.95,1.4022222222222225,0.04,0.2255555555555556,-0.875,2.3125,-71.0625
1589551000.5045097,-1.76,-3.17,8.43,1.4022222222222225,0.04,0.2255555555555556,-0.4375,1.6875,-70.8125
1589551000.5167248,-1.69,-3.41,9.2,1.4022222222222225,0.04,0.2255555555555556,-0.9375,1.625,-70.5625
1589551000.522276,-1.76,-3.56,8.68,0.8866666666666667,0.08333333333333333,-0.6588888888888889,0.6875,4.5,-70.1875
1589551000.532465,-1.72,-3.58,8.73,0.8866666666666667,0.08333333333333333,-0.6588888888888889,-0.375,2.75,-70.875
1589551000.5439992,-1.51,-3.42,8.79,0.8866666666666667,0.08333333333333333,-0.6588888888888889,-1.0625,1.5625,-71.75
1589551000.5527506,-1.81,-3.65,8.78,0.8866666666666667,0.08333333333333333,-0.6588888888888889,1.5625,6.125,-71.5625
1589551000.5642493,-1.49,-3.45,8.11,0.8866666666666667,0.08333333333333333,-0.6588888888888889,0.9375,5.1875,-73.4375
1589551000.5743651,-1.34,-3.39,8.86,0.6666666666666666,0.07444444444444444,-0.7144444444444444,-2.1875,-0.3125,-78.5
1589551000.5838985,-1.46,-3.46,9.06,0.6666666666666666,0.07444444444444444,-0.7144444444444444,-1.1875,1.125,-81.8125
1589551000.5960178,-1.47,-3.43,8.46,0.6666666666666666,0.07444444444444444,-0.7144444444444444,-0.375,3.375,-83.6875
1589551000.602431,-1.5,-3.51,8.91,0.6666666666666666,0.07444444444444444,-0.7144444444444444,-0.9375,2.3125,-84.0625
1589551000.6152005,-1.77,-3.89,9.12,0.6666666666666666,0.07444444444444444,-0.7144444444444444,0.6875,4.875,-82.3125
1589551000.6230414,-1.51,-3.78,8.76,0.6411111111111111,0.10111111111111112,-0.7288888888888889,-0.0625,4.0625,-81.6875
1589551000.6324654,-1.33,-3.74,8.78,0.6411111111111111,0.10111111111111112,-0.7288888888888889,-0.625,2.9375,-81.5
1589551000.6379955,-1.33,-3.74,8.78,0.6411111111111111,0.10111111111111112,-0.7288888888888889,-0.625,2.9375,-81.5
1589551000.6440785,-1.25,-3.69,8.71,0.6411111111111111,0.10111111111111112,-0.7288888888888889,-1.25,1.375,-81.5
1589551000.6539195,-1.49,-4.04,8.86,0.6411111111111111,0.10111111111111112,-0.7288888888888889,-0.5,3.25,-82.5
1589551000.668087,-1.24,-3.71,8.62,0.6411111111111111,0.10111111111111112,-0.7288888888888889,0.4375,4.8125,-82.375
1589551000.673249,-1.17,-3.73,8.95,0.6088888888888889,0.12222222222222222,-0.7066666666666667,0.375,4.25,-82.625
1589551000.6841805,-1.31,-3.83,8.88,0.6088888888888889,0.12222222222222222,-0.7066666666666667,0.3125,4.3125,-82.25
1589551000.6960466,-1.19,-3.7,8.9,0.6088888888888889,0.12222222222222222,-0.7066666666666667,-1.125,1.6875,-81.75
1589551000.7029164,-1.19,-3.8,9.16,0.6088888888888889,0.12222222222222222,-0.7066666666666667,-0.9375,1.875,-79.4375
1589551000.7149014,-1.12,-3.71,8.54,0.6088888888888889,0.12222222222222222,-0.7066666666666667,0.5625,4.1875,-75.875
1589551000.724467,-1.23,-3.91,8.8,0.6044444444444445,0.1511111111111111,-0.7288888888888889,-0.8125,1.375,-72.875
1589551000.733206,-0.99,-3.75,8.27,0.6044444444444445,0.1511111111111111,-0.7288888888888889,2.3125,5.4375,-67.9375
1589551000.7484286,-13.43,-18.2,13.63,0.6044444444444445,0.1511111111111111,-0.7288888888888889,0.6875,11.5,-63.1875
1589551000.7547724,-18.38,-15.42,2.82,0.6044444444444445,0.1511111111111111,-0.7288888888888889,-25.5625,15.5,-291.0
1589551000.7665846,-1.82,-3.0,4.61,0.6044444444444445,0.1511111111111111,-0.7288888888888889,-75.625,-85.875,-491.8125
1589551000.7743747,-1.19,-3.62,12.88,0.5844444444444444,0.2111111111111111,-0.7066666666666667,-30.25,30.25,-377.1875
1589551000.7832649,-4.32,-2.27,12.79,0.5844444444444444,0.2111111111111111,-0.7066666666666667,63.1875,103.0,-330.625
1589551000.7914498,-4.32,-2.27,12.79,0.5844444444444444,0.2111111111111111,-0.7066666666666667,63.1875,103.0,-330.625
1589551000.797518,-0.83,-0.43,6.54,0.5844444444444444,0.2111111111111111,-0.7066666666666667,70.1875,30.875,-278.625
1589551000.809342,0.33,-1.9,11.32,0.5844444444444444,0.2111111111111111,-0.7066666666666667,-36.6875,-10.125,-204.875
1589551000.8159866,0.09,-1.6,10.15,0.5844444444444444,0.2111111111111111,-0.7066666666666667,-5.4375,6.125,-167.125
1589551000.8273635,0.1,-1.41,7.88,0.5377777777777778,0.3644444444444445,-0.7,13.75,19.0625,-138.9375
1589551000.8337336,-0.03,-2.68,9.16,0.5377777777777778,0.3644444444444445,-0.7,-6.125,1.375,-110.0625
1589551000.84383,0.08,-2.79,9.67,0.5377777777777778,0.3644444444444445,-0.7,-3.75,-0.5,-81.125
1589551000.8537636,0.04,-2.65,8.36,0.5377777777777778,0.3644444444444445,-0.7,3.4375,6.6875,-52.1875
1589551000.865915,0.05,-2.74,8.76,0.5377777777777778,0.3644444444444445,-0.7,-0.3125,1.375,-29.3125
1589551000.8758173,0.12,-2.73,8.73,0.46,0.4155555555555556,-0.7144444444444444,-1.375,0.375,-9.1875
1589551000.8859422,-0.87,-6.04,8.77,0.46,0.4155555555555556,-0.7144444444444444,1.0,0.5,7.625
1589551000.8990324,-3.83,-25.29,10.13,0.46,0.4155555555555556,-0.7144444444444444,-2.125,4.25,73.1875
1589551000.9058516,1.6,-1.27,10.44,0.46,0.4155555555555556,-0.7144444444444444,5.5625,-5.625,153.75
1589551000.9205198,1.44,-2.03,10.75,0.46,0.4155555555555556,-0.7144444444444444,3.25,-15.125,137.6875
1589551000.926054,0.85,-2.23,6.79,0.4655555555555556,0.4455555555555555,-0.6933333333333334,0.6875,2.125,120.8125
1589551000.935225,7.94,-17.53,6.92,0.4655555555555556,0.4455555555555555,-0.6933333333333334,-8.625,-17.375,68.75
1589551000.9443333,-0.67,-1.33,7.34,0.4655555555555556,0.4455555555555555,-0.6933333333333334,1.1875,8.8125,14.5
1589551000.9583974,0.65,-7.4,8.55,0.4655555555555556,0.4455555555555555,-0.6933333333333334,11.875,5.5,12.875
1589551000.9659956,-0.39,-3.61,8.7,0.4655555555555556,0.4455555555555555,-0.6933333333333334,-5.9375,-2.875,-0.375
1589551000.9769738,0.35,-4.6,9.08,0.4977777777777778,0.38666666666666666,-0.7144444444444444,-1.0,-1.75,-1.6875
1589551000.984742,-0.01,-4.17,8.44,0.4977777777777778,0.38666666666666666,-0.7144444444444444,0.875,1.9375,-0.3125
1589551000.994957,0.23,-4.3,8.86,0.4977777777777778,0.38666666666666666,-0.7144444444444444,-1.125,-1.5,-0.1875
1589551001.0043662,0.07,-4.12,8.67,0.4977777777777778,0.38666666666666666,-0.7144444444444444,0.875,0.3125,0.0
1589551001.0166266,0.16,-4.15,8.86,0.4977777777777778,0.38666666666666666,-0.7144444444444444,0.5,-0.3125,0.0
1589551001.0241976,0.05,-4.15,8.68,0.4922222222222222,0.38666666666666666,-0.7055555555555556,-0.1875,0.8125,0.0
1589551001.0394168,0.16,-4.22,8.81,0.4922222222222222,0.38666666666666666,-0.7055555555555556,-0.375,-0.3125,0.0
1589551001.050646,0.11,-4.17,8.59,0.4922222222222222,0.38666666666666666,-0.7055555555555556,0.0,-0.0625,0.0625
1589551001.0572462,0.13,-4.11,8.8,0.4922222222222222,0.38666666666666666,-0.7055555555555556,0.625,-0.125,0.125
1589551001.072394,0.07,-4.11,8.77,0.4922222222222222,0.38666666666666666,-0.7055555555555556,0.8125,0.5,0.1875
1589551001.0784626,0.13,-4.18,8.84,0.5111111111111111,0.3744444444444445,-0.7055555555555556,-0.3125,-0.125,0.0
1589551001.0863733,0.12,-4.23,8.69,0.5111111111111111,0.3744444444444445,-0.7055555555555556,-0.75,0.1875,-0.0625
1589551001.0982766,0.15,-4.17,8.67,0.5111111111111111,0.3744444444444445,-0.7055555555555556,-0.1875,-0.125,0.0
1589551001.1096368,0.11,-4.17,8.7,0.5111111111111111,0.3744444444444445,-0.7055555555555556,0.4375,0.1875,0.0625
1589551001.118651,0.14,-4.15,8.86,0.5111111111111111,0.3744444444444445,-0.7055555555555556,0.625,0.0625,0.0
1589551001.129677,0.13,-4.22,8.81,0.4922222222222222,0.3944444444444444,-0.6855555555555556,-0.0625,-0.125,0.0625
1589551001.1361105,0.12,-4.17,8.73,0.4922222222222222,0.3944444444444444,-0.6855555555555556,-0.5,0.0,-0.125
1589551001.1481574,0.14,-4.21,8.65,0.4922222222222222,0.3944444444444444,-0.6855555555555556,-0.25,0.0625,0.125
1589551001.1561475,0.14,-4.14,8.77,0.4922222222222222,0.3944444444444444,-0.6855555555555556,0.4375,0.3125,0.0625
1589551001.1688135,0.1,-4.15,8.79,0.4922222222222222,0.3944444444444444,-0.6855555555555556,0.6875,0.125,0.125
1589551001.1761599,0.13,-4.12,8.83,0.4844444444444445,0.38,-0.6933333333333334,0.1875,0.125,0.0
1589551001.186728,0.12,-4.17,8.79,0.4844444444444445,0.38,-0.6933333333333334,-0.5,0.0,0.0
1589551001.195799,0.11,-4.17,8.61,0.4844444444444445,0.38,-0.6933333333333334,-0.3125,0.0,0.0
1589551001.2060485,0.14,-4.21,8.76,0.4844444444444445,0.38,-0.6933333333333334,0.0,0.0,0.0
1589551001.2235105,0.11,-4.15,8.75,0.4844444444444445,0.38,-0.6933333333333334,0.4375,0.0625,-0.125
1589551001.2297387,0.14,-4.11,8.87,0.4777777777777778,0.38666666666666666,-0.6711111111111111,0.25,0.125,0.0625
1589551001.236451,0.1,-4.17,8.72,0.4777777777777778,0.38666666666666666,-0.6711111111111111,-0.0625,0.3125,0.1875
1589551001.247429,0.13,-4.21,8.66,0.4777777777777778,0.38666666666666666,-0.6711111111111111,-0.6875,0.0,0.0625
1589551001.2600262,0.12,-4.21,8.68,0.4777777777777778,0.38666666666666666,-0.6711111111111111,-0.25,-0.0625,0.0
1589551001.2693222,0.13,-4.14,8.81,0.4777777777777778,0.38666666666666666,-0.6711111111111111,0.5,0.25,-0.0625
1589551001.2808115,0.11,-4.13,8.8,0.5111111111111111,0.3944444444444444,-0.7055555555555556,0.6875,0.5,0.1875
1589551001.2867935,0.12,-4.16,8.81,0.5111111111111111,0.3944444444444444,-0.7055555555555556,0.0,0.0625,0.0625
1589551001.300943,0.1,-4.17,8.67,0.5111111111111111,0.3944444444444444,-0.7055555555555556,-0.6875,-0.0625,0.1875
1589551001.3077269,0.15,-4.2,8.74,0.5111111111111111,0.3944444444444444,-0.7055555555555556,-0.4375,-0.125,-0.0625
1589551001.32009,0.11,-4.17,8.77,0.5111111111111111,0.3944444444444444,-0.7055555555555556,0.1875,0.0625,0.1875
1589551001.3267162,0.11,-4.17,8.8,0.4922222222222222,0.3944444444444444,-0.7055555555555556,0.5,-0.0625,0.0625
1589551001.3398366,0.12,-4.17,8.76,0.4922222222222222,0.3944444444444444,-0.7055555555555556,0.125,0.0625,0.1875
1589551001.3474324,0.1,-4.19,8.66,0.4922222222222222,0.3944444444444444,-0.7055555555555556,-0.4375,-0.125,0.0
1589551001.3574116,0.1,-4.22,8.67,0.4922222222222222,0.3944444444444444,-0.7055555555555556,-0.3125,-0.125,-0.125
1589551001.37535,0.12,-4.19,8.76,0.4922222222222222,0.3944444444444444,-0.7055555555555556,0.25,-0.1875,0.0625
1589551001.3812141,0.13,-4.14,8.83,0.4922222222222222,0.4011111111111111,-0.6788888888888889,0.625,0.1875,0.0
1589551001.387642,0.1,-4.16,8.79,0.4922222222222222,0.4011111111111111,-0.6788888888888889,0.3125,0.125,0.125
1589551001.3994665,0.11,-4.18,8.67,0.4922222222222222,0.4011111111111111,-0.6788888888888889,-0.1875,0.3125,0.0625
1589551001.4128823,0.12,-4.2,8.68,0.4922222222222222,0.4011111111111111,-0.6788888888888889,-0.4375,0.125,-0.125
1589551001.4199045,0.13,-4.18,8.75,0.4922222222222222,0.4011111111111111,-0.6788888888888889,0.0,-0.0625,0.0625
1589551001.4316938,0.11,-4.15,8.78,0.4922222222222222,0.38,-0.6933333333333334,0.375,0.125,-0.125
1589551001.437848,0.11,-4.14,8.8,0.4922222222222222,0.38,-0.6933333333333334,0.25,0.1875,0.0
1589551001.4524002,0.13,-4.17,8.66,0.4922222222222222,0.38,-0.6933333333333334,-0.25,0.0625,0.0625
1589551001.4590812,0.12,-4.2,8.71,0.4922222222222222,0.38,-0.6933333333333334,-0.25,0.125,0.0625
1589551001.4718065,0.12,-4.18,8.73,0.4922222222222222,0.38,-0.6933333333333334,-0.1875,0.0,0.125
1589551001.4783726,0.11,-4.18,8.77,0.4844444444444445,0.38666666666666666,-0.6855555555555556,0.3125,0.125,0.0625
1589551001.4914374,0.12,-4.14,8.76,0.4844444444444445,0.38666666666666666,-0.6855555555555556,0.375,0.3125,0.0
1589551001.4976392,0.12,-4.16,8.71,0.4844444444444445,0.38666666666666666,-0.6855555555555556,0.0625,0.25,-0.0625
1589551001.508725,0.11,-4.17,8.71,0.4844444444444445,0.38666666666666666,-0.6855555555555556,-0.25,0.0,0.0625
1589551001.520591,0.13,-4.18,8.75,0.4844444444444445,0.38666666666666666,-0.6855555555555556,-0.25,0.0,0.0
1589551001.5275743,0.12,-4.16,8.79,0.5044444444444445,0.4011111111111111,-0.7,0.1875,0.125,0.0625
1589551001.5390124,0.12,-4.16,8.84,0.5044444444444445,0.4011111111111111,-0.7,0.375,0.25,-0.0625
1589551001.5499856,0.11,-4.16,8.7,0.5044444444444445,0.4011111111111111,-0.7,0.1875,-0.125,0.0
1589551001.5605395,0.12,-4.19,8.73,0.5044444444444445,0.4011111111111111,-0.7,-0.25,0.0625,0.0
1589551001.571493,0.13,-4.18,8.75,0.5044444444444445,0.4011111111111111,-0.7,-0.3125,0.0,0.0
1589551001.5838141,0.12,-4.18,8.75,0.4922222222222222,0.3944444444444444,-0.7,0.0625,-0.125,0.0625
1589551001.5896332,0.11,-4.14,8.75,0.4922222222222222,0.3944444444444444,-0.7,0.4375,0.0,0.0625
1589551001.6038005,0.11,-4.15,8.7,0.4922222222222222,0.3944444444444444,-0.7,0.4375,-0.0625,0.0
1589551001.6098824,0.13,-4.18,8.73,0.4922222222222222,0.3944444444444444,-0.7,0.0,0.0625,0.125
1589551001.6234467,0.13,-4.18,8.75,0.4922222222222222,0.3944444444444444,-0.7,-0.4375,-0.0625,-0.0625
1589551001.6298928,0.13,-4.19,8.79,0.5111111111111111,0.4011111111111111,-0.6911111111111111,-0.1875,0.0625,0.0625
1589551001.6421974,0.11,-4.16,8.79,0.5111111111111111,0.4011111111111111,-0.6911111111111111,0.3125,0.125,0.1875
1589551001.6480956,0.11,-4.16,8.68,0.5111111111111111,0.4011111111111111,-0.6911111111111111,0.3125,0.0,0.0625
1589551001.6625946,0.1,-4.16,8.72,0.5111111111111111,0.4011111111111111,-0.6911111111111111,0.0,0.0,0.125
1589551001.6721046,0.13,-4.21,8.74,0.5111111111111111,0.4011111111111111,-0.6911111111111111,-0.3125,0.0625,0.0625
1589551001.6821134,0.14,-4.22,8.76,0.4977777777777778,0.3944444444444444,-0.7,-0.1875,-0.1875,0.0625
1589551001.6894054,0.12,-4.18,8.78,0.4977777777777778,0.3944444444444444,-0.7,0.125,-0.1875,-0.125
1589551001.6990886,0.1,-4.16,8.68,0.4977777777777778,0.3944444444444444,-0.7,0.4375,0.0625,0.0
1589551001.709388,0.12,-4.17,8.73,0.4977777777777778,0.3944444444444444,-0.7,0.25,-0.1875,0.0625
1589551001.7212903,0.13,-4.17,8.75,0.4977777777777778,0.3944444444444444,-0.7,-0.1875,0.0625,0.0625
1589551001.7344348,0.13,-4.18,8.76,0.4844444444444445,0.38,-0.7055555555555556,-0.3125,0.0625,0.0625
1589551001.7407565,0.1,-4.17,8.77,0.4844444444444445,0.38,-0.7055555555555556,0.0625,0.0625,0.0
1589551001.7496407,0.11,-4.17,8.71,0.4844444444444445,0.38,-0.7055555555555556,0.375,0.125,-0.0625
1589551001.7605858,0.11,-4.16,8.72,0.4844444444444445,0.38,-0.7055555555555556,0.0625,0.1875,0.125
1589551001.771671,0.12,-4.18,8.74,0.4844444444444445,0.38,-0.7055555555555556,-0.125,0.1875,-0.125
1589551001.778855,0.12,-4.19,8.76,0.5044444444444445,0.38666666666666666,-0.6788888888888889,-0.375,0.125,0.0625
