time,acc_x,acc_y,acc_z,mag_x,mag_y,mag_z,gyr_x,gyr_y,gyr_z
1589551274.258642,0.24,-4.18,8.83,0.43666666666666665,0.31777777777777777,-0.64,0.0625,-0.1875,-0.0625
1589551274.267314,0.23,-4.17,8.83,0.43666666666666665,0.31777777777777777,-0.64,0.125,-0.0625,-0.1875
1589551274.273278,0.24,-4.17,8.75,0.43666666666666665,0.31777777777777777,-0.64,-0.25,-0.0625,-0.25
1589551274.2835028,0.24,-4.17,8.76,0.43666666666666665,0.31777777777777777,-0.64,-0.0625,0.125,-0.3125
1589551274.2964885,0.23,-4.17,8.76,0.43666666666666665,0.31777777777777777,-0.64,-0.1875,-0.125,-0.375
1589551274.3077047,0.24,-4.17,8.8,0.43666666666666665,0.31777777777777777,-0.6533333333333333,-0.125,-0.1875,-0.25
1589551274.3140836,0.23,-4.18,8.74,0.43666666666666665,0.31777777777777777,-0.6533333333333333,-0.125,-0.125,-0.4375
1589551274.326174,0.24,-4.16,8.68,0.43666666666666665,0.31777777777777777,-0.6533333333333333,-0.1875,-0.1875,-0.625
1589551274.333432,0.26,-4.2,8.72,0.43666666666666665,0.31777777777777777,-0.6533333333333333,0.0,-0.125,-0.5625
1589551274.3462322,0.26,-4.23,8.8,0.43666666666666665,0.31777777777777777,-0.6533333333333333,0.0625,0.0625,-0.5625
1589551274.3536274,0.27,-4.23,8.82,0.44222222222222224,0.31222222222222223,-0.6322222222222222,0.1875,0.1875,-0.4375
1589551274.3661106,0.26,-4.21,8.82,0.44222222222222224,0.31222222222222223,-0.6322222222222222,0.1875,0.4375,-0.0625
1589551274.3782895,0.25,-4.17,8.72,0.44222222222222224,0.31222222222222223,-0.6322222222222222,0.25,0.375,0.0
1589551274.3844738,0.27,-4.19,8.78,0.44222222222222224,0.31222222222222223,-0.6322222222222222,0.25,0.5,-0.125
1589551274.3968987,0.24,-4.18,8.79,0.44222222222222224,0.31222222222222223,-0.6322222222222222,0.0,0.25,-0.125
1589551274.403877,0.24,-4.18,8.8,0.43666666666666665,0.2911111111111111,-0.6466666666666666,-0.125,0.0,-0.1875
1589551274.4178412,0.24,-4.13,8.72,0.43666666666666665,0.2911111111111111,-0.6466666666666666,-0.3125,-0.0625,-0.3125
1589551274.4246714,0.05,-3.94,8.43,0.43666666666666665,0.2911111111111111,-0.6466666666666666,-0.875,-0.9375,-0.125
1589551274.4343414,0.4,-4.18,9.12,0.43666666666666665,0.2911111111111111,-0.6466666666666666,-1.4375,-1.75,0.3125
1589551274.4468837,0.26,-4.04,8.69,0.43666666666666665,0.2911111111111111,-0.6466666666666666,0.1875,0.75,0.5625
1589551274.4545958,0.3,-4.17,8.91,0.44222222222222224,0.31777777777777777,-0.6611111111111111,-0.3125,-0.25,0.75
1589551274.46486,0.26,-4.18,8.79,0.44222222222222224,0.31777777777777777,-0.6611111111111111,0.0,0.1875,0.6875
1589551274.476887,0.2,-4.24,8.63,0.44222222222222224,0.31777777777777777,-0.6611111111111111,0.0625,0.1875,0.75
1589551274.4841492,0.18,-4.35,8.75,0.44222222222222224,0.31777777777777777,-0.6611111111111111,-0.0625,-0.125,0.8125
1589551274.4970605,0.2,-4.37,8.79,0.44222222222222224,0.31777777777777777,-0.6611111111111111,-0.25,-0.375,0.6875
1589551274.5046766,0.23,-4.33,8.79,0.44222222222222224,0.31777777777777777,-0.6677777777777778,-0.25,-0.4375,0.5625
1589551274.5147758,0.2,-4.29,8.78,0.44222222222222224,0.31777777777777777,-0.6677777777777778,-0.1875,-0.5,0.4375
1589551274.5256908,0.25,-4.22,8.68,0.44222222222222224,0.31777777777777777,-0.6677777777777778,-0.1875,-0.5,0.4375
1589551274.534163,0.22,-4.19,8.71,0.44222222222222224,0.31777777777777777,-0.6677777777777778,0.0,-0.25,0.375
1589551274.5514865,0.24,-4.16,8.79,0.44222222222222224,0.31777777777777777,-0.6677777777777778,0.0,-0.4375,0.5
1589551274.5575356,0.25,-4.16,8.8,0.44222222222222224,0.3244444444444444,-0.64,0.125,-0.125,0.3125
1589551274.5699096,0.24,-4.15,8.77,0.44222222222222224,0.3244444444444444,-0.64,0.0625,-0.1875,0.3125
1589551274.5759525,0.24,-4.16,8.7,0.44222222222222224,0.3244444444444444,-0.64,0.0,0.0625,0.1875
1589551274.58895,0.24,-4.12,8.77,0.44222222222222224,0.3244444444444444,-0.64,-0.0625,-0.125,0.1875
1589551274.5982044,0.13,-4.11,8.78,0.44222222222222224,0.3244444444444444,-0.64,-0.0625,-0.25,0.1875
1589551274.608951,0.26,-4.15,8.9,0.4488888888888889,0.31777777777777777,-0.64,-0.3125,-0.5,0.375
1589551274.6156573,0.26,-4.14,8.79,0.4488888888888889,0.31777777777777777,-0.64,0.0,-0.125,0.375
1589551274.6259475,0.25,-4.15,8.66,0.4488888888888889,0.31777777777777777,-0.64,-0.0625,-0.1875,0.25
1589551274.6358194,0.24,-4.19,8.69,0.4488888888888889,0.31777777777777777,-0.64,0.0625,-0.0625,0.3125
1589551274.6481636,0.26,-4.21,8.76,0.4488888888888889,0.31777777777777777,-0.64,0.0625,-0.25,0.25
1589551274.6557188,0.29,-4.24,8.79,0.43666666666666665,0.31777777777777777,-0.6611111111111111,0.25,0.0625,0.25
1589551274.667438,0.27,-4.2,8.71,0.43666666666666665,0.31777777777777777,-0.6611111111111111,0.25,0.375,0.1875
1589551274.6770422,0.27,-4.2,8.69,0.43666666666666665,0.31777777777777777,-0.6611111111111111,0.1875,0.1875,0.1875
1589551274.6882036,0.22,-4.2,8.74,0.43666666666666665,0.31777777777777777,-0.6611111111111111,0.125,0.25,0.0625
1589551274.7025378,0.22,-4.19,8.77,0.43666666666666665,0.31777777777777777,-0.6611111111111111,-0.0625,-0.0625,0.3125
1589551274.7084148,0.24,-4.24,8.76,0.4488888888888889,0.3244444444444444,-0.6322222222222222,0.25,0.25,0.3125
1589551274.72084,0.16,-4.22,8.72,0.4488888888888889,0.3244444444444444,-0.6322222222222222,0.0,0.0,0.25
1589551274.7268622,0.31,-4.23,8.79,0.4488888888888889,0.3244444444444444,-0.6322222222222222,-0.3125,-0.5,0.25
1589551274.7397392,0.24,-4.2,8.65,0.4488888888888889,0.3244444444444444,-0.6322222222222222,-0.0625,0.0625,0.1875
1589551274.7489645,0.29,-4.22,8.79,0.4488888888888889,0.3244444444444444,-0.6322222222222222,-0.0625,-0.4375,0.25
1589551274.7605286,0.24,-4.24,8.76,0.43,0.33,-0.6466666666666666,0.0,0.0,0.125
1589551274.7664444,0.23,-4.23,8.73,0.43,0.33,-0.6466666666666666,-0.0625,0.0625,0.125
1589551274.7801988,0.25,-4.19,8.74,0.43,0.33,-0.6466666666666666,-0.375,-0.625,-0.125
1589551274.786284,0.24,-4.2,8.79,0.43,0.33,-0.6466666666666666,-0.4375,-0.625,-0.125
1589551274.798785,0.23,-4.17,8.79,0.43,0.33,-0.6466666666666666,-0.25,-0.0625,-0.5625
1589551274.8064232,0.2,-4.18,8.82,0.44222222222222224,0.3244444444444444,-0.6611111111111111,-0.375,-0.25,-0.6875
1589551274.8162944,0.13,-3.89,8.9,0.44222222222222224,0.3244444444444444,-0.6611111111111111,-0.75,-1.0,-0.25
1589551274.8254044,0.02,-3.73,8.72,0.44222222222222224,0.3244444444444444,-0.6611111111111111,-1.125,-0.6875,1.0
1589551274.837041,0.1,-3.61,8.78,0.44222222222222224,0.3244444444444444,-0.6611111111111111,-1.8125,-1.0625,2.75
1589551274.850956,-0.29,-3.07,8.73,0.44222222222222224,0.3244444444444444,-0.6611111111111111,-2.0,-1.0625,4.4375
1589551274.857188,0.01,-2.76,9.22,0.43,0.3244444444444444,-0.6533333333333333,-3.3125,-2.25,6.5
1589551274.8655179,-0.01,-2.69,8.57,0.43,0.3244444444444444,-0.6533333333333333,-1.0,-0.1875,13.75
1589551274.8776915,-0.03,-2.83,8.73,0.43,0.3244444444444444,-0.6533333333333333,1.0,-0.8125,23.875
1589551274.8861284,0.01,-2.93,8.72,0.43,0.3244444444444444,-0.6533333333333333,0.125,-1.375,31.625
1589551274.8990426,0.01,-2.99,8.88,0.43,0.3244444444444444,-0.6533333333333333,0.125,-2.0625,37.8125
1589551274.9116476,0.0,-3.03,8.83,0.44222222222222224,0.33,-0.6677777777777778,0.6875,-1.9375,43.3125
1589551274.919167,-0.07,-3.09,8.88,0.44222222222222224,0.33,-0.6677777777777778,0.5,-2.0,48.0
1589551274.93117,-0.09,-3.17,8.78,0.44222222222222224,0.33,-0.6677777777777778,0.4375,-2.3125,52.4375
1589551274.9372926,-0.08,-3.22,8.87,0.44222222222222224,0.33,-0.6677777777777778,0.5,-2.875,57.0625
1589551274.9517114,-0.14,-3.23,8.85,0.44222222222222224,0.33,-0.6677777777777778,0.4375,-2.9375,61.25
1589551274.957167,-0.24,-3.19,8.84,0.44222222222222224,0.31222222222222223,-0.6611111111111111,0.4375,-3.1875,66.0625
1589551274.967115,-0.27,-3.21,8.81,0.44222222222222224,0.31222222222222223,-0.6611111111111111,0.375,-3.1875,71.3125
1589551274.9771438,-0.32,-3.19,8.7,0.44222222222222224,0.31222222222222223,-0.6611111111111111,0.375,-3.625,76.8125
1589551274.988065,-0.27,-3.15,8.78,0.44222222222222224,0.31222222222222223,-0.6611111111111111,0.875,-3.75,82.8125
1589551275.0029464,-0.5,-3.11,8.87,0.44222222222222224,0.31222222222222223,-0.6611111111111111,1.25,-4.0625,88.5
1589551275.0088212,-0.53,-3.0,8.91,0.4833333333333333,0.2977777777777777,-0.6611111111111111,0.875,-4.5,95.0
1589551275.0172913,-0.46,-3.0,8.87,0.4833333333333333,0.2977777777777777,-0.6611111111111111,0.9375,-4.5,101.375
1589551275.0293145,-0.54,-3.01,8.87,0.4833333333333333,0.2977777777777777,-0.6611111111111111,0.875,-5.1875,106.4375
1589551275.037745,-0.52,-3.07,8.79,0.4833333333333333,0.2977777777777777,-0.6611111111111111,1.0625,-5.1875,111.25
1589551275.050153,-0.38,-3.04,8.9,0.4833333333333333,0.2977777777777777,-0.6611111111111111,0.875,-5.375,115.0625
1589551275.0623472,-0.43,-3.07,8.89,0.4755555555555556,0.2466666666666667,-0.6677777777777778,0.6875,-5.6875,117.3125
1589551275.0681634,-0.52,-3.12,8.91,0.4755555555555556,0.2466666666666667,-0.6677777777777778,0.375,-5.75,118.5625
1589551275.0824597,-0.51,-3.08,8.66,0.4755555555555556,0.2466666666666667,-0.6677777777777778,0.625,-5.9375,120.125
1589551275.089017,-0.61,-3.13,8.76,0.4755555555555556,0.2466666666666667,-0.6677777777777778,0.875,-5.8125,123.1875
1589551275.1031435,-0.64,-3.14,8.94,0.4755555555555556,0.2466666666666667,-0.6677777777777778,1.25,-6.0625,126.5
1589551275.1094668,-0.68,-3.02,8.75,0.5077777777777778,0.21333333333333332,-0.6611111111111111,0.75,-6.625,129.0625
1589551275.118415,-0.66,-3.03,9.04,0.5077777777777778,0.21333333333333332,-0.6611111111111111,0.625,-6.8125,131.8125
1589551275.1274462,-0.66,-3.02,8.81,0.5077777777777778,0.21333333333333332,-0.6611111111111111,0.75,-6.6875,134.25
1589551275.1401336,-0.64,-2.87,8.62,0.5077777777777778,0.21333333333333332,-0.6611111111111111,1.6875,-5.9375,136.0625
1589551275.1521206,-0.64,-2.89,9.13,0.5077777777777778,0.21333333333333332,-0.6611111111111111,1.3125,-6.625,136.75
1589551275.1592937,-0.71,-2.94,8.94,0.49,0.17333333333333334,-0.6888888888888889,1.875,-6.6875,137.3125
1589551275.1670554,-0.68,-2.91,8.85,0.49,0.17333333333333334,-0.6888888888888889,1.75,-5.4375,137.0625
1589551275.1780882,-0.81,-2.94,8.65,0.49,0.17333333333333334,-0.6888888888888889,1.0625,-6.0,135.625
1589551275.1884773,-0.95,-3.07,8.88,0.49,0.17333333333333334,-0.6888888888888889,1.125,-6.625,134.125
1589551275.2010605,-0.92,-2.94,8.81,0.49,0.17333333333333334,-0.6888888888888889,0.9375,-6.4375,132.375
1589551275.2083983,-0.89,-2.74,8.8,0.5277777777777778,0.1111111111111111,-0.6888888888888889,1.4375,-6.0625,130.125
1589551275.2171984,-0.88,-2.64,9.02,0.5277777777777778,0.1111111111111111,-0.6888888888888889,1.375,-6.0625,127.4375
1589551275.2227106,-0.88,-2.64,9.02,0.5277777777777778,0.1111111111111111,-0.6888888888888889,1.375,-6.0625,127.4375
1589551275.2335489,-0.9,-2.58,8.65,0.5277777777777778,0.1111111111111111,-0.6888888888888889,1.4375,-5.8125,124.25
1589551275.2395258,-0.96,-2.64,8.9,0.5277777777777778,0.1111111111111111,-0.6888888888888889,1.25,-6.1875,120.25
1589551275.255224,-0.91,-2.41,8.65,0.5277777777777778,0.1111111111111111,-0.6888888888888889,0.8125,-5.375,116.0625
1589551275.2613256,-1.02,-2.5,9.08,0.5277777777777778,0.04,-0.7177777777777777,0.25,-5.0625,110.8125
1589551275.2726176,-0.99,-2.46,8.99,0.5277777777777778,0.04,-0.7177777777777777,0.3125,-5.625,105.875
1589551275.2785757,-1.07,-2.37,8.58,0.5277777777777778,0.04,-0.7177777777777777,2.0625,-3.8125,100.875
1589551275.2894635,-1.07,-2.36,8.65,0.5277777777777778,0.04,-0.7177777777777777,2.0625,-3.0,95.75
1589551275.3019738,-1.18,-2.48,9.26,0.5277777777777778,0.04,-0.7177777777777777,0.25,-5.1875,90.125
1589551275.3120892,-1.29,-2.47,8.68,0.5277777777777778,0.01888888888888889,-0.7322222222222222,0.6875,-3.4375,86.0
1589551275.31741,-1.28,-2.42,9.09,0.5277777777777778,0.01888888888888889,-0.7322222222222222,0.75,-3.6875,81.875
1589551275.3280993,-1.28,-2.41,8.99,0.5277777777777778,0.01888888888888889,-0.7322222222222222,0.375,-3.6875,77.5
1589551275.3392065,-1.11,-2.27,8.57,0.5277777777777778,0.01888888888888889,-0.7322222222222222,2.375,-1.4375,73.1875
1589551275.3511405,-1.38,-2.44,9.05,0.5277777777777778,0.01888888888888889,-0.7322222222222222,1.375,-2.3125,67.3125
1589551275.3602195,-1.46,-2.4,8.86,0.5255555555555556,-0.012222222222222223,-0.7377777777777778,0.6875,-2.375,61.3125
1589551275.369041,-1.44,-2.35,8.83,0.5255555555555556,-0.012222222222222223,-0.7377777777777778,0.875,-1.8125,56.0625
1589551275.379147,-1.61,-2.42,8.92,0.5255555555555556,-0.012222222222222223,-0.7377777777777778,0.125,-2.625,51.25
1589551275.3924696,-1.62,-2.42,8.78,0.5255555555555556,-0.012222222222222223,-0.7377777777777778,-0.4375,-2.0625,47.4375
1589551275.4049144,-1.7,-2.5,8.92,0.5255555555555556,-0.012222222222222223,-0.7377777777777778,0.5625,-0.25,44.25
1589551275.4113176,-1.75,-2.48,8.87,0.5044444444444445,-0.06555555555555556,-0.7655555555555555,0.5625,-0.5625,39.1875
1589551275.4190054,-1.56,-2.32,8.45,0.5044444444444445,-0.06555555555555556,-0.7655555555555555,-0.4375,-1.1875,33.625
1589551275.429736,-2.06,-2.63,9.16,0.5044444444444445,-0.06555555555555556,-0.7655555555555555,-0.9375,-3.9375,28.3125
1589551275.443331,-1.95,-2.44,8.4,0.5044444444444445,-0.06555555555555556,-0.7655555555555555,0.6875,0.75,24.6875
1589551275.4507062,-1.74,-2.33,8.79,0.5044444444444445,-0.06555555555555556,-0.7655555555555555,0.25,0.3125,20.75
1589551275.4624164,-2.09,-2.52,9.19,0.5044444444444445,-0.06555555555555556,-0.7944444444444444,-1.125,-1.6875,16.1875
1589551275.4684474,-1.88,-2.28,8.65,0.5044444444444445,-0.06555555555555556,-0.7944444444444444,0.125,1.3125,13.3125
1589551275.4809046,-1.96,-2.37,8.48,0.5044444444444445,-0.06555555555555556,-0.7944444444444444,0.625,2.625,10.5625
1589551275.4891686,-1.84,-2.36,9.05,0.5044444444444445,-0.06555555555555556,-0.7944444444444444,-1.375,-1.4375,6.4375
1589551275.502664,-1.88,-2.32,8.36,0.5044444444444445,-0.06555555555555556,-0.7944444444444444,-1.1875,-0.375,3.125
1589551275.5081458,-2.05,-2.45,9.21,0.4777777777777778,-0.11666666666666667,-0.8,-0.3125,2.4375,0.375
1589551275.519463,-2.05,-2.45,9.21,0.4777777777777778,-0.11666666666666667,-0.8,-0.3125,2.4375,0.375
1589551275.5297348,-1.9,-2.46,9.05,0.4777777777777778,-0.11666666666666667,-0.8,-0.6875,2.0,-6.25
1589551275.5407064,-2.08,-2.46,9.01,0.4777777777777778,-0.11666666666666667,-0.8,-1.75,0.1875,-11.25
1589551275.5557802,-1.86,-2.31,8.66,0.4777777777777778,-0.11666666666666667,-0.8,-1.625,2.25,-15.1875
1589551275.5619528,-1.87,-2.39,9.22,0.4722222222222222,-0.13777777777777778,-0.7644444444444445,-1.75,1.125,-17.75
1589551275.569823,-1.91,-2.46,8.69,0.4722222222222222,-0.13777777777777778,-0.7644444444444445,0.5,3.3125,-20.5625
1589551275.58078,-1.7,-2.36,8.79,0.4722222222222222,-0.13777777777777778,-0.7644444444444445,-1.375,3.0,-25.625
1589551275.5947356,-1.83,-2.43,8.94,0.4722222222222222,-0.13777777777777778,-0.7644444444444445,-2.375,0.9375,-30.75
1589551275.6014154,-1.65,-2.37,8.68,0.4722222222222222,-0.13777777777777778,-0.7644444444444445,-1.75,1.375,-34.6875
1589551275.6141207,-1.5,-2.31,8.98,0.4722222222222222,-0.17,-0.7922222222222223,-1.375,2.5625,-38.3125
1589551275.6202095,-1.58,-2.39,9.03,0.4722222222222222,-0.17,-0.7922222222222223,-1.1875,1.3125,-42.4375
1589551275.633318,-1.58,-2.42,8.87,0.4722222222222222,-0.17,-0.7922222222222223,-1.3125,2.125,-46.625
1589551275.6411116,-1.57,-2.45,8.97,0.4722222222222222,-0.17,-0.7922222222222223,-0.5,3.4375,-49.75
1589551275.6528401,-1.32,-2.22,8.57,0.4722222222222222,-0.17,-0.7922222222222223,-0.6875,3.8125,-52.8125
1589551275.6589415,-1.48,-2.34,8.76,0.3888888888888889,-0.2111111111111111,-0.73,-1.4375,4.0,-55.375
1589551275.6651347,-1.48,-2.34,8.76,0.3888888888888889,-0.2111111111111111,-0.73,-1.4375,4.0,-55.375
1589551275.6805494,-1.56,-2.46,8.62,0.3888888888888889,-0.2111111111111111,-0.73,1.0625,6.6875,-58.125
1589551275.6906722,-1.89,-2.83,9.89,0.3888888888888889,-0.2111111111111111,-0.73,-2.75,-0.1875,-60.375
1589551275.706067,-1.77,-2.59,8.45,0.3888888888888889,-0.2111111111111111,-0.73,-1.5,1.875,-60.6875
1589551275.7135332,-1.79,-2.71,9.38,0.43,-0.13333333333333333,-0.6733333333333333,-2.25,-0.4375,-59.875
1589551275.7208142,-1.44,-2.47,8.47,0.43,-0.13333333333333333,-0.6733333333333333,-2.25,-0.4375,-59.875
1589551275.7315154,-1.44,-2.47,9.15,0.43,-0.13333333333333333,-0.6733333333333333,-0.3125,1.375,-59.3125
1589551275.7447743,-1.57,-2.64,9.32,0.43,-0.13333333333333333,-0.6733333333333333,-0.3125,1.375,-59.3125
1589551275.7522388,-1.26,-2.53,9.13,0.43,-0.13333333333333333,-0.6733333333333333,-1.6875,-0.4375,-58.6875
1589551275.7654998,-1.48,-2.74,9.64,0.4711111111111111,-0.06888888888888889,-0.6444444444444445,-1.125,1.375,-59.5625
1589551275.7713122,-1.45,-2.57,8.51,0.4711111111111111,-0.06888888888888889,-0.6444444444444445,0.375,4.3125,-58.5
1589551275.7842286,-1.71,-2.94,9.01,0.4711111111111111,-0.06888888888888889,-0.6444444444444445,-1.375,0.5,-58.125
1589551275.7905512,-1.61,-2.81,8.7,0.4711111111111111,-0.06888888888888889,-0.6444444444444445,-1.3125,0.125,-56.5
1589551275.8053026,-1.57,-2.79,9.26,0.4711111111111111,-0.06888888888888889,-0.6444444444444445,-0.6875,1.125,-54.0
1589551275.8107135,-1.48,-2.82,8.77,0.4977777777777778,-0.008888888888888889,-0.6377777777777778,0.125,2.6875,-51.875
1589551275.8242311,-1.35,-2.7,8.47,0.4977777777777778,-0.008888888888888889,-0.6377777777777778,1.125,2.4375,-51.3125
1589551275.831209,-1.37,-2.83,8.82,0.4977777777777778,-0.008888888888888889,-0.6377777777777778,-0.5625,-0.8125,-51.5625
1589551275.8435092,-1.44,-2.93,9.14,0.4977777777777778,-0.008888888888888889,-0.6377777777777778,-0.75,0.25,-50.875
1589551275.8525527,-1.57,-2.96,8.23,0.4977777777777778,-0.008888888888888889,-0.6377777777777778,2.6875,5.4375,-47.875
1589551275.8641934,-1.63,-3.09,8.68,0.5166666666666667,0.03666666666666667,-0.6444444444444445,-0.6875,0.5625,-47.0625
1589551275.8718276,-1.45,-2.99,9.44,0.5166666666666667,0.03666666666666667,-0.6444444444444445,-2.3125,-2.125,-46.0
1589551275.8816097,-1.57,-2.99,9.14,0.5166666666666667,0.03666666666666667,-0.6444444444444445,1.75,3.375,-42.625
1589551275.8925068,-1.39,-2.76,9.02,0.5166666666666667,0.03666666666666667,-0.6444444444444445,0.0,1.375,-39.6875
1589551275.90295,-1.29,-2.68,8.82,0.5166666666666667,0.03666666666666667,-0.6444444444444445,-1.0625,0.0,-36.5625
1589551275.9112382,-1.32,-2.75,8.67,0.5511111111111111,0.06888888888888889,-0.6588888888888889,-1.5,-1.8125,-34.1875
1589551275.9229655,-1.25,-2.71,9.42,0.5511111111111111,0.06888888888888889,-0.6588888888888889,1.0625,0.8125,-30.8125
1589551275.9316175,-1.39,-2.81,8.19,0.5511111111111111,0.06888888888888889,-0.6588888888888889,1.6875,3.3125,-26.4375
1589551275.9437027,-1.35,-2.82,8.9,0.5511111111111111,0.06888888888888889,-0.6588888888888889,-0.9375,-1.75,-23.6875
1589551275.953578,-1.7,-3.22,9.69,0.5511111111111111,0.06888888888888889,-0.6588888888888889,-0.3125,1.0625,-18.3125
1589551275.9605088,-0.36,-3.13,8.43,0.5311111111111111,0.07444444444444444,-0.6522222222222223,2.125,1.75,-9.625
1589551275.966861,-0.36,-3.13,8.43,0.5311111111111111,0.07444444444444444,-0.6522222222222223,2.125,1.75,-9.625
1589551275.9772162,-1.34,-3.54,9.36,0.5311111111111111,0.07444444444444444,-0.6522222222222223,0.0,-2.5,-12.75
1589551275.9829452,-1.46,-3.31,8.9,0.5311111111111111,0.07444444444444444,-0.6522222222222223,-1.6875,-0.125,-10.875
1589551275.9942644,-0.51,-3.01,8.5,0.5311111111111111,0.07444444444444444,-0.6522222222222223,3.125,2.1875,-5.4375
1589551276.0032804,-1.42,-3.05,9.1,0.5311111111111111,0.07444444444444444,-0.6522222222222223,-1.3125,-0.9375,-17.0
1589551276.0112548,-0.97,-2.73,8.77,0.5955555555555555,0.04,-0.6733333333333333,-2.0625,-0.5625,-20.125
1589551276.0185318,-0.97,-2.73,8.77,0.5955555555555555,0.04,-0.6733333333333333,-2.0625,-0.5625,-20.125
1589551276.024791,-0.62,-2.66,9.06,0.5955555555555555,0.04,-0.6733333333333333,0.0,0.375,-24.8125
1589551276.0357952,-1.22,-2.91,8.42,0.5955555555555555,0.04,-0.6733333333333333,1.0,2.4375,-31.5625
1589551276.0418231,-1.23,-3.09,9.01,0.5955555555555555,0.04,-0.6733333333333333,-1.0625,0.25,-34.5
1589551276.0546064,-1.04,-2.81,9.27,0.5955555555555555,0.04,-0.6733333333333333,-1.0625,1.625,-38.6875
1589551276.0624278,-1.08,-2.82,8.56,0.7944444444444444,-0.048888888888888885,-0.68,1.0625,3.625,-41.6875
1589551276.0738626,-1.34,-3.05,9.65,0.7944444444444444,-0.048888888888888885,-0.68,-2.3125,-1.3125,-44.3125
1589551276.082517,-1.32,-2.74,8.39,0.7944444444444444,-0.048888888888888885,-0.68,-1.3125,1.9375,-43.4375
1589551276.094987,-1.48,-3.04,8.75,0.7944444444444444,-0.048888888888888885,-0.68,-1.625,-0.1875,-40.5625
1589551276.1088293,-1.49,-2.94,8.35,0.7944444444444444,-0.048888888888888885,-0.68,-1.25,1.0625,-33.9375
1589551276.1148932,-1.48,-3.16,9.69,1.56,-0.3622222222222222,-0.7444444444444445,-0.375,-0.625,-24.6875
1589551276.1277936,-1.71,-3.24,8.25,1.56,-0.3622222222222222,-0.7444444444444445,0.5,1.9375,-12.375
1589551276.1338186,-1.48,-3.24,8.74,1.56,-0.3622222222222222,-0.7444444444444445,-3.9375,-3.8125,0.5
1589551276.1476748,-1.16,-3.12,8.04,1.56,-0.3622222222222222,-0.7444444444444445,2.625,1.375,14.0625
1589551276.154421,-1.15,-3.18,9.17,1.56,-0.3622222222222222,-0.7444444444444445,1.5,-2.0,21.6875
1589551276.1620948,-1.19,-3.46,9.25,0.8444444444444444,-0.06666666666666668,-0.7566666666666667,-1.5,-2.0625,26.9375
1589551276.16856,-1.19,-3.46,9.25,0.8444444444444444,-0.06666666666666668,-0.7566666666666667,-1.5,-2.0625,26.9375
1589551276.174493,-0.87,-3.17,8.58,0.8444444444444444,-0.06666666666666668,-0.7566666666666667,1.625,0.0625,29.5
1589551276.1851413,-0.94,-3.31,9.08,0.8444444444444444,-0.06666666666666668,-0.7566666666666667,1.6875,-2.0,27.25
1589551276.1935346,-1.0,-3.3,8.19,0.8444444444444444,-0.06666666666666668,-0.7566666666666667,0.4375,-1.0,24.375
1589551276.2042727,-1.11,-3.56,9.47,0.8444444444444444,-0.06666666666666668,-0.7566666666666667,-1.3125,-3.25,20.0
1589551276.2134335,-0.94,-3.37,9.12,0.6,0.09777777777777777,-0.73,1.25,-0.25,17.375
1589551276.223308,-0.64,-3.06,8.7,0.6,0.09777777777777777,-0.73,1.5625,0.6875,14.1875
1589551276.2341132,-0.83,-3.34,8.47,0.6,0.09777777777777777,-0.73,-1.25,-1.375,8.75
1589551276.2464845,-1.09,-3.84,9.46,0.6,0.09777777777777777,-0.73,-0.375,-1.0,4.5625
1589551276.2553694,-0.67,-3.54,8.74,0.6,0.09777777777777777,-0.73,3.125,2.9375,1.125
1589551276.2657845,-0.5,-3.41,8.31,0.5666666666666667,0.12555555555555556,-0.7511111111111111,0.4375,0.0,-5.25
1589551276.276111,-0.72,-3.67,9.2,0.5666666666666667,0.12555555555555556,-0.7511111111111111,-3.375,-4.1875,-12.875
1589551276.285502,-1.0,-3.79,8.65,0.5666666666666667,0.12555555555555556,-0.7511111111111111,-0.625,0.25,-17.25
1589551276.2985632,-0.72,-3.48,8.44,0.5666666666666667,0.12555555555555556,-0.7511111111111111,2.0625,2.375,-20.5
1589551276.3052692,-0.7,-3.6,9.02,0.5666666666666667,0.12555555555555556,-0.7511111111111111,-0.6875,-0.375,-26.25
1589551276.3174195,-0.55,-3.37,8.87,0.5788888888888889,0.12,-0.7711111111111111,-1.125,0.25,-33.0625
1589551276.3233974,-0.56,-3.45,8.9,0.5788888888888889,0.12,-0.7711111111111111,0.4375,2.0625,-40.625
1589551276.3336935,-0.39,-3.33,8.63,0.5788888888888889,0.12,-0.7711111111111111,0.1875,3.0625,-49.0625
1589551276.34372,-0.61,-3.68,8.86,0.5788888888888889,0.12,-0.7711111111111111,-1.125,2.25,-58.1875
1589551276.3554432,-0.52,-3.53,8.6,0.5788888888888889,0.12,-0.7711111111111111,-0.3125,2.25,-67.125
1589551276.3630702,-23.47,-25.73,19.73,0.5488888888888889,0.12,-0.7444444444444445,0.8125,3.1875,-72.1875
1589551276.3733106,-9.65,-1.48,-11.54,0.5488888888888889,0.12,-0.7444444444444445,3.375,80.75,-80.875
1589551276.3790615,-9.65,-1.48,-11.54,0.5488888888888889,0.12,-0.7444444444444445,3.375,80.75,-80.875
1589551276.3858356,2.01,0.36,4.1,0.5488888888888889,0.12,-0.7444444444444445,-100.625,-75.25,-410.375
1589551276.3974154,2.5,-2.91,23.52,0.5488888888888889,0.12,-0.7444444444444445,-91.9375,-5.75,-271.9375
1589551276.4059875,-1.42,-0.85,-0.05,0.5488888888888889,0.12,-0.7444444444444445,13.875,34.25,-231.375
1589551276.4173849,-0.34,-2.28,13.02,0.5222222222222223,0.18666666666666668,-0.7444444444444445,90.3125,16.75,-210.3125
1589551276.4240005,-0.09,0.92,12.74,0.5222222222222223,0.18666666666666668,-0.7444444444444445,105.1875,46.0,-167.6875
1589551276.4368165,1.35,-1.15,13.07,0.5222222222222223,0.18666666666666668,-0.7444444444444445,-32.3125,-2.375,-106.3125
1589551276.4445643,1.45,-1.25,10.43,0.5222222222222223,0.18666666666666668,-0.7444444444444445,-24.3125,-22.3125,-78.625
1589551276.4567218,0.45,-1.16,5.48,0.5222222222222223,0.18666666666666668,-0.7444444444444445,22.625,24.75,-68.625
1589551276.4635267,0.31,-2.36,10.64,0.4755555555555556,0.2911111111111111,-0.7288888888888889,-3.8125,-7.5625,-55.625
1589551276.489335,-0.2,-2.69,9.58,0.4755555555555556,0.2911111111111111,-0.7288888888888889,4.1875,3.5,-33.875
1589551276.4956331,-0.24,-2.76,8.4,0.4755555555555556,0.2911111111111111,-0.7288888888888889,1.1875,3.375,-19.125
1589551276.5059404,-0.15,-2.81,9.95,0.4755555555555556,0.2911111111111111,-0.7288888888888889,-4.5,-2.5,-6.375
1589551276.5147116,-0.28,-2.38,8.34,0.4511111111111111,0.3,-0.7233333333333334,1.375,0.1875,3.5
1589551276.5248241,-0.26,-2.66,8.94,0.4511111111111111,0.3,-0.7233333333333334,3.625,1.125,12.0
1589551276.5342507,-0.14,-2.55,8.73,0.4511111111111111,0.3,-0.7233333333333334,-0.375,-1.5625,19.375
1589551276.546409,-0.28,-2.73,9.07,0.4511111111111111,0.3,-0.7233333333333334,-1.375,-1.5625,25.3125
1589551276.556442,0.18,-3.28,8.45,0.4511111111111111,0.3,-0.7233333333333334,1.125,-0.25,32.9375
1589551276.5652337,4.42,-28.74,5.64,0.4666666666666667,0.3211111111111111,-0.7233333333333334,-3.6875,-15.0625,4.25
1589551276.5791216,-0.98,-0.56,7.13,0.4666666666666667,0.3211111111111111,-0.7233333333333334,-14.9375,-6.4375,-112.875
1589551276.5852294,-0.98,-2.39,9.22,0.4666666666666667,0.3211111111111111,-0.7233333333333334,16.3125,33.9375,-106.8125
1589551276.6006827,-1.54,-2.71,7.51,0.4666666666666667,0.3211111111111111,-0.7233333333333334,8.875,9.75,-72.75
1589551276.606562,-0.14,-4.18,9.44,0.4666666666666667,0.3211111111111111,-0.7233333333333334,-13.375,-7.25,-33.6875
1589551276.613882,-1.43,-1.47,8.67,0.4533333333333333,0.33555555555555555,-0.7355555555555555,-5.3125,-4.875,-39.875
1589551276.6257472,-0.14,-6.21,8.68,0.4533333333333333,0.33555555555555555,-0.7355555555555555,6.875,11.8125,-42.3125
1589551276.6368346,-0.86,-4.27,8.49,0.4533333333333333,0.33555555555555555,-0.7355555555555555,3.875,2.375,-25.5625
1589551276.6446073,0.18,-4.52,9.03,0.4533333333333333,0.33555555555555555,-0.7355555555555555,-5.0625,-2.375,-11.375
1589551276.650607,0.18,-4.52,9.03,0.4533333333333333,0.33555555555555555,-0.7355555555555555,-5.0625,-2.375,-11.375
1589551276.6608908,-0.13,-4.17,8.57,0.4533333333333333,0.33555555555555555,-0.7355555555555555,0.4375,0.5625,-3.375
1589551276.666847,-0.07,-4.09,8.64,0.46,0.3644444444444445,-0.7155555555555555,1.8125,0.9375,-0.375
1589551276.67788,0.07,-4.23,8.9,0.46,0.3644444444444445,-0.7155555555555555,-1.25,-1.25,-0.3125
1589551276.685657,-0.05,-4.12,8.67,0.46,0.3644444444444445,-0.7155555555555555,0.625,0.0,-1.0625
1589551276.6958525,-0.05,-4.13,8.71,0.46,0.3644444444444445,-0.7155555555555555,0.875,0.6875,-1.125
1589551276.7085214,0.06,-4.2,8.76,0.46,0.3644444444444445,-0.7155555555555555,-1.1875,-0.125,-0.75
1589551276.7183475,0.0,-4.19,8.71,0.4544444444444444,0.3566666666666667,-0.6944444444444444,-0.8125,-0.25,-1.0625
1589551276.7271874,0.0,-4.22,8.75,0.4544444444444444,0.3566666666666667,-0.6944444444444444,0.6875,0.5625,-1.5625
1589551276.7377422,-0.02,-4.22,8.74,0.4544444444444444,0.3566666666666667,-0.6944444444444444,0.8125,0.0,-1.4375
1589551276.747096,-0.06,-4.19,8.74,0.4544444444444444,0.3566666666666667,-0.6944444444444444,0.625,0.3125,-0.9375
1589551276.7584453,0.01,-4.21,8.74,0.4544444444444444,0.3566666666666667,-0.6944444444444444,-0.1875,-0.0625,-0.0625
1589551276.7662337,0.0,-4.23,8.74,0.4688888888888889,0.3566666666666667,-0.73,-0.375,-0.0625,0.1875
1589551276.7778356,0.0,-4.22,8.78,0.4688888888888889,0.3566666666666667,-0.73,0.125,-0.125,0.1875
1589551276.7867427,0.01,-4.17,8.75,0.4688888888888889,0.3566666666666667,-0.73,0.625,0.1875,0.3125
1589551276.7971678,-0.02,-4.13,8.74,0.4688888888888889,0.3566666666666667,-0.73,0.625,0.125,0.25
1589551276.809196,0.0,-4.2,8.75,0.4688888888888889,0.3566666666666667,-0.73,-0.3125,-0.125,0.375
1589551276.8174536,0.03,-4.25,8.79,0.4477777777777778,0.3566666666666667,-0.7088888888888889,-0.875,-0.5,0.25
1589551276.8293552,0.03,-4.2,8.75,0.4477777777777778,0.3566666666666667,-0.7088888888888889,-0.25,-0.125,0.3125
1589551276.8365026,0.0,-4.2,8.67,0.4477777777777778,0.3566666666666667,-0.7088888888888889,0.25,-0.1875,0.3125
1589551276.8495307,0.02,-4.18,8.78,0.4477777777777778,0.3566666666666667,-0.7088888888888889,0.5,0.0,0.3125
1589551276.8590488,0.0,-4.19,8.81,0.4477777777777778,0.3566666666666667,-0.7088888888888889,0.25,0.125,0.1875
1589551276.867934,0.02,-4.2,8.8,0.4477777777777778,0.3566666666666667,-0.7233333333333334,-0.375,0.0,0.5
1589551276.876792,0.0,-4.21,8.77,0.4477777777777778,0.3566666666666667,-0.7233333333333334,-0.0625,0.0,0.25
1589551276.8874714,0.0,-4.19,8.69,0.4477777777777778,0.3566666666666667,-0.7233333333333334,0.5625,-0.0625,0.375
1589551276.8976064,0.0,-4.15,8.77,0.4477777777777778,0.3566666666666667,-0.7233333333333334,0.5625,-0.0625,0.375
1589551276.9097314,0.0,-4.19,8.77,0.4477777777777778,0.3566666666666667,-0.7233333333333334,0.375,0.25,0.25
1589551276.9173214,0.0,-4.19,8.77,0.4622222222222222,0.3644444444444445,-0.73,-0.375,-0.1875,0.3125
1589551276.926926,0.03,-4.23,8.8,0.4622222222222222,0.3644444444444445,-0.73,-0.5625,-0.375,0.25
1589551276.9379592,0.01,-4.19,8.67,0.4622222222222222,0.3644444444444445,-0.73,0.1875,-0.125,0.3125
1589551276.947428,0.04,-4.19,8.77,0.4622222222222222,0.3644444444444445,-0.73,0.375,-0.125,0.1875
1589551276.9645693,0.0,-4.15,8.77,0.4622222222222222,0.3644444444444445,-0.73,0.375,-0.125,0.375
1589551276.9707596,0.02,-4.23,8.78,0.4355555555555555,0.3566666666666667,-0.7233333333333334,0.0,0.0625,0.375
1589551276.9825075,0.01,-4.24,8.74,0.4355555555555555,0.3566666666666667,-0.7233333333333334,-0.375,-0.1875,0.25
1589551276.9892588,0.02,-4.22,8.69,0.4355555555555555,0.3566666666666667,-0.7233333333333334,0.0,0.0,0.1875
1589551277.0016088,0.01,-4.16,8.69,0.4355555555555555,0.3566666666666667,-0.7233333333333334,0.5625,0.0625,0.25
1589551277.0102613,0.01,-4.18,8.82,0.4355555555555555,0.3566666666666667,-0.7233333333333334,0.375,-0.1875,0.3125
1589551277.0214722,0.01,-4.17,8.77,0.4544444444444444,0.3711111111111111,-0.7155555555555555,-0.0625,0.125,0.1875
1589551277.0275776,0.01,-4.21,8.79,0.4544444444444444,0.3711111111111111,-0.7155555555555555,-0.375,0.0,0.3125
1589551277.0415547,0.01,-4.2,8.69,0.4544444444444444,0.3711111111111111,-0.7155555555555555,-0.125,-0.125,0.4375
1589551277.047372,0.0,-4.17,8.74,0.4544444444444444,0.3711111111111111,-0.7155555555555555,0.3125,0.0,0.375
1589551277.0600767,0.0,-4.18,8.78,0.4544444444444444,0.3711111111111111,-0.7155555555555555,0.5625,-0.125,0.3125
1589551277.068294,0.01,-4.17,8.81,0.4477777777777778,0.3644444444444445,-0.7088888888888889,0.0625,-0.1875,0.3125
1589551277.0775752,0.0,-4.22,8.72,0.4477777777777778,0.3644444444444445,-0.7088888888888889,-0.25,-0.3125,0.3125
1589551277.0881953,0.01,-4.22,8.65,0.4477777777777778,0.3644444444444445,-0.7088888888888889,-0.375,-0.3125,0.25
1589551277.0978224,0.0,-4.2,8.74,0.4477777777777778,0.3644444444444445,-0.7088888888888889,0.1875,-0.25,0.3125
1589551277.1108534,0.0,-4.17,8.78,0.4477777777777778,0.3644444444444445,-0.7088888888888889,0.375,-0.3125,0.25
1589551277.1213224,0.01,-4.18,8.85,0.4544444444444444,0.3566666666666667,-0.7155555555555555,-0.0625,-0.125,0.1875
1589551277.1334536,0.01,-4.18,8.75,0.4544444444444444,0.3566666666666667,-0.7155555555555555,-0.25,-0.1875,0.1875
1589551277.139725,0.03,-4.2,8.68,0.4544444444444444,0.3566666666666667,-0.7155555555555555,-0.5,-0.3125,0.3125
1589551277.1524663,0.02,-4.19,8.75,0.4544444444444444,0.3566666666666667,-0.7155555555555555,0.0,-0.1875,0.25
1589551277.1612465,0.02,-4.19,8.79,0.4544444444444444,0.3566666666666667,-0.7155555555555555,0.4375,-0.125,0.3125
1589551277.1694436,0.0,-4.16,8.81,0.4544444444444444,0.3644444444444445,-0.7155555555555555,0.1875,0.0,0.25
1589551277.1786027,0.02,-4.2,8.79,0.4544444444444444,0.3644444444444445,-0.7155555555555555,-0.0625,-0.1875,0.125
1589551277.192312,0.0,-4.21,8.64,0.4544444444444444,0.3644444444444445,-0.7155555555555555,-0.25,-0.1875,0.25
1589551277.1984189,0.0,-4.21,8.72,0.4544444444444444,0.3644444444444445,-0.7155555555555555,-0.1875,-0.1875,0.375
1589551277.2123742,0.01,-4.19,8.78,0.4544444444444444,0.3644444444444445,-0.7155555555555555,0.3125,0.0625,0.3125
1589551277.2189937,0.0,-4.17,8.83,0.4544444444444444,0.3644444444444445,-0.7088888888888889,0.3125,0.0,0.25
1589551277.2283757,0.01,-4.21,8.77,0.4544444444444444,0.3644444444444445,-0.7088888888888889,0.0625,-0.125,0.3125
1589551277.2391574,0.02,-4.22,8.63,0.4544444444444444,0.3644444444444445,-0.7088888888888889,-0.3125,-0.1875,0.25
1589551277.249019,0.0,-4.22,8.66,0.4544444444444444,0.3644444444444445,-0.7088888888888889,-0.375,-0.125,0.125
1589551277.262948,0.01,-4.18,8.8,0.4544444444444444,0.3644444444444445,-0.7088888888888889,0.125,-0.0625,0.125
1589551277.26939,0.01,-4.2,8.82,0.4477777777777778,0.37666666666666665,-0.7155555555555555,0.3125,0.0,0.125
1589551277.2790885,0.01,-4.18,8.81,0.4477777777777778,0.37666666666666665,-0.7155555555555555,0.125,-0.1875,0.1875
1589551277.2904215,0.0,-4.21,8.71,0.4477777777777778,0.37666666666666665,-0.7155555555555555,-0.1875,-0.125,0.1875
1589551277.2997036,-0.01,-4.2,8.72,0.4477777777777778,0.37666666666666665,-0.7155555555555555,-0.25,-0.1875,0.375
1589551277.3118546,0.02,-4.19,8.77,0.4477777777777778,0.37666666666666665,-0.7155555555555555,0.0,0.0,0.25
1589551277.320385,0.01,-4.15,8.82,0.4477777777777778,0.35,-0.7088888888888889,0.375,-0.1875,0.3125
1589551277.330348,0.02,-4.2,8.77,0.4477777777777778,0.35,-0.7088888888888889,0.1875,0.0,0.125
1589551277.3433385,0.01,-4.21,8.66,0.4477777777777778,0.35,-0.7088888888888889,-0.0625,-0.125,0.375
1589551277.3494024,0.02,-4.22,8.7,0.4477777777777778,0.35,-0.7088888888888889,-0.25,-0.1875,0.1875
1589551277.3639565,0.01,-4.2,8.77,0.4477777777777778,0.35,-0.7088888888888889,-0.1875,-0.0625,0.3125
1589551277.3699653,0.0,-4.18,8.8,0.4622222222222222,0.3644444444444445,-0.7088888888888889,0.375,-0.0625,0.375
1589551277.3803527,0.0,-4.18,8.79,0.4622222222222222,0.3644444444444445,-0.7088888888888889,-0.0625,-0.125,0.4375
1589551277.389886,0.03,-4.19,8.72,0.4622222222222222,0.3644444444444445,-0.7088888888888889,0.0,0.0,0.3125
1589551277.400131,0.01,-4.21,8.73,0.4622222222222222,0.3644444444444445,-0.7088888888888889,0.0,0.125,0.1875
1589551277.4125593,0.01,-4.19,8.77,0.4622222222222222,0.3644444444444445,-0.7088888888888889,0.1875,-0.3125,0.375
1589551277.4196894,0.0,-4.18,8.82,0.4355555555555555,0.35,-0.73,0.4375,-0.1875,0.3125
1589551277.4294937,0.01,-4.19,8.81,0.4355555555555555,0.35,-0.73,0.125,0.125,0.25
1589551277.4416974,0.0,-4.2,8.68,0.4355555555555555,0.35,-0.73,-0.125,0.0,0.375
1589551277.449935,0.04,-4.21,8.73,0.4355555555555555,0.35,-0.73,-0.3125,-0.0625,0.25
1589551277.462001,0.0,-4.2,8.75,0.4355555555555555,0.35,-0.73,0.0625,-0.125,0.3125
1589551277.4698102,0.02,-4.19,8.8,0.4477777777777778,0.3644444444444445,-0.7088888888888889,0.125,0.0625,0.25
1589551277.4796493,0.0,-4.18,8.77,0.4477777777777778,0.3644444444444445,-0.7088888888888889,0.125,-0.1875,0.25
1589551277.4943886,0.01,-4.16,8.69,0.4477777777777778,0.3644444444444445,-0.7088888888888889,-0.0625,-0.25,0.25
1589551277.5026689,0.01,-4.2,8.71,0.4477777777777778,0.3644444444444445,-0.7088888888888889,-0.1875,-0.0625,0.25
1589551277.513056,0.01,-4.19,8.79,0.4477777777777778,0.3644444444444445,-0.7088888888888889,0.0625,0.0625,0.3125
1589551277.520053,0.01,-4.19,8.79,0.44222222222222224,0.3711111111111111,-0.7233333333333334,0.1875,0.0,0.375
1589551277.5308132,0.01,-4.19,8.79,0.44222222222222224,0.3711111111111111,-0.7233333333333334,0.1875,0.0625,0.3125
1589551277.5400994,0.01,-4.18,8.73,0.44222222222222224,0.3711111111111111,-0.7233333333333334,0.0625,-0.125,0.3125
1589551277.5530365,0.0,-4.2,8.73,0.44222222222222224,0.3711111111111111,-0.7233333333333334,-0.1875,-0.0625,0.3125
1589551277.5647595,0.0,-4.2,8.75,0.44222222222222224,0.3711111111111111,-0.7233333333333334,-0.125,-0.25,0.25
1589551277.5725029,0.0,-4.23,8.79,0.44222222222222224,0.3644444444444445,-0.7088888888888889,0.25,-0.125,0.375
1589551277.580885,0.01,-4.19,8.75,0.44222222222222224,0.3644444444444445,-0.7088888888888889,0.1875,0.0,0.125
1589551277.591942,0.01,-4.17,8.68,0.44222222222222224,0.3644444444444445,-0.7088888888888889,-0.0625,-0.0625,0.125
1589551277.6005619,0.0,-4.19,8.73,0.44222222222222224,0.3644444444444445,-0.7088888888888889,-0.25,-0.125,0.125
1589551277.6134553,0.0,-4.19,8.73,0.44222222222222224,0.3644444444444445,-0.7088888888888889,-0.1875,-0.0625,0.125
1589551277.6215336,0.02,-4.19,8.79,0.4355555555555555,0.35,-0.7022222222222222,0.125,-0.125,0.0625
1589551277.6302948,0.01,-4.2,8.82,0.4355555555555555,0.35,-0.7022222222222222,0.125,0.0,0.0
1589551277.644837,0.0,-4.18,8.7,0.4355555555555555,0.35,-0.7022222222222222,-0.0625,0.0,-0.125
1589551277.65197,0.01,-4.18,8.75,0.4355555555555555,0.35,-0.7022222222222222,-0.125,0.0625,0.0625
1589551277.6678162,0.0,-4.21,8.79,0.4355555555555555,0.35,-0.7022222222222222,-0.25,-0.25,0.0625
