time,acc_x,acc_y,acc_z,mag_x,mag_y,mag_z,gyr_x,gyr_y,gyr_z
1589551307.6395836,-0.01,-4.13,8.82,0.48,0.3,-0.6611111111111111,-0.4375,-1.1875,0.0
1589551307.6486418,-0.02,-4.12,8.72,0.48,0.3,-0.6611111111111111,-0.5,-1.0,-0.0625
1589551307.657449,-0.02,-4.12,8.8,0.48,0.3,-0.6611111111111111,-0.75,-1.3125,-0.125
1589551307.670007,-0.02,-4.13,8.84,0.48,0.3,-0.6611111111111111,-0.9375,-1.5625,0.0
1589551307.6768732,-0.02,-4.13,8.79,0.48,0.3,-0.6466666666666666,-1.0625,-1.6875,0.0
1589551307.6884053,0.04,-4.16,8.92,0.48,0.3,-0.6466666666666666,-1.3125,-2.1875,-0.125
1589551307.6980445,0.01,-4.17,8.74,0.48,0.3,-0.6466666666666666,-1.0625,-1.8125,-0.125
1589551307.7096887,0.0,-4.16,8.77,0.48,0.3,-0.6466666666666666,-0.625,-1.1875,-0.125
1589551307.7234118,0.0,-4.15,8.83,0.48,0.3,-0.6466666666666666,-0.625,-0.875,-0.0625
1589551307.7300801,0.01,-4.14,8.85,0.4655555555555556,0.29444444444444445,-0.6466666666666666,-0.4375,-0.625,-0.0625
1589551307.7423804,0.01,-4.16,8.86,0.4655555555555556,0.29444444444444445,-0.6466666666666666,-0.3125,-0.3125,-0.0625
1589551307.7484086,0.01,-4.15,8.75,0.4655555555555556,0.29444444444444445,-0.6466666666666666,-0.1875,-0.25,-0.0625
1589551307.7621355,-0.02,-4.15,8.83,0.4655555555555556,0.29444444444444445,-0.6466666666666666,-0.25,-0.25,-0.125
1589551307.7706726,0.0,-4.13,8.86,0.4655555555555556,0.29444444444444445,-0.6466666666666666,-0.375,-0.1875,0.125
1589551307.7788827,0.02,-4.15,8.84,0.4444444444444444,0.30666666666666664,-0.6322222222222222,-0.5,-0.1875,-0.125
1589551307.7881699,-0.01,-4.16,8.77,0.4444444444444444,0.30666666666666664,-0.6322222222222222,-0.4375,-0.0625,0.0625
1589551307.7990232,0.0,-4.14,8.71,0.4444444444444444,0.30666666666666664,-0.6322222222222222,-0.3125,0.0625,-0.0625
1589551307.808475,-0.02,-4.15,8.72,0.4444444444444444,0.30666666666666664,-0.6322222222222222,-0.3125,-0.0625,0.125
1589551307.8209126,0.0,-4.14,8.82,0.4444444444444444,0.30666666666666664,-0.6322222222222222,-0.375,-0.125,0.0
1589551307.8289616,0.0,-4.16,8.83,0.4844444444444445,0.29444444444444445,-0.64,-0.4375,-0.375,0.125
1589551307.8403563,0.0,-4.16,8.85,0.4844444444444445,0.29444444444444445,-0.64,-0.4375,-0.3125,0.125
1589551307.8493724,0.01,-4.15,8.74,0.4844444444444445,0.29444444444444445,-0.64,-0.625,-0.1875,0.0625
1589551307.86059,-0.01,-4.17,8.79,0.4844444444444445,0.29444444444444445,-0.64,-0.3125,-0.125,0.0625
1589551307.872466,0.0,-4.18,8.82,0.4844444444444445,0.29444444444444445,-0.64,-0.125,-0.0625,0.1875
1589551307.8799105,0.02,-4.16,8.83,0.4577777777777778,0.29444444444444445,-0.6322222222222222,-0.25,0.0,0.0625
1589551307.8930695,-0.01,-4.15,8.73,0.4577777777777778,0.29444444444444445,-0.6322222222222222,-0.125,0.0,0.1875
1589551307.8994045,-0.03,-4.09,8.63,0.4577777777777778,0.29444444444444445,-0.6322222222222222,-0.25,-0.375,0.1875
1589551307.914595,-0.11,-4.16,8.67,0.4577777777777778,0.29444444444444445,-0.6322222222222222,-0.6875,-1.3125,0.25
1589551307.921798,0.2,-4.2,9.13,0.4577777777777778,0.29444444444444445,-0.6322222222222222,-1.125,-2.625,0.5
1589551307.9326231,0.07,-4.16,8.91,0.4655555555555556,0.30666666666666664,-0.6611111111111111,-0.5,-0.6875,0.4375
1589551307.9389262,0.02,-4.18,8.85,0.4655555555555556,0.30666666666666664,-0.6611111111111111,-0.4375,-0.375,0.25
1589551307.9530294,0.01,-4.16,8.71,0.4655555555555556,0.30666666666666664,-0.6611111111111111,-0.3125,-0.125,0.1875
1589551307.9595215,0.0,-4.17,8.75,0.4655555555555556,0.30666666666666664,-0.6611111111111111,-0.125,0.0625,0.1875
1589551307.9736485,-0.01,-4.15,8.79,0.4655555555555556,0.30666666666666664,-0.6611111111111111,-0.0625,-0.0625,0.0625
1589551307.9802456,0.04,-4.16,8.81,0.4444444444444444,0.30666666666666664,-0.6611111111111111,-0.125,-0.1875,0.0625
1589551307.99018,0.03,-4.17,8.8,0.4444444444444444,0.30666666666666664,-0.6611111111111111,-0.1875,-0.0625,0.0625
1589551307.9997642,0.0,-4.14,8.73,0.4444444444444444,0.30666666666666664,-0.6611111111111111,-0.1875,-0.125,0.1875
1589551308.0099473,-0.01,-4.16,8.77,0.4444444444444444,0.30666666666666664,-0.6611111111111111,-0.1875,-0.3125,0.125
1589551308.0224574,0.0,-4.16,8.84,0.4444444444444444,0.30666666666666664,-0.6611111111111111,-0.5625,-0.125,0.25
1589551308.0323727,0.05,-4.18,8.89,0.4844444444444445,0.2877777777777778,-0.64,-0.3125,-0.25,0.3125
1589551308.0445578,0.03,-4.16,8.8,0.4844444444444445,0.2877777777777778,-0.64,-0.375,-0.375,0.0625
1589551308.050776,0.04,-4.16,8.69,0.4844444444444445,0.2877777777777778,-0.64,-0.25,-0.0625,0.1875
1589551308.0646682,0.02,-4.15,8.72,0.4844444444444445,0.2877777777777778,-0.64,-0.3125,-0.0625,0.25
1589551308.0722606,0.0,-4.16,8.78,0.4844444444444445,0.2877777777777778,-0.64,-0.1875,0.0625,0.0625
1589551308.0806873,-0.02,-4.14,8.79,0.4388888888888889,0.3144444444444445,-0.6533333333333333,-0.25,0.125,0.25
1589551308.0897515,-0.01,-4.16,8.85,0.4388888888888889,0.3144444444444445,-0.6533333333333333,-0.375,-0.3125,0.5
1589551308.1034336,0.02,-4.18,8.75,0.4388888888888889,0.3144444444444445,-0.6533333333333333,-0.5625,-0.5625,0.5
1589551308.1103678,0.01,-4.15,8.78,0.4388888888888889,0.3144444444444445,-0.6533333333333333,-0.3125,-0.375,0.4375
1589551308.1230972,0.02,-4.16,8.81,0.4388888888888889,0.3144444444444445,-0.6533333333333333,-0.125,-0.1875,0.1875
1589551308.1300619,0.04,-4.18,8.86,0.4711111111111111,0.3144444444444445,-0.6466666666666666,0.1875,0.25,-0.0625
1589551308.1440973,0.01,-4.14,8.73,0.4711111111111111,0.3144444444444445,-0.6466666666666666,0.5625,0.75,-0.0625
1589551308.1502044,0.02,-4.17,8.7,0.4711111111111111,0.3144444444444445,-0.6466666666666666,0.6875,0.8125,0.0625
1589551308.1606507,0.0,-4.15,8.7,0.4711111111111111,0.3144444444444445,-0.6466666666666666,0.5,0.5625,0.0625
1589551308.1739304,0.0,-4.16,8.78,0.4711111111111111,0.3144444444444445,-0.6466666666666666,0.4375,0.1875,0.0
1589551308.1844108,0.01,-4.18,8.89,0.4577777777777778,0.30666666666666664,-0.6466666666666666,0.1875,0.0,0.125
1589551308.195743,0.0,-4.14,8.87,0.4577777777777778,0.30666666666666664,-0.6466666666666666,0.0625,-0.125,0.0625
1589551308.2156706,0.0,-4.16,8.7,0.4577777777777778,0.30666666666666664,-0.6466666666666666,-0.25,-0.4375,0.0625
1589551308.223183,0.0,-4.13,8.72,0.4577777777777778,0.30666666666666664,-0.6466666666666666,-0.5,-0.625,0.0
1589551308.2301936,0.01,-4.17,8.76,0.4577777777777778,0.30666666666666664,-0.64,-0.9375,-1.5,0.0625
1589551308.241076,0.01,-4.17,8.8,0.4577777777777778,0.30666666666666664,-0.64,-1.1875,-2.4375,-0.125
1589551308.255318,0.01,-4.12,8.68,0.4577777777777778,0.30666666666666664,-0.64,-1.375,-2.6875,-0.25
1589551308.2613986,0.03,-4.12,8.75,0.4577777777777778,0.30666666666666664,-0.64,-1.75,-2.9375,-0.1875
1589551308.2768786,0.07,-4.19,8.92,0.4577777777777778,0.30666666666666664,-0.64,-1.5625,-2.25,-1.125
1589551308.2826955,0.03,-4.14,8.92,0.4533333333333333,0.30666666666666664,-0.64,-0.625,-0.8125,-1.5
1589551308.2932734,-0.02,-4.15,8.85,0.4533333333333333,0.30666666666666664,-0.64,-0.125,-0.25,-2.4375
1589551308.3017,-0.02,-4.16,8.77,0.4533333333333333,0.30666666666666664,-0.64,-0.125,0.125,-3.125
1589551308.311658,0.0,-4.2,8.68,0.4533333333333333,0.30666666666666664,-0.64,-0.4375,-0.125,-3.4375
1589551308.3235712,0.03,-4.16,8.76,0.4533333333333333,0.30666666666666664,-0.64,-0.625,-0.5625,-3.0625
1589551308.3340454,0.01,-4.14,8.76,0.4533333333333333,0.30666666666666664,-0.6555555555555556,-1.0625,-0.8125,-3.25
1589551308.3410206,0.08,-4.16,8.79,0.4533333333333333,0.30666666666666664,-0.6555555555555556,-1.3125,-1.3125,-3.0
1589551308.3519983,0.1,-4.11,8.76,0.4533333333333333,0.30666666666666664,-0.6555555555555556,-1.9375,-1.5625,-3.375
1589551308.3621948,0.02,-4.04,8.85,0.4533333333333333,0.30666666666666664,-0.6555555555555556,-2.8125,-1.75,-4.9375
1589551308.3735595,0.06,-4.02,8.83,0.4533333333333333,0.30666666666666664,-0.6555555555555556,-3.1875,-1.4375,-7.0
1589551308.3804884,0.09,-4.01,8.89,0.46,0.30666666666666664,-0.6255555555555555,-3.0625,-1.1875,-9.5
1589551308.3912091,0.09,-4.01,8.89,0.46,0.30666666666666664,-0.6255555555555555,-3.0625,-1.1875,-9.5
1589551308.4042716,-0.35,-3.74,8.12,0.46,0.30666666666666664,-0.6255555555555555,2.8125,3.0,1.6875
1589551308.4120376,-0.37,-2.48,8.83,0.46,0.30666666666666664,-0.6255555555555555,-1.9375,-1.5,12.375
1589551308.4233146,-0.29,-2.44,8.87,0.46,0.30666666666666664,-0.6255555555555555,-1.1875,-1.8125,23.4375
1589551308.4313078,-0.19,-2.32,8.91,0.46,0.3144444444444445,-0.6344444444444445,-2.75,-3.625,32.8125
1589551308.4367518,-0.19,-2.32,8.91,0.46,0.3144444444444445,-0.6344444444444445,-2.75,-3.625,32.8125
1589551308.447453,-0.07,-2.45,9.13,0.46,0.3144444444444445,-0.6344444444444445,-2.25,-3.625,40.3125
1589551308.4540565,0.04,-2.45,8.79,0.46,0.3144444444444445,-0.6344444444444445,0.75,-1.5625,45.5625
1589551308.4622905,0.05,-2.65,8.86,0.46,0.3144444444444445,-0.6344444444444445,0.75,-1.9375,47.9375
1589551308.4738393,0.12,-2.64,8.97,0.46,0.3144444444444445,-0.6344444444444445,-0.4375,-2.3125,48.625
1589551308.4856315,0.11,-2.68,8.93,0.4722222222222222,0.29444444444444445,-0.6322222222222222,0.3125,-1.75,48.375
1589551308.4931686,0.08,-2.75,8.72,0.4722222222222222,0.29444444444444445,-0.6322222222222222,0.1875,-2.0625,47.625
1589551308.504215,0.07,-2.82,8.75,0.4722222222222222,0.29444444444444445,-0.6322222222222222,-0.0625,-2.5,46.5
1589551308.512662,0.03,-2.8,8.69,0.4722222222222222,0.29444444444444445,-0.6322222222222222,0.375,-2.25,45.5
1589551308.5247672,-0.01,-2.88,8.87,0.4722222222222222,0.29444444444444445,-0.6322222222222222,0.25,-2.4375,44.625
1589551308.5319743,0.01,-2.86,8.96,0.4866666666666667,0.28,-0.6322222222222222,0.3125,-2.375,44.3125
1589551308.5422244,-0.05,-2.89,8.78,0.4866666666666667,0.28,-0.6322222222222222,0.4375,-1.75,43.875
1589551308.5584464,-0.13,-2.94,8.81,0.4866666666666667,0.28,-0.6322222222222222,0.1875,-2.3125,43.375
1589551308.5650928,-0.14,-2.96,8.88,0.4866666666666667,0.28,-0.6322222222222222,0.4375,-1.75,43.625
1589551308.5779352,-0.21,-2.94,8.88,0.4866666666666667,0.28,-0.6322222222222222,0.625,-1.625,43.5
1589551308.583347,-0.2,-3.01,8.91,0.4722222222222222,0.2611111111111111,-0.6611111111111111,0.4375,-1.875,43.6875
1589551308.5980694,-0.18,-2.85,8.76,0.4722222222222222,0.2611111111111111,-0.6611111111111111,-0.1875,-2.1875,43.125
1589551308.6045845,-0.18,-2.82,8.76,0.4722222222222222,0.2611111111111111,-0.6611111111111111,-0.75,-3.375,42.6875
1589551308.6140258,-0.16,-2.68,8.72,0.4722222222222222,0.2611111111111111,-0.6611111111111111,-0.4375,-2.75,41.5
1589551308.625475,-0.19,-2.75,9.02,0.4722222222222222,0.2611111111111111,-0.6611111111111111,-0.125,-2.4375,40.0
1589551308.636514,-0.18,-2.71,8.82,0.4933333333333334,0.2611111111111111,-0.6466666666666666,0.8125,-1.5625,39.3125
1589551308.642874,-0.2,-2.98,8.8,0.4933333333333334,0.2611111111111111,-0.6466666666666666,0.1875,-1.8125,37.875
1589551308.6559632,-0.14,-2.87,8.74,0.4933333333333334,0.2611111111111111,-0.6466666666666666,0.0625,-1.3125,36.125
1589551308.6640685,-0.17,-2.91,8.75,0.4933333333333334,0.2611111111111111,-0.6466666666666666,0.375,-1.5,33.6875
1589551308.6756337,-0.16,-2.92,8.96,0.4933333333333334,0.2611111111111111,-0.6466666666666666,0.125,-1.5625,31.0625
1589551308.6831048,-0.16,-2.79,8.81,0.4977777777777778,0.2411111111111111,-0.6611111111111111,0.9375,-0.375,28.8125
1589551308.6947098,-0.2,-2.86,8.68,0.4977777777777778,0.2411111111111111,-0.6611111111111111,0.3125,-1.25,26.4375
1589551308.7069402,-0.29,-3.0,8.94,0.4977777777777778,0.2411111111111111,-0.6611111111111111,-0.9375,-2.4375,24.4375
1589551308.7141721,-0.31,-2.92,8.56,0.4977777777777778,0.2411111111111111,-0.6611111111111111,0.8125,-0.3125,23.875
1589551308.7305574,-0.26,-2.87,8.98,0.4977777777777778,0.2411111111111111,-0.6611111111111111,0.4375,-1.375,23.375
1589551308.7356765,-0.28,-2.83,8.89,0.5044444444444445,0.2288888888888889,-0.6755555555555556,-0.5,-1.625,22.75
1589551308.7485807,-0.31,-2.79,8.82,0.5044444444444445,0.2288888888888889,-0.6755555555555556,-0.75,-1.8125,22.375
1589551308.7546318,-0.34,-2.9,8.88,0.5044444444444445,0.2288888888888889,-0.6755555555555556,-0.3125,-1.3125,22.4375
1589551308.765262,-0.34,-2.88,8.59,0.5044444444444445,0.2288888888888889,-0.6755555555555556,0.5,0.125,23.375
1589551308.7762241,-0.43,-3.14,8.84,0.5044444444444445,0.2288888888888889,-0.6755555555555556,0.3125,-1.5,23.625
1589551308.7849581,-0.38,-2.87,8.77,0.5044444444444445,0.2488888888888889,-0.6888888888888889,0.4375,-1.0,24.5
1589551308.7941573,-0.41,-2.96,8.82,0.5044444444444445,0.2488888888888889,-0.6888888888888889,0.125,-1.3125,25.125
1589551308.8079967,-0.52,-3.06,8.87,0.5044444444444445,0.2488888888888889,-0.6888888888888889,0.0,-2.4375,26.4375
1589551308.8142335,-0.47,-3.1,8.91,0.5044444444444445,0.2488888888888889,-0.6888888888888889,0.5,-1.4375,28.6875
1589551308.8263488,-0.37,-2.81,8.68,0.5044444444444445,0.2488888888888889,-0.6888888888888889,0.9375,-0.0625,30.375
1589551308.833525,-0.42,-2.78,8.59,0.5044444444444445,0.2411111111111111,-0.7111111111111111,-0.3125,-0.9375,32.0625
1589551308.843777,-0.4,-2.86,9.11,0.5044444444444445,0.2411111111111111,-0.7111111111111111,-0.125,-3.8125,33.9375
1589551308.8549356,-0.39,-2.8,8.9,0.5044444444444445,0.2411111111111111,-0.7111111111111111,0.1875,-1.9375,36.5625
1589551308.8643804,-0.58,-3.12,8.99,0.5044444444444445,0.2411111111111111,-0.7111111111111111,-0.8125,-2.6875,38.75
1589551308.8801408,-0.6,-3.21,9.14,0.5044444444444445,0.2411111111111111,-0.7111111111111111,0.3125,-2.0,41.6875
1589551308.8862548,-0.49,-2.97,8.8,0.5311111111111111,0.2222222222222222,-0.7322222222222222,2.4375,1.25,44.4375
1589551308.9004002,-0.43,-2.92,9.07,0.5311111111111111,0.2222222222222222,-0.7322222222222222,0.9375,-1.625,45.0
1589551308.9069278,-0.59,-3.18,9.06,0.5311111111111111,0.2222222222222222,-0.7322222222222222,-0.9375,-4.25,44.625
1589551308.9148345,-0.51,-2.94,8.63,0.5311111111111111,0.2222222222222222,-0.7322222222222222,0.125,-1.1875,45.1875
1589551308.9268336,-0.54,-2.94,8.72,0.5311111111111111,0.2222222222222222,-0.7322222222222222,0.0,-2.0,45.125
1589551308.9379175,-0.56,-3.05,9.06,0.5022222222222222,0.2288888888888889,-0.7322222222222222,-1.125,-3.5,44.875
1589551308.9444618,-0.63,-3.02,8.98,0.5022222222222222,0.2288888888888889,-0.7322222222222222,0.375,-2.0625,45.1875
1589551308.9597378,-0.65,-3.09,8.44,0.5022222222222222,0.2288888888888889,-0.7322222222222222,1.25,-0.5625,45.875
1589551308.965814,-0.54,-2.9,8.95,0.5022222222222222,0.2288888888888889,-0.7322222222222222,-0.8125,-3.1875,45.25
1589551308.9786284,-0.66,-3.12,8.68,0.5022222222222222,0.2288888888888889,-0.7322222222222222,-0.375,-2.1875,45.125
1589551308.9858115,-0.78,-3.2,8.79,0.49,0.1955555555555556,-0.7677777777777778,-0.6875,-2.6875,44.25
1589551308.9962294,-0.7,-3.06,9.19,0.49,0.1955555555555556,-0.7677777777777778,-0.8125,-3.3125,44.125
1589551309.0059865,-0.72,-2.99,8.44,0.49,0.1955555555555556,-0.7677777777777778,1.125,0.3125,44.625
1589551309.0164776,-0.75,-3.16,9.01,0.49,0.1955555555555556,-0.7677777777777778,-0.6875,-1.8125,43.4375
1589551309.027275,-0.71,-3.08,9.01,0.49,0.1955555555555556,-0.7677777777777778,-1.0,-1.375,41.4375
1589551309.0355582,-0.78,-3.17,9.0,0.49,0.11555555555555555,-0.78,-0.1875,-0.4375,39.125
1589551309.0449512,-0.88,-3.2,9.12,0.49,0.11555555555555555,-0.78,-1.4375,-2.5625,35.625
1589551309.0561595,-0.77,-2.94,8.64,0.49,0.11555555555555555,-0.78,-1.0625,-0.375,33.3125
1589551309.0658858,-0.73,-3.07,8.76,0.49,0.11555555555555555,-0.78,0.125,0.875,30.5
1589551309.0777595,-0.75,-2.89,9.07,0.49,0.11555555555555555,-0.78,-1.3125,-0.25,26.1875
1589551309.08726,-0.77,-2.91,9.12,0.4977777777777778,0.0811111111111111,-0.7677777777777778,-2.4375,-0.5,22.3125
1589551309.094121,-0.68,-2.81,8.68,0.4977777777777778,0.0811111111111111,-0.7677777777777778,-0.0625,2.8125,19.875
1589551309.0997305,-0.68,-2.81,8.68,0.4977777777777778,0.0811111111111111,-0.7677777777777778,-0.0625,2.8125,19.875
1589551309.110216,-0.56,-2.57,8.34,0.4977777777777778,0.0811111111111111,-0.7677777777777778,-2.25,0.25,15.4375
1589551309.1161785,-0.81,-2.92,9.31,0.4977777777777778,0.0811111111111111,-0.7677777777777778,-4.25,-3.625,10.6875
1589551309.1286266,-0.83,-2.81,8.63,0.4977777777777778,0.0811111111111111,-0.7677777777777778,-1.1875,1.125,7.625
1589551309.1363776,-0.99,-3.03,8.89,0.4844444444444445,0.042222222222222223,-0.7677777777777778,-0.6875,1.625,5.25
1589551309.1454859,-0.72,-2.84,8.93,0.4844444444444445,0.042222222222222223,-0.7677777777777778,-1.4375,0.1875,2.75
1589551309.1562462,-0.76,-2.82,9.01,0.4844444444444445,0.042222222222222223,-0.7677777777777778,-2.375,-2.0625,-0.9375
1589551309.1677973,-0.71,-2.67,8.64,0.4844444444444445,0.042222222222222223,-0.7677777777777778,-1.75,0.625,-3.75
1589551309.1780193,-0.71,-2.81,8.99,0.4844444444444445,0.042222222222222223,-0.7677777777777778,-0.8125,0.6875,-5.6875
1589551309.1862495,-0.8,-2.85,8.75,0.4666666666666667,-0.03666666666666667,-0.7088888888888889,1.0,2.3125,-8.0
1589551309.1962795,-0.64,-2.6,8.79,0.4666666666666667,-0.03666666666666667,-0.7088888888888889,-0.75,1.5625,-10.375
1589551309.2076435,-0.8,-2.89,8.77,0.4666666666666667,-0.03666666666666667,-0.7088888888888889,-1.0625,0.0,-12.25
1589551309.2163007,-0.87,-2.97,9.16,0.4666666666666667,-0.03666666666666667,-0.7088888888888889,-1.75,-0.1875,-13.8125
1589551309.2285259,-0.77,-2.78,8.71,0.4666666666666667,-0.03666666666666667,-0.7088888888888889,-0.75,0.0,-15.375
1589551309.2345881,-0.86,-3.01,8.89,0.4833333333333333,0.013333333333333334,-0.6522222222222223,0.0625,1.625,-16.5625
1589551309.2467995,-0.98,-3.22,9.47,0.4833333333333333,0.013333333333333334,-0.6522222222222223,-0.3125,1.5,-18.6875
1589551309.2560616,-0.9,-3.26,8.75,0.4833333333333333,0.013333333333333334,-0.6522222222222223,1.6875,3.6875,-19.6875
1589551309.2674847,-0.93,-3.15,9.13,0.4833333333333333,0.013333333333333334,-0.6522222222222223,-2.0,-2.875,-23.125
1589551309.2823198,-0.77,-2.82,8.34,0.4833333333333333,0.013333333333333334,-0.6522222222222223,-3.3125,-1.6875,-25.3125
1589551309.288417,-0.86,-3.09,9.67,0.51,0.06666666666666668,-0.6522222222222223,-0.8125,-2.1875,-26.25
1589551309.2970831,-0.89,-3.24,8.28,0.51,0.06666666666666668,-0.6522222222222223,1.8125,4.125,-26.375
1589551309.3058994,-0.99,-3.35,8.59,0.51,0.06666666666666668,-0.6522222222222223,0.25,2.8125,-28.125
1589551309.3200223,-0.84,-3.07,8.88,0.51,0.06666666666666668,-0.6522222222222223,-1.875,-2.75,-30.3125
1589551309.3294096,-0.65,-2.86,9.12,0.51,0.06666666666666668,-0.6522222222222223,-1.3125,-1.6875,-31.1875
1589551309.340922,-0.88,-3.25,8.83,0.5155555555555555,0.10666666666666667,-0.6322222222222222,1.8125,2.6875,-31.875
1589551309.347173,-1.03,-3.57,8.96,0.5155555555555555,0.10666666666666667,-0.6322222222222222,1.9375,3.5625,-33.125
1589551309.3571439,-0.6,-2.91,8.15,0.5155555555555555,0.10666666666666667,-0.6322222222222222,1.5,2.8125,-34.625
1589551309.3671596,-0.83,-3.39,9.15,0.5155555555555555,0.10666666666666667,-0.6322222222222222,-1.0625,-1.875,-37.8125
1589551309.3792214,-0.78,-3.25,8.45,0.5155555555555555,0.10666666666666667,-0.6322222222222222,-0.125,0.1875,-39.875
1589551309.3895175,-0.82,-3.35,8.91,0.51,0.16666666666666666,-0.6533333333333333,0.375,0.6875,-41.3125
1589551309.3974366,-0.79,-3.31,8.77,0.51,0.16666666666666666,-0.6533333333333333,-0.5,-0.3125,-42.75
1589551309.4068468,-0.77,-3.43,8.87,0.51,0.16666666666666666,-0.6533333333333333,0.5625,1.8125,-43.25
1589551309.4183269,-0.89,-3.71,8.75,0.51,0.16666666666666666,-0.6533333333333333,1.1875,2.0625,-43.875
1589551309.4327722,-1.0,-3.77,8.81,0.51,0.16666666666666666,-0.6533333333333333,-0.125,1.75,-45.0625
1589551309.4389114,-0.83,-3.52,8.73,0.5222222222222223,0.17222222222222222,-0.6533333333333333,-0.1875,1.625,-45.125
1589551309.4513164,-0.98,-3.87,9.05,0.5222222222222223,0.17222222222222222,-0.6533333333333333,0.0,1.0625,-45.5625
1589551309.4572468,-0.79,-3.71,8.79,0.5222222222222223,0.17222222222222222,-0.6533333333333333,-0.3125,1.0625,-45.25
1589551309.4684055,-0.7,-3.45,8.56,0.5222222222222223,0.17222222222222222,-0.6533333333333333,0.75,2.3125,-45.3125
1589551309.4797812,-0.77,-3.61,9.02,0.5222222222222223,0.17222222222222222,-0.6533333333333333,-0.1875,1.0,-46.3125
1589551309.4921188,-0.68,-3.52,8.93,0.5422222222222223,0.20555555555555555,-0.6255555555555555,-1.1875,0.0625,-46.4375
1589551309.4977286,-0.8,-3.74,8.83,0.5422222222222223,0.20555555555555555,-0.6255555555555555,0.5625,2.0,-45.5625
1589551309.5101097,-0.78,-3.78,8.78,0.5422222222222223,0.20555555555555555,-0.6255555555555555,0.25,1.625,-44.4375
1589551309.5176125,-0.78,-3.88,8.88,0.5422222222222223,0.20555555555555555,-0.6255555555555555,-0.8125,1.0,-43.3125
1589551309.529749,-0.92,-4.1,8.78,0.5422222222222223,0.20555555555555555,-0.6255555555555555,0.375,2.3125,-41.25
1589551309.5368366,-0.91,-4.11,8.85,0.6,0.16666666666666666,-0.6755555555555556,0.25,2.3125,-38.6875
1589551309.550321,-0.97,-4.17,8.79,0.6,0.16666666666666666,-0.6755555555555556,0.0,1.25,-35.8125
1589551309.557089,-0.81,-4.07,8.95,0.6,0.16666666666666666,-0.6755555555555556,-1.125,-0.1875,-31.5
1589551309.5692213,-1.05,-4.32,8.61,0.6,0.16666666666666666,-0.6755555555555556,-0.125,0.9375,-25.0
1589551309.5848494,-0.64,-3.86,8.76,0.6,0.16666666666666666,-0.6755555555555556,-0.0625,0.8125,-17.375
1589551309.5908227,-0.69,-3.96,8.9,0.8188888888888889,-0.006666666666666667,-0.59,0.1875,0.625,-12.0
1589551309.5976634,-0.69,-3.81,8.85,0.8188888888888889,-0.006666666666666667,-0.59,-0.6875,-0.1875,-9.625
1589551309.609962,-0.79,-3.85,8.68,0.8188888888888889,-0.006666666666666667,-0.59,-0.25,0.1875,-8.125
1589551309.6212785,-0.75,-4.16,8.71,0.8188888888888889,-0.006666666666666667,-0.59,0.1875,0.0,-3.3125
1589551309.6302142,-0.63,-3.99,8.84,0.8188888888888889,-0.006666666666666667,-0.59,0.0,0.1875,1.3125
1589551309.6425865,-0.6,-3.54,8.82,1.5388888888888892,0.14555555555555555,-0.23222222222222225,-0.125,-0.6875,4.0625
1589551309.6492875,-0.43,-3.63,8.29,1.5388888888888892,0.14555555555555555,-0.23222222222222225,-0.625,-0.9375,6.1875
1589551309.661733,-0.35,-3.64,8.95,1.5388888888888892,0.14555555555555555,-0.23222222222222225,0.625,0.5,7.9375
1589551309.6680968,-0.33,-3.54,9.01,1.5388888888888892,0.14555555555555555,-0.23222222222222225,-0.5,-1.9375,5.5625
1589551309.6791961,-0.35,-3.48,8.52,1.5388888888888892,0.14555555555555555,-0.23222222222222225,0.5,0.125,1.6875
1589551309.6876552,-0.33,-3.25,8.97,0.8277777777777777,0.27,-0.6677777777777778,-0.0625,-0.3125,-3.0
1589551309.6977713,-0.61,-3.62,9.13,0.8277777777777777,0.27,-0.6677777777777778,-0.375,-0.625,-6.875
1589551309.7043386,-0.61,-3.62,9.13,0.8277777777777777,0.27,-0.6677777777777778,-0.375,-0.625,-6.875
1589551309.7140396,-0.77,-4.0,8.73,0.8277777777777777,0.27,-0.6677777777777778,0.9375,1.3125,-7.6875
1589551309.7230446,-0.8,-3.79,9.32,0.8277777777777777,0.27,-0.6677777777777778,2.5,3.375,-5.75
1589551309.7303634,-0.66,-3.44,8.97,0.8277777777777777,0.27,-0.6677777777777778,-1.9375,-3.5625,-6.1875
1589551309.740669,-0.38,-3.36,9.15,0.5911111111111111,0.25,-0.7244444444444444,-1.4375,-1.75,-3.0
1589551309.7486,-0.07,-3.33,8.39,0.5911111111111111,0.25,-0.7244444444444444,1.875,1.4375,-2.3125
1589551309.7584133,-0.83,-3.35,9.14,0.5911111111111111,0.25,-0.7244444444444444,0.625,1.3125,-10.375
1589551309.7683306,-0.94,-3.36,8.7,0.5911111111111111,0.25,-0.7244444444444444,-2.9375,-1.875,-16.75
1589551309.7811975,-0.93,-3.74,8.65,0.5911111111111111,0.25,-0.7244444444444444,0.4375,1.25,-10.5
1589551309.7929304,-0.9,-3.75,9.21,0.5466666666666666,0.2733333333333333,-0.7233333333333334,0.75,-1.0,-0.5
1589551309.799293,-0.87,-3.48,9.02,0.5466666666666666,0.2733333333333333,-0.7233333333333334,-0.5625,-0.875,7.5
1589551309.8138642,-0.91,-3.82,8.83,0.5466666666666666,0.2733333333333333,-0.7233333333333334,-0.375,-1.8125,15.625
1589551309.8198292,-1.09,-4.16,8.75,0.5466666666666666,0.2733333333333333,-0.7233333333333334,1.3125,-0.875,24.875
1589551309.8304515,-0.63,-3.74,8.77,0.5466666666666666,0.2733333333333333,-0.7233333333333334,1.6875,-0.875,36.0
1589551309.8392065,-0.67,-3.69,9.14,0.54,0.26666666666666666,-0.7422222222222222,0.375,-2.9375,45.125
1589551309.8535678,-0.81,-3.84,9.02,0.54,0.26666666666666666,-0.7422222222222222,-0.5,-4.0,51.75
1589551309.861244,-0.78,-3.85,8.1,0.54,0.26666666666666666,-0.7422222222222222,1.6875,-0.8125,61.6875
1589551309.8734012,-0.69,-4.19,9.03,0.54,0.26666666666666666,-0.7422222222222222,1.125,-4.8125,73.1875
1589551309.8806796,-0.31,-3.61,8.82,0.54,0.26666666666666666,-0.7422222222222222,0.1875,-5.6875,82.625
1589551309.8922865,-0.11,-3.65,9.14,0.54,0.2344444444444445,-0.7355555555555555,3.125,-0.9375,83.3125
1589551309.899043,-0.2,-3.49,8.25,0.54,0.2344444444444445,-0.7355555555555555,3.125,-0.9375,83.3125
1589551309.9096055,-31.14,-29.91,13.09,0.54,0.2344444444444445,-0.7355555555555555,1.75,-2.125,72.8125
1589551309.9219728,0.94,2.94,-10.88,0.54,0.2344444444444445,-0.7355555555555555,-100.5,-52.0625,-416.8125
1589551309.9309888,-1.7,-0.02,4.3,0.54,0.2344444444444445,-0.7355555555555555,-119.75,-43.0,-423.0625
1589551309.9381518,-3.98,-2.7,11.09,0.5277777777777778,0.22333333333333333,-0.7088888888888889,-31.875,107.875,-322.1875
1589551309.9497118,-1.11,-2.44,1.99,0.5277777777777778,0.22333333333333333,-0.7088888888888889,68.625,27.25,-279.625
1589551309.9597163,0.52,-3.95,16.85,0.5277777777777778,0.22333333333333333,-0.7088888888888889,136.25,35.75,-241.625
1589551309.9706054,-0.54,-0.22,1.8,0.5277777777777778,0.22333333333333333,-0.7088888888888889,64.0625,53.8125,-189.5625
1589551309.9849358,1.3,-2.13,11.17,0.5277777777777778,0.22333333333333333,-0.7088888888888889,-58.9375,-36.875,-139.625
1589551309.991122,2.14,-2.27,13.7,0.4688888888888889,0.3388888888888889,-0.7155555555555555,4.75,7.25,-127.0
1589551310.003463,0.9,-0.92,5.44,0.4688888888888889,0.3388888888888889,-0.7155555555555555,20.0625,24.75,-119.5625
1589551310.0096712,0.31,-3.09,12.35,0.4688888888888889,0.3388888888888889,-0.7155555555555555,-14.9375,-11.6875,-105.4375
1589551310.023343,0.0,-2.5,8.89,0.4688888888888889,0.3388888888888889,-0.7155555555555555,2.125,11.0,-80.6875
1589551310.0315087,-0.19,-2.52,6.56,0.4688888888888889,0.3388888888888889,-0.7155555555555555,5.75,6.625,-55.8125
1589551310.0393064,-0.06,-2.99,9.65,0.4177777777777778,0.4011111111111111,-0.7033333333333334,-9.1875,-7.0,-31.0625
1589551310.0458455,-0.06,-2.99,9.65,0.4177777777777778,0.4011111111111111,-0.7033333333333334,-9.1875,-7.0,-31.0625
1589551310.0518286,0.58,-2.36,8.47,0.4177777777777778,0.4011111111111111,-0.7033333333333334,0.375,3.0625,-13.5625
1589551310.061692,-1.29,-7.24,8.71,0.4177777777777778,0.4011111111111111,-0.7033333333333334,4.8125,2.625,-4.625
1589551310.069817,-4.55,-25.94,10.19,0.4177777777777778,0.4011111111111111,-0.7033333333333334,-0.625,7.4375,93.625
1589551310.081947,2.07,-1.22,10.07,0.4177777777777778,0.4011111111111111,-0.7033333333333334,3.8125,-13.875,146.75
1589551310.0893385,2.22,-2.06,11.67,0.4,0.43666666666666665,-0.7033333333333334,-2.5,-15.8125,119.125
1589551310.0999475,1.0,-1.76,6.79,0.4,0.43666666666666665,-0.7033333333333334,2.0625,2.875,95.3125
1589551310.1056287,1.0,-1.76,6.79,0.4,0.43666666666666665,-0.7033333333333334,2.0625,2.875,95.3125
1589551310.1189108,5.36,-10.22,8.79,0.4,0.43666666666666665,-0.7033333333333334,0.8125,-7.6875,64.625
1589551310.125159,-1.0,0.39,8.86,0.4,0.43666666666666665,-0.7033333333333334,-1.9375,5.0,8.75
1589551310.136075,0.64,-5.72,8.07,0.4,0.43666666666666665,-0.7033333333333334,9.5625,4.0625,6.5
1589551310.1419823,0.0,-3.63,8.88,0.4577777777777778,0.4066666666666667,-0.7111111111111111,-7.1875,-3.375,-2.1875
1589551310.1549206,0.15,-4.08,8.61,0.4577777777777778,0.4066666666666667,-0.7111111111111111,0.3125,-0.0625,-1.375
1589551310.1607995,0.21,-4.16,8.68,0.4577777777777778,0.4066666666666667,-0.7111111111111111,1.6875,0.4375,0.0
1589551310.1743467,0.24,-4.18,8.71,0.4577777777777778,0.4066666666666667,-0.7111111111111111,-0.5,-0.125,-0.125
1589551310.1826947,0.24,-4.21,8.8,0.4577777777777778,0.4066666666666667,-0.7111111111111111,0.1875,0.0,-0.0625
1589551310.1915472,0.26,-4.18,8.8,0.46,0.3855555555555555,-0.68,-0.25,0.0,0.0
1589551310.201026,0.23,-4.25,8.71,0.46,0.3855555555555555,-0.68,-0.6875,-0.0625,0.1875
1589551310.2142072,0.25,-4.2,8.63,0.46,0.3855555555555555,-0.68,0.3125,0.125,0.0
1589551310.2209244,0.23,-4.18,8.74,0.46,0.3855555555555555,-0.68,0.6875,0.0625,0.0625
1589551310.2335825,0.25,-4.13,8.83,0.46,0.3855555555555555,-0.68,0.1875,0.0,0.0625
1589551310.2418249,0.23,-4.22,8.76,0.44,0.4,-0.7088888888888889,-0.875,-0.0625,0.125
1589551310.2540839,0.24,-4.18,8.78,0.44,0.4,-0.7088888888888889,-0.4375,-0.0625,0.0
1589551310.2615519,0.18,-4.21,8.6,0.44,0.4,-0.7088888888888889,-0.125,-0.125,-0.0625
1589551310.274213,0.26,-4.18,8.79,0.44,0.4,-0.7088888888888889,0.4375,-0.0625,0.0625
1589551310.2892506,0.22,-4.18,8.76,0.44,0.4,-0.7088888888888889,0.375,0.0,0.0625
1589551310.2958245,0.24,-4.14,8.8,0.4477777777777778,0.4066666666666667,-0.6877777777777778,-0.4375,-0.125,-0.0625
1589551310.3055375,0.22,-4.22,8.69,0.4477777777777778,0.4066666666666667,-0.6877777777777778,-0.625,-0.0625,0.125
1589551310.3120227,0.25,-4.18,8.65,0.4477777777777778,0.4066666666666667,-0.6877777777777778,-0.0625,-0.0625,-0.0625
1589551310.3257658,0.23,-4.2,8.71,0.4477777777777778,0.4066666666666667,-0.6877777777777778,0.3125,-0.0625,0.0625
1589551310.334092,0.24,-4.18,8.84,0.4477777777777778,0.4066666666666667,-0.6877777777777778,0.375,0.0625,0.0625
1589551310.3425806,0.21,-4.18,8.81,0.4533333333333333,0.4,-0.7233333333333334,0.0,0.25,0.0625
1589551310.3517206,0.25,-4.18,8.81,0.4533333333333333,0.4,-0.7233333333333334,-0.625,0.0,0.0625
1589551310.3623595,0.24,-4.24,8.68,0.4533333333333333,0.4,-0.7233333333333334,-0.375,-0.1875,0.0
1589551310.3720858,0.26,-4.19,8.75,0.4533333333333333,0.4,-0.7233333333333334,0.1875,-0.1875,0.0
1589551310.3862062,0.24,-4.18,8.79,0.4533333333333333,0.4,-0.7233333333333334,0.3125,-0.0625,0.0
1589551310.392123,0.25,-4.16,8.8,0.44,0.4066666666666667,-0.7022222222222222,0.125,0.0625,0.0
1589551310.4023762,0.23,-4.19,8.68,0.44,0.4066666666666667,-0.7022222222222222,-0.3125,-0.125,0.1875
1589551310.4123652,0.24,-4.24,8.66,0.44,0.4066666666666667,-0.7022222222222222,-0.3125,-0.0625,0.125
1589551310.4259536,0.24,-4.21,8.71,0.44,0.4066666666666667,-0.7022222222222222,0.125,0.0625,0.0625
1589551310.4403708,0.26,-4.18,8.77,0.44,0.4066666666666667,-0.7022222222222222,0.375,0.0,-0.0625
1589551310.446611,0.23,-4.15,8.82,0.4477777777777778,0.3922222222222223,-0.7022222222222222,0.125,0.125,0.0
1589551310.4555962,0.24,-4.19,8.79,0.4477777777777778,0.3922222222222223,-0.7022222222222222,-0.4375,0.0625,0.0625
1589551310.4647071,0.22,-4.19,8.65,0.4477777777777778,0.3922222222222223,-0.7022222222222222,-0.4375,0.0,-0.0625
1589551310.4781075,0.23,-4.22,8.69,0.4477777777777778,0.3922222222222223,-0.7022222222222222,-0.125,0.0625,0.1875
1589551310.4854825,0.24,-4.16,8.77,0.4477777777777778,0.3922222222222223,-0.7022222222222222,0.3125,0.0625,0.125
1589551310.4979415,0.24,-4.18,8.82,0.46,0.4,-0.7233333333333334,0.3125,0.0625,0.125
1589551310.5045636,0.23,-4.16,8.79,0.46,0.4,-0.7233333333333334,0.0625,0.0,0.125
1589551310.5165222,0.24,-4.23,8.68,0.46,0.4,-0.7233333333333334,-0.4375,-0.0625,0.0
1589551310.5232902,0.22,-4.22,8.68,0.46,0.4,-0.7233333333333334,-0.0625,0.0,0.0625
1589551310.5351536,0.25,-4.2,8.81,0.46,0.4,-0.7233333333333334,0.3125,0.0,-0.0625
1589551310.5434222,0.24,-4.16,8.79,0.4477777777777778,0.4,-0.7022222222222222,0.25,0.1875,-0.125
1589551310.5533814,0.24,-4.18,8.8,0.4477777777777778,0.4,-0.7022222222222222,0.0,0.0,0.0
1589551310.5630836,0.22,-4.19,8.66,0.4477777777777778,0.4,-0.7022222222222222,-0.375,-0.125,0.0
1589551310.5729728,0.25,-4.21,8.7,0.4477777777777778,0.4,-0.7022222222222222,-0.375,-0.125,0.0625
1589551310.586453,0.24,-4.2,8.77,0.4477777777777778,0.4,-0.7022222222222222,0.0,-0.0625,0.0
1589551310.5976422,0.25,-4.17,8.84,0.44,0.4122222222222222,-0.6944444444444444,0.3125,0.0,0.0625
1589551310.6099632,0.22,-4.18,8.81,0.44,0.4122222222222222,-0.6944444444444444,0.0,0.125,0.0625
1589551310.6167994,0.23,-4.2,8.69,0.44,0.4122222222222222,-0.6944444444444444,-0.25,0.0625,0.0625
1589551310.6238115,0.22,-4.2,8.75,0.44,0.4122222222222222,-0.6944444444444444,-0.1875,0.0,0.0
1589551310.6355968,0.24,-4.19,8.75,0.44,0.4122222222222222,-0.6944444444444444,0.0,0.0,0.1875
1589551310.6496918,0.23,-4.18,8.79,0.43333333333333335,0.4,-0.6877777777777778,0.3125,-0.1875,0.125
1589551310.6563342,0.24,-4.17,8.75,0.43333333333333335,0.4,-0.6877777777777778,0.0625,-0.0625,0.0
1589551310.6667151,0.24,-4.19,8.68,0.43333333333333335,0.4,-0.6877777777777778,-0.125,0.0,0.0625
1589551310.6738293,0.25,-4.22,8.71,0.43333333333333335,0.4,-0.6877777777777778,-0.375,0.0625,-0.125
1589551310.6862676,0.24,-4.2,8.76,0.43333333333333335,0.4,-0.6877777777777778,-0.25,-0.125,0.0625
1589551310.6935205,0.24,-4.18,8.79,0.43333333333333335,0.3855555555555555,-0.7022222222222222,0.1875,-0.125,0.0
1589551310.7078998,0.24,-4.19,8.8,0.43333333333333335,0.3855555555555555,-0.7022222222222222,0.3125,0.125,0.0
1589551310.7139668,0.24,-4.16,8.69,0.43333333333333335,0.3855555555555555,-0.7022222222222222,0.0,-0.125,0.0625
1589551310.7240179,0.24,-4.19,8.68,0.43333333333333335,0.3855555555555555,-0.7022222222222222,-0.3125,-0.0625,0.0625
1589551310.7368512,0.24,-4.19,8.77,0.43333333333333335,0.3855555555555555,-0.7022222222222222,-0.25,-0.1875,0.125
1589551310.7481475,0.24,-4.18,8.79,0.44,0.4,-0.6944444444444444,0.0625,-0.0625,0.0
1589551310.7545323,0.24,-4.18,8.81,0.44,0.4,-0.6944444444444444,0.3125,0.0,-0.125
1589551310.7662597,0.23,-4.17,8.68,0.44,0.4,-0.6944444444444444,0.0625,-0.0625,0.125
1589551310.77483,0.23,-4.2,8.73,0.44,0.4,-0.6944444444444444,-0.25,0.1875,0.0625
1589551310.786344,0.23,-4.22,8.74,0.44,0.4,-0.6944444444444444,-0.1875,0.0,0.0625
1589551310.7940311,0.22,-4.21,8.77,0.43333333333333335,0.3922222222222223,-0.7088888888888889,-0.125,-0.125,0.0625
1589551310.8058436,0.23,-4.17,8.77,0.43333333333333335,0.3922222222222223,-0.7088888888888889,0.1875,0.0625,0.0625
1589551310.8189304,0.24,-4.19,8.7,0.43333333333333335,0.3922222222222223,-0.7088888888888889,0.125,0.1875,-0.125
1589551310.8258016,0.24,-4.19,8.71,0.43333333333333335,0.3922222222222223,-0.7088888888888889,-0.0625,0.0625,-0.0625
1589551310.837716,0.23,-4.2,8.77,0.43333333333333335,0.3922222222222223,-0.7088888888888889,-0.25,-0.3125,0.0
1589551310.84455,0.25,-4.19,8.79,0.4477777777777778,0.4,-0.7022222222222222,0.0,-0.125,0.0
1589551310.8590262,0.24,-4.18,8.8,0.4477777777777778,0.4,-0.7022222222222222,0.125,0.0,0.0625
1589551310.8655705,0.22,-4.18,8.72,0.4477777777777778,0.4,-0.7022222222222222,0.1875,-0.25,-0.0625
1589551310.8771772,0.24,-4.19,8.75,0.4477777777777778,0.4,-0.7022222222222222,-0.0625,-0.0625,0.0625
1589551310.8872006,0.24,-4.2,8.78,0.4477777777777778,0.4,-0.7022222222222222,-0.3125,0.0625,0.0625
1589551310.898212,0.24,-4.22,8.77,0.4533333333333333,0.4066666666666667,-0.7022222222222222,0.0,-0.0625,0.0
1589551310.905319,0.23,-4.18,8.78,0.4533333333333333,0.4066666666666667,-0.7022222222222222,0.0,0.1875,-0.0625
1589551310.915977,0.23,-4.18,8.69,0.4533333333333333,0.4066666666666667,-0.7022222222222222,0.3125,0.0625,-0.0625
1589551310.924765,0.24,-4.18,8.73,0.4533333333333333,0.4066666666666667,-0.7022222222222222,0.0625,-0.0625,-0.0625
1589551310.9375293,0.24,-4.19,8.76,0.4533333333333333,0.4066666666666667,-0.7022222222222222,-0.3125,0.125,0.0
1589551310.9446087,0.22,-4.19,8.78,0.4211111111111111,0.4122222222222222,-0.7088888888888889,-0.125,0.1875,-0.0625
