time,acc_x,acc_y,acc_z,mag_x,mag_y,mag_z,gyr_x,gyr_y,gyr_z
1589552744.8293278,-0.43,-4.13,8.91,0.4833333333333333,0.2822222222222222,-0.6233333333333333,2.625,-0.4375,6.625
1589552744.8396704,-0.41,-4.15,8.81,0.4833333333333333,0.2822222222222222,-0.6233333333333333,0.625,-6.4375,1.625
1589552744.8457966,-0.41,-4.15,8.84,0.4833333333333333,0.2822222222222222,-0.6233333333333333,-1.5,-3.8125,-5.0
1589552744.8546345,-0.41,-4.12,8.91,0.4833333333333333,0.2822222222222222,-0.6233333333333333,-6.375,-6.0625,3.625
1589552744.861991,-0.39,-4.14,9.0,0.4688888888888889,0.2822222222222222,-0.6233333333333333,0.5,-3.4375,0.375
1589552744.8748634,-0.4,-4.15,8.96,0.4688888888888889,0.2822222222222222,-0.6233333333333333,4.625,2.5625,-6.25
1589552744.882493,-0.41,-4.16,8.85,0.4688888888888889,0.2822222222222222,-0.6233333333333333,-2.375,-0.4375,-1.25
1589552744.8947608,-0.43,-4.15,8.87,0.4688888888888889,0.2822222222222222,-0.6233333333333333,1.125,1.5625,-3.875
1589552744.904273,-0.44,-4.13,8.92,0.4688888888888889,0.2822222222222222,-0.6233333333333333,2.875,-0.9375,3.875
1589552744.9145813,-0.42,-4.15,8.91,0.4688888888888889,0.2877777777777778,-0.6166666666666667,4.0,-3.6875,-5.625
1589552744.9225464,-0.39,-4.14,8.9,0.4688888888888889,0.2877777777777778,-0.6166666666666667,-2.25,-1.5625,-1.75
1589552744.9329095,-0.4,-4.18,8.79,0.4688888888888889,0.2877777777777778,-0.6166666666666667,-5.125,0.8125,-2.875
1589552744.942093,-0.41,-4.15,8.84,0.4688888888888889,0.2877777777777778,-0.6166666666666667,1.75,6.1875,0.875
1589552744.954162,-0.43,-4.14,8.88,0.4688888888888889,0.2877777777777778,-0.6166666666666667,0.625,-1.1875,10.3125
1589552744.9623122,-0.42,-4.14,8.91,0.4488888888888889,0.29444444444444445,-0.6311111111111111,0.5,2.5625,-6.75
1589552744.9743352,-0.42,-4.14,8.94,0.4488888888888889,0.29444444444444445,-0.6311111111111111,-4.5,2.5625,1.25
1589552744.9823143,-0.41,-4.14,8.83,0.4488888888888889,0.29444444444444445,-0.6311111111111111,3.375,1.5625,4.25
1589552744.9921227,-0.4,-4.16,8.91,0.4488888888888889,0.29444444444444445,-0.6311111111111111,-0.625,5.6875,-0.375
1589552745.0045278,-0.39,-4.14,8.94,0.4488888888888889,0.29444444444444445,-0.6311111111111111,-2.75,-6.1875,-1.125
1589552745.011903,-0.41,-4.14,8.92,0.4755555555555556,0.2822222222222222,-0.6233333333333333,-3.25,-0.8125,3.875
1589552745.028252,-0.41,-4.16,8.93,0.4755555555555556,0.2822222222222222,-0.6233333333333333,0.875,-7.375,-0.25
1589552745.0347085,-0.4,-4.16,8.82,0.4755555555555556,0.2822222222222222,-0.6233333333333333,-2.75,3.5625,-1.0
1589552745.0459642,-0.4,-4.17,8.83,0.4755555555555556,0.2822222222222222,-0.6233333333333333,0.125,-1.8125,2.0
1589552745.0544114,-0.41,-4.16,8.9,0.4755555555555556,0.2822222222222222,-0.6233333333333333,5.625,3.8125,-3.375
1589552745.0652895,-0.41,-4.16,8.94,0.4833333333333333,0.2766666666666667,-0.6088888888888889,3.25,1.5625,-5.875
1589552745.0716279,-0.41,-4.16,8.93,0.4833333333333333,0.2766666666666667,-0.6088888888888889,-1.75,3.0625,-3.375
1589552745.0854242,-0.42,-4.16,8.85,0.4833333333333333,0.2766666666666667,-0.6088888888888889,0.75,-0.1875,-1.75
1589552745.09323,-0.41,-4.15,8.92,0.4833333333333333,0.2766666666666667,-0.6088888888888889,-3.875,-0.8125,3.75
1589552745.1047456,-0.43,-4.13,8.92,0.4833333333333333,0.2766666666666667,-0.6088888888888889,3.125,2.0625,-4.75
1589552745.1117465,-0.41,-4.16,8.94,0.4633333333333333,0.2766666666666667,-0.6166666666666667,3.0,-1.0625,0.75
1589552745.1223075,-0.41,-4.16,8.93,0.4633333333333333,0.2766666666666667,-0.6166666666666667,-2.75,-5.3125,1.875
1589552745.1344464,-0.4,-4.15,8.81,0.4633333333333333,0.2766666666666667,-0.6166666666666667,-3.75,1.6875,0.125
1589552745.1455598,-0.43,-4.13,8.83,0.4633333333333333,0.2766666666666667,-0.6166666666666667,-8.3125,-2.4375,7.8125
1589552745.1579726,-0.41,-4.15,8.91,0.4633333333333333,0.2766666666666667,-0.6166666666666667,7.3125,2.1875,-4.0
1589552745.1643436,-0.43,-4.17,8.93,0.4633333333333333,0.2822222222222222,-0.6233333333333333,-5.125,-1.8125,11.3125
1589552745.1789355,-0.42,-4.15,8.95,0.4633333333333333,0.2822222222222222,-0.6233333333333333,8.3125,-6.3125,1.375
1589552745.1854436,-0.41,-4.16,8.81,0.4633333333333333,0.2822222222222222,-0.6233333333333333,-2.625,3.0625,-7.5625
1589552745.1934907,-0.41,-4.17,8.89,0.4633333333333333,0.2822222222222222,-0.6233333333333333,-7.4375,-7.75,2.25
1589552745.2059288,-0.42,-4.17,8.9,0.4633333333333333,0.2822222222222222,-0.6233333333333333,-9.8125,-0.0625,-4.0
1589552745.217158,-0.44,-4.13,8.93,0.4688888888888889,0.2766666666666667,-0.6088888888888889,7.1875,-2.3125,2.75
1589552745.2228222,-0.42,-4.13,8.9,0.4688888888888889,0.2766666666666667,-0.6088888888888889,1.75,-4.8125,4.0
1589552745.2370114,-0.41,-4.16,8.81,0.4688888888888889,0.2766666666666667,-0.6088888888888889,0.875,1.3125,-0.25
1589552745.2431796,-0.4,-4.15,8.89,0.4688888888888889,0.2766666666666667,-0.6088888888888889,-1.0,0.8125,3.25
1589552745.2579894,-0.39,-4.16,8.93,0.4688888888888889,0.2766666666666667,-0.6088888888888889,-3.625,5.0625,0.75
1589552745.2632015,-0.41,-4.16,8.92,0.4755555555555556,0.2822222222222222,-0.6233333333333333,1.5,-5.4375,-1.375
1589552745.2736402,-0.42,-4.14,8.88,0.4755555555555556,0.2822222222222222,-0.6233333333333333,4.625,5.0625,0.5
1589552745.283828,-0.44,-4.16,8.8,0.4755555555555556,0.2822222222222222,-0.6233333333333333,5.875,3.1875,5.25
1589552745.2939982,-0.42,-4.16,8.86,0.4755555555555556,0.2822222222222222,-0.6233333333333333,-0.25,2.0625,-8.3125
1589552745.3082373,-0.41,-4.14,8.92,0.4755555555555556,0.2822222222222222,-0.6233333333333333,-9.0625,-0.4375,3.25
1589552745.3141706,-0.41,-4.14,8.94,0.4688888888888889,0.2877777777777778,-0.6311111111111111,1.25,1.4375,9.0625
1589552745.3233087,-0.4,-4.15,8.93,0.4688888888888889,0.2877777777777778,-0.6311111111111111,-0.5,-2.4375,4.375
1589552745.3353198,-0.42,-4.15,8.81,0.4688888888888889,0.2877777777777778,-0.6311111111111111,4.25,-1.4375,-1.375
1589552745.3441842,-0.42,-4.15,8.89,0.4688888888888889,0.2877777777777778,-0.6311111111111111,3.25,1.6875,-0.5
1589552745.356164,-0.42,-4.16,8.91,0.4688888888888889,0.2877777777777778,-0.6311111111111111,-0.625,5.9375,-4.375
1589552745.3687305,-0.41,-4.16,8.93,0.4688888888888889,0.2877777777777778,-0.6088888888888889,-6.125,-3.8125,2.75
1589552745.3746884,-0.4,-4.15,8.92,0.4688888888888889,0.2877777777777778,-0.6088888888888889,-2.375,-9.75,0.75
1589552745.3889327,-0.43,-4.14,8.82,0.4688888888888889,0.2877777777777778,-0.6088888888888889,-4.125,-3.1875,-2.25
1589552745.3951228,-0.41,-4.15,8.84,0.4688888888888889,0.2877777777777778,-0.6088888888888889,2.25,-5.8125,-12.5625
1589552745.4073448,-0.44,-4.14,8.9,0.4688888888888889,0.2877777777777778,-0.6088888888888889,-1.125,4.3125,-2.125
1589552745.4141302,-0.41,-4.15,8.9,0.4833333333333333,0.26222222222222225,-0.6311111111111111,-6.375,-0.3125,4.125
1589552745.4246633,-0.4,-4.19,8.95,0.4833333333333333,0.26222222222222225,-0.6311111111111111,-2.75,5.4375,7.9375
1589552745.4342673,-0.4,-4.15,8.83,0.4833333333333333,0.26222222222222225,-0.6311111111111111,-3.75,4.0625,-5.0
1589552745.4445508,-0.39,-4.16,8.88,0.4833333333333333,0.26222222222222225,-0.6311111111111111,-3.625,-4.4375,5.875
1589552745.4580915,-0.41,-4.16,8.93,0.4833333333333333,0.26222222222222225,-0.6311111111111111,0.375,-3.5625,-2.0
1589552745.4684238,-0.42,-4.14,8.93,0.4833333333333333,0.2877777777777778,-0.6522222222222223,-4.375,-7.25,0.125
1589552745.4762402,-0.37,-4.0,8.86,0.4833333333333333,0.2877777777777778,-0.6522222222222223,-1.75,-3.3125,5.125
1589552745.487533,-0.31,-3.66,8.83,0.4833333333333333,0.2877777777777778,-0.6522222222222223,-6.25,-4.6875,2.25
1589552745.4942071,-0.33,-3.43,8.88,0.4833333333333333,0.2877777777777778,-0.6522222222222223,1.125,-13.25,1.25
1589552745.506225,-0.36,-3.15,9.08,0.4833333333333333,0.2877777777777778,-0.6522222222222223,-2.25,-1.8125,4.75
1589552745.5174587,-0.41,-2.61,8.8,0.4488888888888889,0.27,-0.6088888888888889,-6.25,-12.125,7.6875
1589552745.5240276,-0.35,-2.65,9.18,0.4488888888888889,0.27,-0.6088888888888889,1.0,4.6875,8.1875
1589552745.53901,-0.45,-2.77,9.25,0.4488888888888889,0.27,-0.6088888888888889,2.125,-0.3125,25.6875
1589552745.545228,-0.33,-2.85,9.08,0.4488888888888889,0.27,-0.6088888888888889,1.5,-0.8125,23.0625
1589552745.5598192,-0.25,-2.78,8.85,0.4488888888888889,0.27,-0.6088888888888889,4.0,1.6875,25.5625
1589552745.5654626,-0.21,-2.85,8.89,0.4688888888888889,0.2877777777777778,-0.6311111111111111,-0.5,1.0625,28.875
1589552745.5760515,-0.24,-2.97,9.07,0.4688888888888889,0.2877777777777778,-0.6311111111111111,0.875,-10.75,43.375
1589552745.5847578,-0.35,-3.12,8.95,0.4688888888888889,0.2877777777777778,-0.6311111111111111,-3.875,-0.9375,37.8125
1589552745.59847,-0.35,-3.16,8.98,0.4688888888888889,0.2877777777777778,-0.6311111111111111,7.9375,1.1875,36.3125
1589552745.6065269,-0.34,-3.14,8.83,0.4688888888888889,0.2877777777777778,-0.6311111111111111,2.375,2.5625,33.625
1589552745.6143956,-0.32,-3.13,8.9,0.49,0.2766666666666667,-0.6233333333333333,5.625,5.3125,44.625
1589552745.6262553,-0.32,-3.18,8.93,0.49,0.2766666666666667,-0.6233333333333333,-4.5,-1.1875,37.5625
1589552745.6374536,-0.34,-3.11,8.76,0.49,0.2766666666666667,-0.6233333333333333,1.0,-4.4375,37.8125
1589552745.6457698,-0.34,-3.11,8.73,0.49,0.2766666666666667,-0.6233333333333333,1.75,-3.1875,40.5625
1589552745.6574366,-0.39,-3.06,8.73,0.49,0.2766666666666667,-0.6233333333333333,3.375,-8.5,39.6875
1589552745.666465,-0.42,-3.17,8.95,0.4755555555555556,0.2766666666666667,-0.6444444444444445,-3.5,0.8125,47.125
1589552745.6776712,-0.38,-3.18,9.14,0.4755555555555556,0.2766666666666667,-0.6444444444444445,-2.75,-4.0625,45.625
1589552745.6903243,-0.36,-3.17,8.9,0.4755555555555556,0.2766666666666667,-0.6444444444444445,6.25,-5.6875,33.75
1589552745.6970415,-0.38,-3.17,8.99,0.4755555555555556,0.2766666666666667,-0.6444444444444445,2.625,2.8125,37.0625
1589552745.7112818,-0.45,-3.17,8.9,0.4755555555555556,0.2766666666666667,-0.6444444444444445,-0.125,-3.8125,33.5
1589552745.7178295,-0.45,-3.13,8.97,0.4755555555555556,0.23555555555555555,-0.6088888888888889,-1.0,-4.5625,41.3125
1589552745.728725,-0.52,-3.25,8.82,0.4755555555555556,0.23555555555555555,-0.6088888888888889,-6.875,-3.4375,34.0
1589552745.736825,-0.58,-3.31,8.8,0.4755555555555556,0.23555555555555555,-0.6088888888888889,-1.875,0.6875,35.9375
1589552745.7470171,-0.55,-3.23,8.89,0.4755555555555556,0.23555555555555555,-0.6088888888888889,4.5,2.1875,38.9375
1589552745.7583413,-0.6,-3.32,8.92,0.4755555555555556,0.23555555555555555,-0.6088888888888889,-0.375,-0.5625,40.5625
1589552745.7663546,-0.62,-3.29,8.9,0.51,0.23555555555555555,-0.6377777777777778,3.875,-2.8125,34.25
1589552745.7760735,-0.61,-3.28,8.98,0.51,0.23555555555555555,-0.6377777777777778,-7.5625,0.1875,33.625
1589552745.7879455,-0.65,-3.34,8.95,0.51,0.23555555555555555,-0.6377777777777778,4.5,-2.1875,30.75
1589552745.796691,-0.61,-3.21,8.8,0.51,0.23555555555555555,-0.6377777777777778,-2.125,-8.375,43.75
1589552745.8085732,-0.61,-3.3,9.06,0.51,0.23555555555555555,-0.6377777777777778,0.25,0.5625,27.5625
1589552745.8174884,-0.63,-3.29,8.95,0.5022222222222222,0.23555555555555555,-0.6233333333333333,-14.0,-5.0625,33.625
1589552745.8264284,-0.65,-3.29,8.84,0.5022222222222222,0.23555555555555555,-0.6233333333333333,-1.375,-4.5625,26.5625
1589552745.8407485,-0.69,-3.32,8.64,0.5022222222222222,0.23555555555555555,-0.6233333333333333,-1.375,-3.6875,27.4375
1589552745.8467195,-0.7,-3.32,8.98,0.5022222222222222,0.23555555555555555,-0.6233333333333333,-2.0,4.1875,28.375
1589552745.863408,-0.78,-3.39,9.0,0.5022222222222222,0.23555555555555555,-0.6233333333333333,2.0,-3.8125,23.8125
1589552745.8696961,-0.77,-3.34,8.94,0.4955555555555556,0.2288888888888889,-0.6666666666666666,-3.5,4.3125,26.6875
1589552745.876569,-0.76,-3.33,8.99,0.4955555555555556,0.2288888888888889,-0.6666666666666666,2.25,-2.5625,19.25
1589552745.8878653,-0.73,-3.24,8.84,0.4955555555555556,0.2288888888888889,-0.6666666666666666,0.625,0.0625,22.4375
1589552745.9011836,-0.78,-3.31,8.95,0.4955555555555556,0.2288888888888889,-0.6666666666666666,-1.875,1.1875,24.5625
1589552745.9091954,-0.73,-3.24,8.87,0.4955555555555556,0.2288888888888889,-0.6666666666666666,-3.375,-0.5625,24.3125
1589552745.9209087,-0.8,-3.33,9.06,0.51,0.20222222222222225,-0.6644444444444444,-0.75,0.4375,17.75
1589552745.927757,-0.8,-3.28,8.99,0.51,0.20222222222222225,-0.6644444444444444,3.625,8.0,18.875
1589552745.9397762,-0.83,-3.22,8.82,0.51,0.20222222222222225,-0.6644444444444444,-1.25,1.1875,18.25
1589552745.9476433,-0.8,-3.23,8.9,0.51,0.20222222222222225,-0.6644444444444444,-2.75,-0.9375,18.0
1589552745.9591985,-0.84,-3.2,9.02,0.51,0.20222222222222225,-0.6644444444444444,3.75,2.5625,28.375
1589552745.9672744,-0.82,-3.18,9.0,0.51,0.21666666666666667,-0.6733333333333333,-5.875,1.0625,25.6875
1589552745.9773755,-0.83,-3.14,8.95,0.51,0.21666666666666667,-0.6733333333333333,0.5,1.4375,14.5
1589552745.9877667,-0.86,-3.22,9.3,0.51,0.21666666666666667,-0.6733333333333333,3.375,10.75,21.8125
1589552745.997306,-0.75,-3.02,8.38,0.51,0.21666666666666667,-0.6733333333333333,-6.75,-7.25,24.3125
1589552746.0136526,-0.67,-2.99,8.74,0.51,0.21666666666666667,-0.6733333333333333,2.375,6.0625,14.75
1589552746.0205913,-0.78,-2.97,8.63,0.5077777777777778,0.2088888888888889,-0.6944444444444444,-1.25,6.3125,17.5
1589552746.0271766,-0.8,-3.03,8.86,0.5077777777777778,0.2088888888888889,-0.6944444444444444,3.375,-1.8125,21.8125
1589552746.0400348,-0.83,-3.1,9.01,0.5077777777777778,0.2088888888888889,-0.6944444444444444,2.75,2.1875,18.875
1589552746.052712,-0.92,-3.17,8.96,0.5077777777777778,0.2088888888888889,-0.6944444444444444,3.75,1.9375,19.375
1589552746.0597858,-0.96,-3.26,8.9,0.5077777777777778,0.2088888888888889,-0.6944444444444444,4.0,-4.6875,16.875
1589552746.071814,-0.93,-3.23,8.98,0.5155555555555555,0.19666666666666666,-0.73,0.75,1.3125,23.0625
1589552746.0773885,-0.93,-3.16,9.09,0.5155555555555555,0.19666666666666666,-0.73,0.125,4.3125,20.25
1589552746.0910456,-0.92,-3.11,8.8,0.5155555555555555,0.19666666666666666,-0.73,-2.375,0.0625,17.625
1589552746.0980206,-0.97,-3.19,8.95,0.5155555555555555,0.19666666666666666,-0.73,0.75,0.0625,24.3125
1589552746.1114721,-0.95,-3.27,9.14,0.5155555555555555,0.19666666666666666,-0.73,3.875,-2.3125,11.4375
1589552746.117599,-0.92,-3.17,8.76,0.5011111111111111,0.20222222222222225,-0.7333333333333333,-6.625,-2.5625,26.5625
1589552746.1286118,-1.02,-3.35,9.33,0.5011111111111111,0.20222222222222225,-0.7333333333333333,-2.125,6.8125,14.625
1589552746.1380794,-1.05,-3.28,8.86,0.5011111111111111,0.20222222222222225,-0.7333333333333333,0.125,2.5625,16.75
1589552746.1487856,-0.96,-3.15,8.78,0.5011111111111111,0.20222222222222225,-0.7333333333333333,3.5,3.9375,17.125
1589552746.1597905,-1.02,-3.25,9.07,0.5011111111111111,0.20222222222222225,-0.7333333333333333,-1.625,-4.1875,8.5625
1589552746.1706018,-0.97,-3.18,8.97,0.5077777777777778,0.18444444444444444,-0.7644444444444445,-3.625,-2.8125,1.25
1589552746.178511,-1.02,-3.17,8.65,0.5077777777777778,0.18444444444444444,-0.7644444444444445,-9.6875,-8.875,7.6875
1589552746.189729,-1.08,-3.2,8.97,0.5077777777777778,0.18444444444444444,-0.7644444444444445,0.5,-2.1875,24.6875
1589552746.2019172,-1.16,-3.28,8.78,0.5077777777777778,0.18444444444444444,-0.7644444444444445,-2.0,-2.0625,7.6875
1589552746.210509,-1.23,-3.3,8.9,0.5077777777777778,0.18444444444444444,-0.7644444444444445,-0.25,-3.1875,9.4375
1589552746.2178414,-1.26,-3.39,9.05,0.5077777777777778,0.13666666666666666,-0.7555555555555555,4.0,3.8125,5.375
1589552746.2295227,-1.29,-3.42,8.63,0.5077777777777778,0.13666666666666666,-0.7555555555555555,3.125,0.0625,13.0625
1589552746.2374735,-1.23,-3.4,8.33,0.5077777777777778,0.13666666666666666,-0.7555555555555555,1.0,3.8125,14.625
1589552746.2509048,-1.26,-3.58,9.26,0.5077777777777778,0.13666666666666666,-0.7555555555555555,-7.3125,-4.1875,5.5
1589552746.2604198,-1.15,-3.26,8.31,0.5077777777777778,0.13666666666666666,-0.7555555555555555,-1.5,-2.3125,6.75
1589552746.267708,-1.33,-3.51,9.65,0.5077777777777778,0.10444444444444444,-0.7566666666666667,9.8125,5.6875,11.6875
1589552746.2820213,-1.33,-3.45,8.8,0.5077777777777778,0.10444444444444444,-0.7566666666666667,0.375,-5.6875,25.8125
1589552746.288051,-1.4,-3.51,8.53,0.5077777777777778,0.10444444444444444,-0.7566666666666667,-2.25,7.25,14.875
1589552746.3008635,-1.25,-3.35,9.0,0.5077777777777778,0.10444444444444444,-0.7566666666666667,2.125,3.3125,18.0
1589552746.3100178,-1.25,-3.36,8.48,0.5077777777777778,0.10444444444444444,-0.7566666666666667,-2.875,4.5625,23.0625
1589552746.3191972,-1.16,-3.41,9.18,0.5166666666666667,0.07111111111111111,-0.75,3.0,2.4375,29.625
1589552746.3293312,-1.15,-3.34,9.08,0.5166666666666667,0.07111111111111111,-0.75,-3.375,-7.625,20.75
1589552746.3405914,-1.31,-3.37,9.0,0.5166666666666667,0.07111111111111111,-0.75,-7.5625,-5.9375,24.6875
1589552746.3500714,-1.52,-3.59,9.38,0.5166666666666667,0.07111111111111111,-0.75,-0.75,0.3125,30.0
1589552746.3602285,-1.37,-3.41,8.52,0.5166666666666667,0.07111111111111111,-0.75,-2.5,-4.6875,20.625
1589552746.374559,-1.44,-3.5,9.19,0.49,0.01888888888888889,-0.7555555555555555,-5.75,-4.0625,26.4375
1589552746.381206,-1.48,-3.46,8.75,0.49,0.01888888888888889,-0.7555555555555555,-1.25,-2.8125,23.1875
1589552746.3892288,-1.54,-3.54,8.91,0.49,0.01888888888888889,-0.7555555555555555,6.0,-1.5625,23.4375
1589552746.4003673,-1.48,-3.45,8.81,0.49,0.01888888888888889,-0.7555555555555555,0.375,-3.9375,28.75
1589552746.4118354,-1.59,-3.52,8.92,0.49,0.01888888888888889,-0.7555555555555555,-2.375,-2.9375,25.4375
1589552746.4195855,-1.61,-3.51,8.84,0.4655555555555556,-0.03333333333333333,-0.6711111111111111,-1.625,-6.6875,28.625
1589552746.4304347,-1.63,-3.51,9.03,0.4655555555555556,-0.03333333333333333,-0.6711111111111111,5.125,3.3125,37.1875
1589552746.439572,-1.72,-3.64,8.97,0.4655555555555556,-0.03333333333333333,-0.6711111111111111,4.125,-0.9375,38.0625
1589552746.452439,-1.74,-3.65,8.91,0.4655555555555556,-0.03333333333333333,-0.6711111111111111,-1.75,0.6875,44.0
1589552746.461987,-1.74,-3.59,8.95,0.4655555555555556,-0.03333333333333333,-0.6711111111111111,-2.75,-8.75,38.5625
1589552746.4725904,-1.74,-3.51,8.94,0.4722222222222222,0.01,-0.6433333333333333,-1.875,-5.6875,53.0625
1589552746.4790506,-1.8,-3.51,9.07,0.4722222222222222,0.01,-0.6433333333333333,0.75,2.9375,56.625
1589552746.4897478,-1.74,-3.44,8.91,0.4722222222222222,0.01,-0.6433333333333333,-1.75,-4.6875,56.75
1589552746.5018115,-1.76,-3.41,8.77,0.4722222222222222,0.01,-0.6433333333333333,7.1875,1.9375,58.875
1589552746.512038,-1.78,-3.44,9.0,0.4722222222222222,0.01,-0.6433333333333333,0.75,-10.0,67.0625
1589552746.5251582,-1.89,-3.52,9.1,0.48,0.042222222222222223,-0.6144444444444445,1.375,-3.6875,71.25
1589552746.5313911,-1.88,-3.4,9.04,0.48,0.042222222222222223,-0.6144444444444445,3.625,-0.9375,61.125
1589552746.5401726,-1.88,-3.41,8.97,0.48,0.042222222222222223,-0.6144444444444445,-2.125,0.5625,68.4375
1589552746.5504994,-2.0,-3.52,8.96,0.48,0.042222222222222223,-0.6144444444444445,2.0,3.1875,54.8125
1589552746.565938,-2.05,-3.55,9.14,0.48,0.042222222222222223,-0.6144444444444445,-1.375,-10.5,67.3125
1589552746.5723069,-1.77,-3.17,8.49,0.4933333333333334,0.03666666666666667,-0.6433333333333333,0.0,-3.4375,73.75
1589552746.584299,-2.04,-3.48,9.35,0.4933333333333334,0.03666666666666667,-0.6433333333333333,7.9375,-3.5625,70.5
1589552746.5911152,-2.08,-3.4,8.62,0.4933333333333334,0.03666666666666667,-0.6433333333333333,-0.375,-6.1875,72.5
1589552746.6045635,-2.1,-3.47,8.97,0.4933333333333334,0.03666666666666667,-0.6433333333333333,-3.75,-4.5625,72.25
1589552746.6124115,-2.16,-3.43,9.02,0.4933333333333334,0.03666666666666667,-0.6433333333333333,3.125,-10.625,58.5
1589552746.6235087,-2.0,-3.2,9.21,0.5066666666666667,0.024444444444444446,-0.6288888888888889,-3.25,-0.6875,67.9375
1589552746.6311607,-2.07,-3.25,9.03,0.5066666666666667,0.024444444444444446,-0.6288888888888889,4.875,-7.75,73.625
1589552746.64018,-1.98,-3.09,8.7,0.5066666666666667,0.024444444444444446,-0.6288888888888889,-5.375,-7.625,69.3125
1589552746.6504393,-1.98,-3.07,8.94,0.5066666666666667,0.024444444444444446,-0.6288888888888889,-5.125,-7.25,71.5
1589552746.6615882,-1.98,-2.95,8.93,0.5066666666666667,0.024444444444444446,-0.6288888888888889,6.375,-7.25,67.4375
1589552746.6699164,-2.04,-2.97,9.21,0.5111111111111111,0.017777777777777778,-0.6433333333333333,-0.875,-8.875,80.8125
1589552746.6811733,-1.82,-2.8,8.77,0.5111111111111111,0.017777777777777778,-0.6433333333333333,-5.125,-8.25,78.8125
1589552746.6899984,-1.81,-2.83,8.95,0.5111111111111111,0.017777777777777778,-0.6433333333333333,11.1875,6.1875,74.125
1589552746.700477,-2.05,-2.92,8.77,0.5111111111111111,0.017777777777777778,-0.6433333333333333,-5.25,-5.9375,67.3125
1589552746.71657,-2.19,-3.01,8.85,0.5111111111111111,0.017777777777777778,-0.6433333333333333,-1.375,-3.3125,65.1875
1589552746.7235901,-2.29,-3.06,9.25,0.5288888888888889,-0.015555555555555557,-0.6288888888888889,6.125,0.0625,63.4375
1589552746.7332096,-2.2,-2.91,8.86,0.5288888888888889,-0.015555555555555557,-0.6288888888888889,-0.25,1.8125,66.8125
1589552746.7406235,-2.33,-2.97,8.98,0.5288888888888889,-0.015555555555555557,-0.6288888888888889,-2.75,-2.5625,52.3125
1589552746.7555046,-2.44,-3.02,8.71,0.5288888888888889,-0.015555555555555557,-0.6288888888888889,3.5,0.1875,56.125
1589552746.76218,-2.61,-3.08,9.39,0.5288888888888889,-0.015555555555555557,-0.6288888888888889,-2.5,-3.9375,49.8125
1589552746.774695,-2.39,-2.86,8.84,0.5155555555555555,-0.05333333333333334,-0.6577777777777778,2.0,-4.9375,45.625
1589552746.781891,-2.33,-2.92,9.22,0.5155555555555555,-0.05333333333333334,-0.6577777777777778,11.8125,-4.0625,38.5625
1589552746.7916903,-2.4,-3.4,8.88,0.5155555555555555,-0.05333333333333334,-0.6577777777777778,0.375,-2.6875,18.625
1589552746.8011286,-2.11,-2.75,9.36,0.5155555555555555,-0.05333333333333334,-0.6577777777777778,3.0,14.0625,8.3125
1589552746.8149755,-2.54,-3.13,9.43,0.5155555555555555,-0.05333333333333334,-0.6577777777777778,4.125,5.0625,10.0625
1589552746.820803,-2.16,-2.74,8.38,0.5255555555555556,-0.09222222222222222,-0.6577777777777778,-2.125,-10.75,-6.875
1589552746.8332224,-2.26,-2.39,8.91,0.5255555555555556,-0.09222222222222222,-0.6577777777777778,-9.0625,0.0625,-22.6875
1589552746.840676,-2.22,-2.45,9.21,0.5255555555555556,-0.09222222222222222,-0.6577777777777778,0.625,-1.4375,-30.5
1589552746.850445,-2.6,-2.64,8.95,0.5255555555555556,-0.09222222222222222,-0.6577777777777778,-3.375,3.4375,-52.1875
1589552746.8562145,-2.6,-2.64,8.95,0.5255555555555556,-0.09222222222222222,-0.6577777777777778,-3.375,3.4375,-52.1875
1589552746.8638833,-2.54,-2.66,8.62,0.5255555555555556,-0.09222222222222222,-0.6577777777777778,-2.125,0.3125,-55.4375
1589552746.8757136,-2.29,-2.73,9.32,0.5522222222222222,-0.13666666666666666,-0.6644444444444444,6.375,6.8125,-58.875
1589552746.8853695,-2.48,-2.77,9.13,0.5522222222222222,-0.13666666666666666,-0.6644444444444444,-0.125,0.3125,-69.6875
1589552746.891953,-2.51,-2.82,8.54,0.5522222222222222,-0.13666666666666666,-0.6644444444444444,-3.875,3.4375,-59.0
1589552746.905931,-2.62,-2.86,9.13,0.5522222222222222,-0.13666666666666666,-0.6644444444444444,-4.0,0.9375,-73.875
1589552746.9141245,-2.76,-2.94,8.9,0.5522222222222222,-0.13666666666666666,-0.6644444444444444,-2.375,5.6875,-83.3125
1589552746.9256506,-2.69,-2.91,8.92,0.6644444444444444,-0.22,-0.6644444444444444,-2.875,8.375,-78.1875
1589552746.9324524,-2.52,-2.94,9.15,0.6644444444444444,-0.22,-0.6644444444444444,0.75,0.5625,-86.5
1589552746.9460895,-2.46,-2.98,8.99,0.6644444444444444,-0.22,-0.6644444444444444,-5.25,12.25,-76.125
1589552746.9524474,-2.54,-3.07,8.91,0.6644444444444444,-0.22,-0.6644444444444444,-2.5,2.3125,-82.1875
1589552746.9633615,-2.23,-3.0,8.88,0.6644444444444444,-0.22,-0.6644444444444444,2.5,6.0625,-90.75
1589552746.9708884,-2.3,-3.1,9.18,1.0344444444444445,-0.4688888888888889,-0.6855555555555556,2.75,-2.3125,-89.625
1589552746.977627,-2.3,-3.1,9.18,1.0344444444444445,-0.4688888888888889,-0.6855555555555556,2.75,-2.3125,-89.625
1589552746.9863415,-2.4,-3.23,8.86,1.0344444444444445,-0.4688888888888889,-0.6855555555555556,3.125,5.1875,-90.75
1589552746.9924645,-2.42,-3.32,8.95,1.0344444444444445,-0.4688888888888889,-0.6855555555555556,4.0,-0.9375,-94.0625
1589552747.0021524,-2.51,-3.56,8.91,1.0344444444444445,-0.4688888888888889,-0.6855555555555556,-2.75,3.5625,-95.8125
1589552747.0138655,-2.41,-3.48,8.85,1.0344444444444445,-0.4688888888888889,-0.6855555555555556,-1.25,2.4375,-97.4375
1589552747.0249448,-2.31,-3.54,9.31,1.3244444444444443,-0.6888888888888889,-0.8755555555555555,1.5,4.1875,-83.5625
1589552747.0322206,-2.05,-3.4,8.66,1.3244444444444443,-0.6888888888888889,-0.8755555555555555,-5.25,-3.8125,-91.9375
1589552747.042722,-1.94,-3.23,8.26,1.3244444444444443,-0.6888888888888889,-0.8755555555555555,0.5,10.875,-94.6875
1589552747.0523145,-1.98,-3.25,9.22,1.3244444444444443,-0.6888888888888889,-0.8755555555555555,2.5,10.875,-83.5625
1589552747.0637825,-2.02,-3.34,8.66,1.3244444444444443,-0.6888888888888889,-0.8755555555555555,2.625,1.6875,-89.75
1589552747.0718396,-1.94,-3.44,9.04,0.7833333333333333,-0.2433333333333333,-0.7688888888888888,-7.3125,3.8125,-79.9375
1589552747.0839155,-1.98,-3.59,9.13,0.7833333333333333,-0.2433333333333333,-0.7688888888888888,2.75,-0.4375,-66.1875
1589552747.094817,-2.3,-4.02,8.96,0.7833333333333333,-0.2433333333333333,-0.7688888888888888,-2.25,5.8125,-65.4375
1589552747.1021981,-2.51,-4.34,9.53,0.7833333333333333,-0.2433333333333333,-0.7688888888888888,-0.25,5.3125,-73.625
1589552747.1181483,-2.0,-3.9,8.24,0.7833333333333333,-0.2433333333333333,-0.7688888888888888,-6.25,-7.875,-62.125
1589552747.1236956,-1.84,-3.86,9.69,0.6166666666666667,0.01888888888888889,-0.72,-5.125,-7.25,-66.6875
1589552747.1362414,-1.92,-3.84,9.37,0.6166666666666667,0.01888888888888889,-0.72,2.375,10.0,-64.5625
1589552747.1427078,-1.87,-3.75,8.51,0.6166666666666667,0.01888888888888889,-0.72,-3.625,6.8125,-58.0
1589552747.1529224,-1.83,-3.69,8.88,0.6166666666666667,0.01888888888888889,-0.72,-2.125,2.4375,-66.3125
1589552747.1642704,-1.93,-4.0,9.3,0.6166666666666667,0.01888888888888889,-0.72,2.5,2.4375,-58.625
1589552747.1748462,-1.79,-3.92,8.79,0.5755555555555556,0.12222222222222222,-0.7144444444444444,-8.1875,-5.3125,-56.25
1589552747.1828187,-1.74,-3.72,8.72,0.5755555555555556,0.12222222222222222,-0.7144444444444444,-5.125,2.3125,-56.625
1589552747.1942587,-1.53,-3.75,8.97,0.5755555555555556,0.12222222222222222,-0.7144444444444444,1.875,-1.6875,-51.8125
1589552747.2043154,-1.64,-3.88,8.83,0.5755555555555556,0.12222222222222222,-0.7144444444444444,-0.5,-2.3125,-59.5
1589552747.2163115,-1.71,-3.89,8.97,0.5755555555555556,0.12222222222222222,-0.7144444444444444,1.5,4.3125,-58.125
1589552747.223393,-1.65,-3.81,8.96,0.5866666666666667,0.19111111111111112,-0.7144444444444444,-4.75,1.3125,-56.375
1589552747.2361152,-1.71,-3.92,8.77,0.5866666666666667,0.19111111111111112,-0.7144444444444444,4.125,-2.0625,-56.375
1589552747.2441502,-1.63,-3.92,9.08,0.5866666666666667,0.19111111111111112,-0.7144444444444444,-5.75,2.1875,-42.5
1589552747.2547033,-1.54,-3.76,8.85,0.5866666666666667,0.19111111111111112,-0.7144444444444444,2.5,1.8125,-46.25
1589552747.2693465,-1.53,-3.79,8.85,0.5866666666666667,0.19111111111111112,-0.7144444444444444,2.75,5.6875,-38.8125
1589552747.2749455,-1.43,-3.75,9.02,0.5911111111111111,0.2533333333333333,-0.7411111111111112,4.375,3.8125,-44.375
1589552747.288588,-1.4,-3.84,8.89,0.5911111111111111,0.2533333333333333,-0.7411111111111112,-4.625,-1.3125,-31.375
1589552747.2949572,-1.36,-3.78,8.66,0.5911111111111111,0.2533333333333333,-0.7411111111111112,1.75,1.6875,-39.1875
1589552747.305242,-1.3,-3.74,9.02,0.5911111111111111,0.2533333333333333,-0.7411111111111112,2.625,-1.9375,-37.6875
1589552747.3160095,-1.26,-3.79,8.74,0.5911111111111111,0.2533333333333333,-0.7411111111111112,-6.0,0.3125,-25.3125
1589552747.3240793,-1.22,-3.84,9.15,0.5777777777777777,0.2488888888888889,-0.7766666666666666,2.375,2.4375,-33.625
1589552747.3343894,-1.27,-3.9,9.14,0.5777777777777777,0.2488888888888889,-0.7766666666666666,2.5,1.3125,-37.4375
1589552747.3452456,-0.96,-3.6,8.66,0.5777777777777777,0.2488888888888889,-0.7766666666666666,-1.5,1.6875,-36.1875
1589552747.354725,-0.98,-3.51,8.92,0.5777777777777777,0.2488888888888889,-0.7766666666666666,-3.375,-1.1875,-42.0
1589552747.366172,-1.05,-3.53,9.07,0.5777777777777777,0.2488888888888889,-0.7766666666666666,2.875,-0.4375,-20.25
1589552747.3727152,-1.01,-3.61,9.14,0.5422222222222223,0.23777777777777775,-0.7388888888888889,0.625,2.3125,-32.875
1589552747.3842325,-0.78,-3.33,9.23,0.5422222222222223,0.23777777777777775,-0.7388888888888889,2.75,5.6875,-24.3125
1589552747.3968005,-0.76,-3.45,8.79,0.5422222222222223,0.23777777777777775,-0.7388888888888889,-4.25,1.8125,-24.0625
1589552747.4069836,-0.54,-3.06,8.91,0.5422222222222223,0.23777777777777775,-0.7388888888888889,7.6875,-6.3125,-32.75
1589552747.420778,-9.64,-23.54,14.29,0.5422222222222223,0.23777777777777775,-0.7388888888888889,-30.125,-99.9375,-425.75
1589552747.42733,-12.47,-15.38,-2.63,0.5044444444444445,0.3022222222222222,-0.7055555555555556,-50.5625,11.5,-468.375
1589552747.439932,-0.19,-1.33,16.13,0.5044444444444445,0.3022222222222222,-0.7055555555555556,-27.5625,72.1875,-402.8125
1589552747.4464676,-0.98,-3.6,2.2,0.5044444444444445,0.3022222222222222,-0.7055555555555556,118.5,63.375,-345.8125
1589552747.4536436,-2.1,-2.16,6.61,0.5044444444444445,0.3022222222222222,-0.7055555555555556,19.25,70.4375,-288.0625
1589552747.4658186,-3.38,-1.18,6.62,0.5044444444444445,0.3022222222222222,-0.7055555555555556,-55.3125,-31.8125,-193.9375
1589552747.4786248,-1.84,-2.61,8.92,0.4666666666666667,0.3944444444444444,-0.7122222222222222,14.125,33.6875,-153.0625
1589552747.484979,-6.96,-26.71,7.52,0.4666666666666667,0.3944444444444444,-0.7122222222222222,12.0625,12.625,26.4375
1589552747.498064,1.72,1.32,6.21,0.4666666666666667,0.3944444444444444,-0.7122222222222222,-2.0,-19.9375,30.875
1589552747.5042045,2.18,0.56,9.33,0.4666666666666667,0.3944444444444444,-0.7122222222222222,-5.125,1.4375,16.0
1589552747.5180836,2.45,-1.12,10.28,0.4666666666666667,0.3944444444444444,-0.7122222222222222,-0.375,-3.0625,21.6875
1589552747.5233936,-0.79,-10.53,10.0,0.3711111111111111,0.4833333333333333,-0.6966666666666667,1.5,6.0625,70.75
1589552747.5335689,-0.79,-10.53,10.0,0.3711111111111111,0.4833333333333333,-0.6966666666666667,1.5,6.0625,70.75
1589552747.539718,0.98,-2.19,6.92,0.3711111111111111,0.4833333333333333,-0.6966666666666667,-2.625,-14.9375,46.625
1589552747.5462651,1.01,-2.86,9.73,0.3711111111111111,0.4833333333333333,-0.6966666666666667,4.5,6.0625,59.0
1589552747.5572972,0.2,-3.97,8.11,0.3711111111111111,0.4833333333333333,-0.6966666666666667,4.5,-0.4375,68.8125
1589552747.566436,0.34,-4.01,9.07,0.3711111111111111,0.4833333333333333,-0.6966666666666667,-0.625,-13.375,64.0625
1589552747.5796516,0.46,-4.2,8.95,0.4133333333333333,0.4777777777777778,-0.7266666666666667,-0.25,-7.375,59.875
1589552747.5916224,0.02,-4.18,8.97,0.4133333333333333,0.4777777777777778,-0.7266666666666667,5.25,0.0625,73.25
1589552747.598075,-0.16,-4.37,9.03,0.4133333333333333,0.4777777777777778,-0.7266666666666667,4.375,2.5625,79.0625
1589552747.6049087,-0.22,-4.76,8.91,0.4133333333333333,0.4777777777777778,-0.7266666666666667,-5.375,-19.4375,53.1875
1589552747.61631,7.85,-12.28,6.84,0.4133333333333333,0.4777777777777778,-0.7266666666666667,14.0,-5.8125,23.6875
1589552747.629272,-1.25,-0.22,10.67,0.4133333333333333,0.48,-0.7055555555555556,8.3125,9.75,13.8125
1589552747.63524,-0.63,-3.51,7.9,0.4133333333333333,0.48,-0.7055555555555556,-8.9375,2.1875,-2.75
1589552747.6488385,0.07,-3.95,9.11,0.4133333333333333,0.48,-0.7055555555555556,-3.625,-0.6875,7.9375
1589552747.6549096,0.02,-4.26,8.67,0.4133333333333333,0.48,-0.7055555555555556,-0.75,0.1875,5.375
1589552747.6671298,0.04,-4.25,8.88,0.4133333333333333,0.48,-0.7055555555555556,6.875,0.3125,-10.3125
1589552747.674143,0.07,-4.22,8.84,0.4511111111111111,0.44222222222222224,-0.6966666666666667,2.0,6.8125,-4.5
1589552747.6834624,0.07,-4.22,8.84,0.4511111111111111,0.44222222222222224,-0.6966666666666667,2.0,6.8125,-4.5
1589552747.6895108,0.11,-4.24,9.04,0.4511111111111111,0.44222222222222224,-0.6966666666666667,0.375,3.8125,0.5
1589552747.6959894,0.03,-4.18,8.78,0.4511111111111111,0.44222222222222224,-0.6966666666666667,5.75,2.4375,-5.75
1589552747.7059364,0.07,-4.26,8.74,0.4511111111111111,0.44222222222222224,-0.6966666666666667,-6.375,-1.5625,1.0
1589552747.7190714,0.12,-4.27,8.88,0.4511111111111111,0.44222222222222224,-0.6966666666666667,-1.5,-0.5625,0.5
1589552747.7281866,0.02,-4.22,8.84,0.4511111111111111,0.44222222222222224,-0.6977777777777778,0.375,-4.8125,-5.125
1589552747.736614,0.07,-4.2,8.91,0.4511111111111111,0.44222222222222224,-0.6977777777777778,-6.625,1.8125,-7.8125
1589552747.748502,0.07,-4.22,8.79,0.4511111111111111,0.44222222222222224,-0.6977777777777778,2.5,4.3125,5.75
1589552747.7560482,0.08,-4.21,8.82,0.4511111111111111,0.44222222222222224,-0.6977777777777778,-4.125,7.5,0.0
1589552747.7682033,0.09,-4.3,8.84,0.4511111111111111,0.44222222222222224,-0.6977777777777778,1.75,-1.6875,3.125
1589552747.7804995,0.06,-4.23,8.89,0.4577777777777778,0.4544444444444444,-0.6911111111111111,9.3125,5.5625,-8.1875
1589552747.7860625,0.08,-4.2,8.92,0.4577777777777778,0.4544444444444444,-0.6911111111111111,0.125,-6.6875,-5.25
1589552747.7991967,0.07,-4.24,8.79,0.4577777777777778,0.4544444444444444,-0.6911111111111111,-1.5,-5.4375,6.375
1589552747.8065698,0.06,-4.23,8.84,0.4577777777777778,0.4544444444444444,-0.6911111111111111,-3.875,-2.3125,2.125
1589552747.818544,0.1,-4.27,8.85,0.4577777777777778,0.4544444444444444,-0.6911111111111111,-0.625,-0.6875,3.5
1589552747.8262632,0.09,-4.26,8.89,0.4511111111111111,0.4622222222222222,-0.6977777777777778,1.75,2.3125,-5.25
1589552747.8370664,0.05,-4.21,8.91,0.4511111111111111,0.4622222222222222,-0.6977777777777778,2.0,-0.5625,-4.5
1589552747.8465767,0.06,-4.22,8.81,0.4511111111111111,0.4622222222222222,-0.6977777777777778,4.875,1.8125,-2.0
1589552747.8579276,0.09,-4.24,8.86,0.4511111111111111,0.4622222222222222,-0.6977777777777778,6.75,0.5625,-4.625
1589552747.869146,0.06,-4.28,8.84,0.4511111111111111,0.4622222222222222,-0.6977777777777778,-4.5,4.6875,-9.5625
1589552747.8802311,0.12,-4.28,8.85,0.4388888888888889,0.4477777777777778,-0.7122222222222222,-0.625,-7.875,-0.875
1589552747.8871784,0.05,-4.2,8.87,0.4388888888888889,0.4477777777777778,-0.7122222222222222,0.125,1.8125,3.875
1589552747.8973935,0.07,-4.21,8.81,0.4388888888888889,0.4477777777777778,-0.7122222222222222,0.875,1.5625,-8.0625
1589552747.9064643,0.09,-4.23,8.84,0.4388888888888889,0.4477777777777778,-0.7122222222222222,4.5,2.4375,3.125
1589552747.9191365,0.07,-4.25,8.86,0.4388888888888889,0.4477777777777778,-0.7122222222222222,-3.625,0.3125,-0.875
1589552747.9259934,0.09,-4.26,8.84,0.43333333333333335,0.44222222222222224,-0.7055555555555556,-1.375,3.1875,-0.25
1589552747.9367938,0.08,-4.24,8.89,0.43333333333333335,0.44222222222222224,-0.7055555555555556,-2.125,0.6875,3.625
1589552747.9513793,0.08,-4.21,8.8,0.43333333333333335,0.44222222222222224,-0.7055555555555556,-1.25,3.0625,-7.3125
1589552747.9572752,0.09,-4.22,8.86,0.43333333333333335,0.44222222222222224,-0.7055555555555556,-2.875,-1.9375,5.875
1589552747.9738045,0.06,-4.24,8.86,0.43333333333333335,0.44222222222222224,-0.7055555555555556,2.75,0.4375,-2.25
1589552747.9806426,0.09,-4.25,8.88,0.43333333333333335,0.4544444444444444,-0.7122222222222222,5.25,1.3125,-11.4375
1589552747.9910474,0.06,-4.24,8.84,0.43333333333333335,0.4544444444444444,-0.7122222222222222,0.25,-0.1875,5.625
1589552747.99735,0.08,-4.21,8.79,0.43333333333333335,0.4544444444444444,-0.7122222222222222,-3.375,4.5625,-1.625
1589552748.0084784,0.07,-4.19,8.84,0.43333333333333335,0.4544444444444444,-0.7122222222222222,6.125,3.3125,5.125
1589552748.01964,0.08,-4.22,8.85,0.43333333333333335,0.4544444444444444,-0.7122222222222222,2.75,5.0625,-7.9375
1589552748.0277286,0.08,-4.25,8.89,0.46,0.4477777777777778,-0.7055555555555556,1.0,0.9375,-6.875
1589552748.0375595,0.08,-4.27,8.87,0.46,0.4477777777777778,-0.7055555555555556,-2.5,2.5625,4.25
1589552748.0474484,0.09,-4.24,8.8,0.46,0.4477777777777778,-0.7055555555555556,2.75,-1.8125,3.25
1589552748.0578475,0.09,-4.2,8.85,0.46,0.4477777777777778,-0.7055555555555556,6.5,-3.8125,5.25
1589552748.0694,0.09,-4.24,8.85,0.46,0.4477777777777778,-0.7055555555555556,-0.125,11.125,-7.5625
1589552748.0774882,0.09,-4.25,8.87,0.4455555555555555,0.4477777777777778,-0.7055555555555556,3.375,3.3125,-1.5
1589552748.0886974,0.07,-4.25,8.89,0.4455555555555555,0.4477777777777778,-0.7055555555555556,2.25,-6.5625,2.125
1589552748.1024315,0.08,-4.23,8.8,0.4455555555555555,0.4477777777777778,-0.7055555555555556,8.5625,-0.3125,0.375
1589552748.1084538,0.05,-4.2,8.86,0.4455555555555555,0.4477777777777778,-0.7055555555555556,2.0,3.8125,-5.375
1589552748.1225488,0.08,-4.23,8.88,0.4455555555555555,0.4477777777777778,-0.7055555555555556,6.25,-5.8125,-7.5625
1589552748.128569,0.07,-4.25,8.87,0.4711111111111111,0.4544444444444444,-0.6911111111111111,-2.25,1.4375,5.625
1589552748.1377199,0.07,-4.24,8.83,0.4711111111111111,0.4544444444444444,-0.6911111111111111,2.5,2.8125,0.25
1589552748.1492605,0.08,-4.25,8.79,0.4711111111111111,0.4544444444444444,-0.6911111111111111,-0.5,0.6875,-1.75
1589552748.1620483,0.08,-4.21,8.82,0.4711111111111111,0.4544444444444444,-0.6911111111111111,-4.5,-4.8125,4.375
1589552748.1704226,0.08,-4.23,8.88,0.4711111111111111,0.4544444444444444,-0.6911111111111111,1.75,8.0,-2.25
1589552748.182417,0.07,-4.23,8.88,0.4533333333333333,0.4477777777777778,-0.7055555555555556,-2.125,3.4375,-2.5
1589552748.1883235,0.08,-4.25,8.88,0.4533333333333333,0.4477777777777778,-0.7055555555555556,2.0,3.9375,2.125
1589552748.201557,0.06,-4.22,8.78,0.4533333333333333,0.4477777777777778,-0.7055555555555556,-1.0,5.3125,-1.0
1589552748.2085366,0.08,-4.22,8.86,0.4533333333333333,0.4477777777777778,-0.7055555555555556,-3.0,1.0625,10.5625
1589552748.2205613,0.06,-4.21,8.91,0.4533333333333333,0.4477777777777778,-0.7055555555555556,1.375,-6.0625,-1.75
1589552748.2279744,0.08,-4.24,8.89,0.4533333333333333,0.44222222222222224,-0.7266666666666667,5.125,3.4375,-3.375
1589552748.2382445,0.09,-4.25,8.8,0.4533333333333333,0.44222222222222224,-0.7266666666666667,-2.375,3.3125,3.25
