time,acc_x,acc_y,acc_z,mag_x,mag_y,mag_z,gyr_x,gyr_y,gyr_z
1589551390.8254693,-0.11,-4.17,8.81,0.4844444444444445,0.23555555555555555,-0.6677777777777778,-0.5,-0.6875,-0.1875
1589551390.8367321,-0.1,-4.16,8.8,0.4844444444444445,0.23555555555555555,-0.6677777777777778,-0.125,-0.25,-0.25
1589551390.8489742,-0.1,-4.18,8.83,0.4844444444444445,0.23555555555555555,-0.6677777777777778,-0.375,-0.4375,-0.1875
1589551390.8570814,-0.11,-4.16,8.84,0.4844444444444445,0.2433333333333333,-0.64,-0.25,-0.3125,-0.375
1589551390.8694258,-0.09,-4.16,8.76,0.4844444444444445,0.2433333333333333,-0.64,-0.25,-0.375,-0.5
1589551390.876499,-0.09,-4.12,8.69,0.4844444444444445,0.2433333333333333,-0.64,0.0625,-0.125,-0.6875
1589551390.888959,-0.11,-4.08,8.71,0.4844444444444445,0.2433333333333333,-0.64,0.0625,-0.3125,-1.0625
1589551390.9029572,-0.07,-4.07,8.79,0.4844444444444445,0.2433333333333333,-0.64,0.125,-0.0625,-1.375
1589551390.9090106,-0.1,-4.18,8.81,0.4655555555555556,0.25,-0.6322222222222222,0.3125,0.25,-1.8125
1589551390.9188876,-0.1,-4.23,8.8,0.4655555555555556,0.25,-0.6322222222222222,0.0625,0.125,-2.0
1589551390.9263096,-0.08,-4.26,8.74,0.4655555555555556,0.25,-0.6322222222222222,0.25,0.4375,-2.0625
1589551390.941011,-0.09,-4.21,8.83,0.4655555555555556,0.25,-0.6322222222222222,0.0625,0.4375,-1.75
1589551390.9495919,-0.09,-4.21,8.85,0.4655555555555556,0.25,-0.6322222222222222,0.0625,0.1875,-1.5
1589551390.9610732,-0.09,-4.21,8.84,0.4977777777777778,0.25,-0.6322222222222222,-0.0625,0.0625,-1.0
1589551390.9672532,-0.08,-4.21,8.86,0.4977777777777778,0.25,-0.6322222222222222,0.125,0.0625,-0.9375
1589551390.9773836,-0.08,-4.18,8.7,0.4977777777777778,0.25,-0.6322222222222222,0.125,0.125,-0.6875
1589551390.9872446,-0.09,-4.21,8.72,0.4977777777777778,0.25,-0.6322222222222222,0.0625,0.0625,-0.5
1589551390.9993865,-0.08,-4.19,8.76,0.4977777777777778,0.25,-0.6322222222222222,0.1875,0.375,-0.5
1589551391.0067198,-0.07,-4.18,8.79,0.4977777777777778,0.2433333333333333,-0.6466666666666666,0.3125,0.4375,-0.375
1589551391.0170212,-0.1,-4.15,8.77,0.4977777777777778,0.2433333333333333,-0.6466666666666666,-0.0625,0.125,-0.375
1589551391.0269632,-0.06,-4.12,8.72,0.4977777777777778,0.2433333333333333,-0.6466666666666666,0.0,0.0,-0.4375
1589551391.0387616,-0.05,-4.1,8.78,0.4977777777777778,0.2433333333333333,-0.6466666666666666,0.0625,0.375,-0.75
1589551391.0548284,-0.05,-4.13,8.82,0.4977777777777778,0.2433333333333333,-0.6466666666666666,0.0625,0.1875,-0.9375
1589551391.0609908,-0.05,-4.15,8.89,0.4777777777777778,0.25,-0.6611111111111111,-0.1875,-0.125,-1.0625
1589551391.0721009,-0.07,-4.17,8.86,0.4777777777777778,0.25,-0.6611111111111111,-0.1875,-0.0625,-1.1875
1589551391.078174,-0.06,-4.16,8.72,0.4777777777777778,0.25,-0.6611111111111111,-0.1875,-0.1875,-1.25
1589551391.0917509,-0.04,-4.11,8.76,0.4777777777777778,0.25,-0.6611111111111111,-0.125,0.0,-1.125
1589551391.0997622,-0.01,-4.08,8.78,0.4777777777777778,0.25,-0.6611111111111111,-0.3125,-0.0625,-1.3125
1589551391.1117964,-0.01,-4.06,8.81,0.4844444444444445,0.25555555555555554,-0.64,-0.375,-0.3125,-1.4375
1589551391.1175015,-0.03,-4.11,8.77,0.4844444444444445,0.25555555555555554,-0.64,-0.3125,-0.3125,-1.6875
1589551391.1307847,-0.03,-4.12,8.69,0.4844444444444445,0.25555555555555554,-0.64,-0.25,0.0625,-1.875
1589551391.1372838,-0.05,-4.17,8.74,0.4844444444444445,0.25555555555555554,-0.64,0.0,0.0,-1.75
1589551391.1510992,-0.06,-4.16,8.78,0.4844444444444445,0.25555555555555554,-0.64,-0.0625,0.0,-2.0
1589551391.1572769,-0.11,-4.24,8.82,0.4977777777777778,0.25555555555555554,-0.64,0.0625,0.0625,-2.125
1589551391.1677432,-0.13,-4.25,8.78,0.4977777777777778,0.25555555555555554,-0.64,-0.3125,-0.0625,-2.1875
1589551391.1776273,-0.09,-4.2,8.7,0.4977777777777778,0.25555555555555554,-0.64,-0.375,-0.5,-2.375
1589551391.1876438,-0.08,-4.23,8.79,0.4977777777777778,0.25555555555555554,-0.64,-0.375,-0.5625,-2.625
1589551391.205502,-0.1,-4.27,8.78,0.4977777777777778,0.25555555555555554,-0.64,-0.375,-0.5625,-2.6875
1589551391.211689,-0.11,-4.24,8.81,0.4777777777777778,0.25555555555555554,-0.6255555555555555,-0.4375,-0.5,-2.8125
1589551391.219916,-0.07,-4.24,8.82,0.4777777777777778,0.25555555555555554,-0.6255555555555555,-0.5,-0.375,-2.875
1589551391.2291312,-0.06,-4.22,8.72,0.4777777777777778,0.25555555555555554,-0.6255555555555555,-0.375,-0.1875,-2.875
1589551391.2435136,-0.06,-4.23,8.69,0.4777777777777778,0.25555555555555554,-0.6255555555555555,-0.25,0.0,-2.625
1589551391.2501035,-0.05,-4.18,8.78,0.4777777777777778,0.25555555555555554,-0.6255555555555555,-0.125,0.0625,-2.5625
1589551391.2584937,-0.04,-4.18,8.82,0.4922222222222222,0.25555555555555554,-0.64,0.0,0.125,-2.5
1589551391.2697248,-0.01,-4.13,8.78,0.4922222222222222,0.25555555555555554,-0.64,0.125,0.0,-2.5
1589551391.278676,0.01,-4.16,8.72,0.4922222222222222,0.25555555555555554,-0.64,-0.0625,0.125,-2.75
1589551391.2888012,-0.02,-4.14,8.73,0.4922222222222222,0.25555555555555554,-0.64,0.0,0.0,-2.75
1589551391.3024356,0.01,-4.15,8.82,0.4922222222222222,0.25555555555555554,-0.64,-0.0625,0.0625,-3.0
1589551391.3080595,-0.02,-4.13,8.81,0.4777777777777778,0.27,-0.6466666666666666,0.0625,0.25,-3.25
1589551391.3214257,-0.03,-4.12,8.81,0.4777777777777778,0.27,-0.6466666666666666,-0.0625,0.0625,-3.5
1589551391.329249,0.0,-4.11,8.74,0.4777777777777778,0.27,-0.6466666666666666,0.125,0.25,-3.75
1589551391.3386981,0.0,-4.18,8.74,0.4777777777777778,0.27,-0.6466666666666666,0.0,0.125,-4.1875
1589551391.3519619,0.0,-4.18,8.79,0.4777777777777778,0.27,-0.6466666666666666,-0.25,-0.0625,-4.25
1589551391.3616593,-0.25,-4.05,8.66,0.4977777777777778,0.25,-0.6533333333333333,-0.3125,-0.4375,-4.0625
1589551391.3690214,-0.05,-4.23,8.62,0.4977777777777778,0.25,-0.6533333333333333,0.0,-0.0625,-4.0
1589551391.3812163,-0.07,-4.21,8.67,0.4977777777777778,0.25,-0.6533333333333333,0.0,0.125,-3.875
1589551391.3938687,0.08,-4.32,8.9,0.4977777777777778,0.25,-0.6533333333333333,-0.375,-0.5,-3.9375
1589551391.4009955,-0.04,-4.34,8.68,0.4977777777777778,0.25,-0.6533333333333333,0.1875,0.375,-3.75
1589551391.408875,0.01,-4.29,8.81,0.4777777777777778,0.25,-0.64,-0.375,-0.1875,-3.3125
1589551391.420242,-0.04,-4.21,8.78,0.4777777777777778,0.25,-0.64,-0.3125,-0.0625,-2.75
1589551391.4294002,-0.03,-4.15,8.72,0.4777777777777778,0.25,-0.64,-0.3125,-0.1875,-2.625
1589551391.4403446,0.0,-4.13,8.75,0.4777777777777778,0.25,-0.64,0.0,-0.0625,-2.75
1589551391.4511347,-0.01,-4.14,8.79,0.4777777777777778,0.25,-0.64,-0.25,-0.0625,-2.875
1589551391.4592555,0.0,-4.12,8.79,0.4977777777777778,0.25,-0.6466666666666666,-0.5,-0.3125,-3.0
1589551391.473782,0.0,-4.14,8.84,0.4977777777777778,0.25,-0.6466666666666666,-0.625,-0.3125,-2.875
1589551391.47996,0.01,-4.13,8.72,0.4977777777777778,0.25,-0.6466666666666666,-0.5,-0.3125,-2.4375
1589551391.4914384,0.0,-4.08,8.74,0.4977777777777778,0.25,-0.6466666666666666,-0.3125,0.125,-2.375
1589551391.5015993,0.01,-4.05,8.77,0.4977777777777778,0.25,-0.6466666666666666,-0.375,0.0,-1.75
1589551391.5125196,0.01,-4.02,8.77,0.4777777777777778,0.2766666666666667,-0.64,-0.1875,0.0625,-1.5625
1589551391.5194664,0.01,-4.06,8.76,0.4777777777777778,0.2766666666666667,-0.64,0.0625,0.125,-1.125
1589551391.529608,0.03,-4.03,8.66,0.4777777777777778,0.2766666666666667,-0.64,-0.4375,-0.1875,-1.3125
1589551391.540023,-0.01,-4.01,8.68,0.4777777777777778,0.2766666666666667,-0.64,-0.5,-0.4375,-1.8125
1589551391.5510752,-0.1,-3.72,8.79,0.4777777777777778,0.2766666666666667,-0.64,-1.1875,-1.0,-2.0
1589551391.5583682,-0.18,-3.1,8.85,0.4977777777777778,0.25555555555555554,-0.6533333333333333,-1.6875,-1.1875,-2.125
1589551391.5688393,-0.18,-3.1,8.85,0.4977777777777778,0.25555555555555554,-0.6533333333333333,-1.6875,-1.1875,-2.125
1589551391.5740275,-0.21,-2.62,8.98,0.4977777777777778,0.25555555555555554,-0.6533333333333333,-3.0625,-2.3125,-0.1875
1589551391.5807061,-0.19,-2.64,8.91,0.4977777777777778,0.25555555555555554,-0.6533333333333333,-2.75,-2.1875,3.0
1589551391.59297,-0.04,-2.71,8.86,0.4977777777777778,0.25555555555555554,-0.6533333333333333,-1.4375,-1.0,5.9375
1589551391.60254,0.0,-2.69,8.71,0.4977777777777778,0.25555555555555554,-0.6533333333333333,-0.5,-0.125,9.625
1589551391.6099331,0.01,-2.71,8.83,0.4922222222222222,0.25555555555555554,-0.6322222222222222,-0.75,-1.0625,15.8125
1589551391.6242325,-0.04,-2.83,8.66,0.4922222222222222,0.25555555555555554,-0.6322222222222222,0.0625,-1.0625,21.3125
1589551391.6309993,0.02,-2.87,8.76,0.4922222222222222,0.25555555555555554,-0.6322222222222222,0.375,-1.375,25.875
1589551391.6444116,0.04,-2.9,8.78,0.4922222222222222,0.25555555555555554,-0.6322222222222222,0.125,-1.75,29.75
1589551391.6528788,0.03,-2.91,8.81,0.4922222222222222,0.25555555555555554,-0.6322222222222222,0.1875,-1.4375,32.125
1589551391.660782,0.0,-3.0,8.87,0.4844444444444445,0.26222222222222225,-0.64,0.5,-1.625,33.625
1589551391.670823,0.04,-2.9,8.98,0.4844444444444445,0.26222222222222225,-0.64,0.4375,-1.5625,35.25
1589551391.6804461,0.02,-2.96,8.79,0.4844444444444445,0.26222222222222225,-0.64,0.375,-1.5625,36.3125
1589551391.6910715,0.06,-3.04,8.91,0.4844444444444445,0.26222222222222225,-0.64,0.1875,-1.75,36.75
1589551391.7027106,0.03,-2.9,8.73,0.4844444444444445,0.26222222222222225,-0.64,-0.125,-1.6875,36.8125
1589551391.7106836,0.07,-2.93,8.75,0.4777777777777778,0.2433333333333333,-0.6533333333333333,0.375,-1.6875,35.75
1589551391.720295,-0.04,-2.99,8.92,0.4777777777777778,0.2433333333333333,-0.6533333333333333,0.125,-2.25,34.25
1589551391.731369,0.0,-2.94,8.73,0.4777777777777778,0.2433333333333333,-0.6533333333333333,0.125,-1.875,33.6875
1589551391.7435114,-0.04,-2.96,8.66,0.4777777777777778,0.2433333333333333,-0.6533333333333333,0.1875,-1.6875,32.8125
1589551391.7538486,-0.01,-3.1,9.05,0.4777777777777778,0.2433333333333333,-0.6533333333333333,-0.125,-2.125,31.75
1589551391.7618904,0.0,-2.96,8.77,0.5111111111111111,0.2433333333333333,-0.6755555555555556,0.125,-1.0,30.5625
1589551391.7760718,-0.07,-3.02,9.19,0.5111111111111111,0.2433333333333333,-0.6755555555555556,0.0,-1.9375,29.125
1589551391.7820346,-0.06,-2.9,8.43,0.5111111111111111,0.2433333333333333,-0.6755555555555556,0.75,-0.5625,28.125
1589551391.795846,-0.04,-2.89,9.07,0.5111111111111111,0.2433333333333333,-0.6755555555555556,0.5,-1.5625,26.875
1589551391.8032193,-0.11,-2.98,8.78,0.5111111111111111,0.2433333333333333,-0.6755555555555556,0.3125,-0.6875,26.0625
1589551391.8115664,-0.21,-3.17,8.93,0.4977777777777778,0.22333333333333333,-0.6822222222222222,-0.25,-1.8125,25.4375
1589551391.8208845,-0.17,-3.03,8.68,0.4977777777777778,0.22333333333333333,-0.6822222222222222,-0.125,-1.625,25.0625
1589551391.8319495,-0.19,-3.18,9.0,0.4977777777777778,0.22333333333333333,-0.6822222222222222,0.375,-1.6875,25.25
1589551391.8413596,-0.21,-3.13,8.82,0.4977777777777778,0.22333333333333333,-0.6822222222222222,0.875,-0.625,25.5625
1589551391.8537116,-0.21,-3.15,8.85,0.4977777777777778,0.22333333333333333,-0.6822222222222222,0.25,-1.5,25.375
1589551391.860915,-0.2,-3.13,9.03,0.5111111111111111,0.2288888888888889,-0.6677777777777778,0.1875,-0.9375,25.6875
1589551391.8723009,-0.25,-3.32,9.29,0.5111111111111111,0.2288888888888889,-0.6677777777777778,0.75,-0.5625,25.625
1589551391.8820953,-0.33,-3.29,8.74,0.5111111111111111,0.2288888888888889,-0.6677777777777778,-1.125,-3.5,25.3125
1589551391.8920467,-0.32,-3.24,8.76,0.5111111111111111,0.2288888888888889,-0.6677777777777778,0.0,-0.9375,26.1875
1589551391.9030387,-0.37,-3.3,8.79,0.5111111111111111,0.2288888888888889,-0.6677777777777778,0.5625,-1.5625,27.0
1589551391.9110188,-0.36,-3.28,8.87,0.5311111111111111,0.22333333333333333,-0.6822222222222222,-0.1875,-1.875,28.0
1589551391.921406,-0.33,-3.23,8.82,0.5311111111111111,0.22333333333333333,-0.6822222222222222,0.0,-1.625,29.0625
1589551391.932992,-0.32,-3.28,8.68,0.5311111111111111,0.22333333333333333,-0.6822222222222222,0.3125,-1.375,29.5625
1589551391.9475276,-0.33,-3.33,8.91,0.5311111111111111,0.22333333333333333,-0.6822222222222222,0.0,-1.8125,29.6875
1589551391.9540565,-0.24,-3.13,8.82,0.5311111111111111,0.22333333333333333,-0.6822222222222222,0.9375,-1.0625,29.8125
1589551391.9629095,-0.3,-3.25,8.66,0.5288888888888889,0.2288888888888889,-0.6755555555555556,1.625,0.3125,29.5625
1589551391.9715087,-0.32,-3.28,9.02,0.5288888888888889,0.2288888888888889,-0.6755555555555556,0.0625,-1.5,28.5
1589551391.9824429,-0.45,-3.39,8.68,0.5288888888888889,0.2288888888888889,-0.6755555555555556,0.5625,-0.75,28.75
1589551391.9925456,-0.54,-3.5,8.89,0.5288888888888889,0.2288888888888889,-0.6755555555555556,0.5625,-1.0,30.875
1589551392.0043664,-0.37,-3.24,9.02,0.5288888888888889,0.2288888888888889,-0.6755555555555556,0.125,-1.4375,34.75
1589551392.0118823,-0.33,-3.11,8.57,0.5222222222222223,0.22333333333333333,-0.7111111111111111,0.875,-0.625,38.625
1589551392.0226395,-0.5,-3.55,9.05,0.5222222222222223,0.22333333333333333,-0.7111111111111111,-0.125,-3.0625,40.0
1589551392.0323005,-0.45,-3.4,8.47,0.5222222222222223,0.22333333333333333,-0.7111111111111111,-0.125,-2.6875,41.375
1589551392.0441735,-0.49,-3.48,8.86,0.5222222222222223,0.22333333333333333,-0.7111111111111111,-0.1875,-2.5,41.6875
1589551392.0546858,-0.47,-3.45,8.69,0.5222222222222223,0.22333333333333333,-0.7111111111111111,-0.125,-2.8125,41.3125
1589551392.066548,-0.45,-3.42,8.72,0.5222222222222223,0.20444444444444448,-0.7377777777777778,0.5,-1.4375,40.5625
1589551392.072776,-0.56,-3.55,8.98,0.5222222222222223,0.20444444444444448,-0.7377777777777778,-0.25,-2.625,39.25
1589551392.0844655,-0.66,-3.58,8.79,0.5222222222222223,0.20444444444444448,-0.7377777777777778,0.125,-2.125,38.5625
1589551392.0932846,-0.6,-3.39,8.77,0.5222222222222223,0.20444444444444448,-0.7377777777777778,0.375,-1.0625,38.875
1589551392.1045141,-0.56,-3.4,8.78,0.5222222222222223,0.20444444444444448,-0.7377777777777778,0.9375,-0.875,39.3125
1589551392.111967,-0.54,-3.35,8.89,0.5344444444444445,0.17,-0.7588888888888888,0.25,-1.8125,39.3125
1589551392.123204,-0.54,-3.31,8.84,0.5344444444444445,0.17,-0.7588888888888888,0.0,-1.8125,38.5
1589551392.1371582,-0.54,-3.26,8.61,0.5344444444444445,0.17,-0.7588888888888888,0.3125,-1.375,37.4375
1589551392.1430886,-0.59,-3.3,8.75,0.5344444444444445,0.17,-0.7588888888888888,-0.0625,-1.625,35.5
1589551392.1586506,-0.72,-3.44,8.96,0.5344444444444445,0.17,-0.7588888888888888,-0.625,-2.5,33.375
1589551392.1649199,-0.75,-3.42,8.92,0.5022222222222222,0.15777777777777774,-0.7733333333333333,-0.375,-1.1875,32.125
1589551392.1764367,-0.8,-3.52,8.92,0.5022222222222222,0.15777777777777774,-0.7733333333333333,0.0625,-0.8125,30.8125
1589551392.183358,-0.73,-3.36,8.55,0.5022222222222222,0.15777777777777774,-0.7733333333333333,0.875,0.25,29.25
1589551392.19319,-0.65,-3.24,8.74,0.5022222222222222,0.15777777777777774,-0.7733333333333333,0.0,-0.375,27.0
1589551392.2049224,-0.56,-3.09,8.9,0.5022222222222222,0.15777777777777774,-0.7733333333333333,-0.6875,-1.375,23.75
1589551392.2124815,-0.66,-3.16,9.02,0.5288888888888889,0.09777777777777777,-0.78,-0.625,-0.9375,20.125
1589551392.2223485,-0.67,-3.18,8.84,0.5288888888888889,0.09777777777777777,-0.78,-0.6875,0.5,17.25
1589551392.2342618,-0.68,-3.16,8.86,0.5288888888888889,0.09777777777777777,-0.78,-0.0625,1.125,14.1875
1589551392.243509,-0.71,-3.17,8.77,0.5288888888888889,0.09777777777777777,-0.78,-1.375,-0.4375,10.75
1589551392.255592,-0.71,-3.12,8.92,0.5288888888888889,0.09777777777777777,-0.78,-1.9375,0.3125,8.125
1589551392.2624125,-0.73,-3.05,8.99,0.5488888888888889,0.07111111111111111,-0.7677777777777778,-1.1875,0.8125,5.6875
1589551392.2772017,-0.62,-2.92,8.67,0.5488888888888889,0.07111111111111111,-0.7677777777777778,-0.4375,2.5,4.125
1589551392.289775,-0.57,-2.8,8.63,0.5488888888888889,0.07111111111111111,-0.7677777777777778,-1.75,1.0,2.625
1589551392.2963526,-0.66,-2.9,8.85,0.5488888888888889,0.07111111111111111,-0.7677777777777778,-2.375,-1.3125,0.6875
1589551392.3102071,-0.67,-2.98,8.76,0.5488888888888889,0.07111111111111111,-0.7677777777777778,-1.75,-0.75,-0.25
1589551392.316909,-0.63,-3.01,8.76,0.5422222222222223,0.05333333333333334,-0.7677777777777778,-1.25,0.75,-1.0
1589551392.3285663,-0.69,-3.05,8.88,0.5422222222222223,0.05333333333333334,-0.7677777777777778,-1.9375,0.125,-2.3125
1589551392.3346052,-0.73,-3.13,8.95,0.5422222222222223,0.05333333333333334,-0.7677777777777778,-2.0625,-0.5625,-4.0
1589551392.3476527,-0.73,-3.17,8.57,0.5422222222222223,0.05333333333333334,-0.7677777777777778,-1.0625,1.0625,-5.0625
1589551392.3574908,-0.76,-3.18,8.86,0.5422222222222223,0.05333333333333334,-0.7677777777777778,-0.3125,1.5625,-6.25
1589551392.3690348,-0.76,-3.13,8.74,0.5222222222222223,-0.03888888888888889,-0.7244444444444444,-1.9375,0.0,-7.9375
1589551392.376241,-0.67,-3.09,8.62,0.5222222222222223,-0.03888888888888889,-0.7244444444444444,-2.125,-0.875,-9.125
1589551392.3878582,-0.76,-3.23,8.55,0.5222222222222223,-0.03888888888888889,-0.7244444444444444,0.3125,1.3125,-9.75
1589551392.3944213,-0.72,-3.17,8.94,0.5222222222222223,-0.03888888888888889,-0.7244444444444444,-0.875,-0.125,-11.0625
1589551392.4064033,-0.99,-3.42,8.79,0.5222222222222223,-0.03888888888888889,-0.7244444444444444,-1.0,-0.25,-12.25
1589551392.4125745,-0.94,-3.5,8.89,0.52,-0.01888888888888889,-0.6733333333333333,-0.6875,0.125,-12.0625
1589551392.4234495,-0.94,-3.5,8.89,0.52,-0.01888888888888889,-0.6733333333333333,-0.6875,0.125,-12.0625
1589551392.4342911,-0.91,-3.37,8.41,0.52,-0.01888888888888889,-0.6733333333333333,0.0625,1.4375,-11.4375
1589551392.4454331,-0.96,-3.49,9.25,0.52,-0.01888888888888889,-0.6733333333333333,-1.4375,-1.375,-12.0
1589551392.4603102,-0.68,-3.11,8.05,0.52,-0.01888888888888889,-0.6733333333333333,-0.5,0.375,-10.625
1589551392.4660366,-0.81,-3.3,9.02,0.5255555555555556,0.05333333333333334,-0.6377777777777778,1.5625,2.6875,-9.8125
1589551392.4746034,-0.94,-3.5,9.29,0.5255555555555556,0.05333333333333334,-0.6377777777777778,-2.5,-3.125,-10.8125
1589551392.4864495,-0.78,-3.29,8.59,0.5255555555555556,0.05333333333333334,-0.6377777777777778,-0.4375,0.3125,-9.4375
1589551392.4957669,-0.93,-3.59,9.02,0.5255555555555556,0.05333333333333334,-0.6377777777777778,0.5,0.75,-8.125
1589551392.5058475,-0.75,-3.32,8.78,0.5255555555555556,0.05333333333333334,-0.6377777777777778,0.3125,0.8125,-7.4375
1589551392.518783,-0.86,-3.47,8.72,0.5222222222222223,0.08444444444444445,-0.6588888888888889,-0.125,-0.5,-7.625
1589551392.5252905,-0.88,-3.55,9.19,0.5222222222222223,0.08444444444444445,-0.6588888888888889,-0.4375,-1.0625,-7.75
1589551392.5356705,-0.98,-3.62,8.74,0.5222222222222223,0.08444444444444445,-0.6588888888888889,0.8125,1.1875,-7.25
1589551392.5447176,-0.86,-3.46,8.68,0.5222222222222223,0.08444444444444445,-0.6588888888888889,1.4375,0.75,-6.625
1589551392.5568936,-0.77,-3.49,8.78,0.5222222222222223,0.08444444444444445,-0.6588888888888889,0.125,0.0,-6.625
1589551392.5647938,-0.58,-3.18,8.68,0.5344444444444445,0.12555555555555556,-0.6444444444444445,-0.0625,-1.0,-7.6875
1589551392.576208,-0.68,-3.38,8.87,0.5344444444444445,0.12555555555555556,-0.6444444444444445,-0.6875,-2.5,-9.3125
1589551392.5879762,-0.73,-3.37,8.91,0.5344444444444445,0.12555555555555556,-0.6444444444444445,-0.375,-1.375,-10.0
1589551392.5955234,-0.93,-3.76,8.94,0.5344444444444445,0.12555555555555556,-0.6444444444444445,0.5,-1.375,-10.4375
1589551392.6112885,-0.97,-3.84,8.92,0.5344444444444445,0.12555555555555556,-0.6444444444444445,0.6875,-0.5625,-10.25
1589551392.6169946,-0.93,-3.72,9.06,0.5377777777777778,0.13777777777777778,-0.64,2.0625,1.4375,-9.3125
1589551392.6243398,-0.93,-3.77,9.01,0.5377777777777778,0.13777777777777778,-0.64,3.0625,3.6875,-8.4375
1589551392.635989,-0.77,-3.58,8.49,0.5377777777777778,0.13777777777777778,-0.64,-0.375,-1.3125,-9.625
1589551392.647701,-0.89,-3.65,9.51,0.5377777777777778,0.13777777777777778,-0.64,-1.375,-3.125,-10.3125
1589551392.6575384,-0.91,-3.64,8.84,0.5377777777777778,0.13777777777777778,-0.64,2.25,2.375,-8.25
1589551392.6690702,-0.71,-3.55,8.69,0.5522222222222222,0.16444444444444445,-0.62,0.625,-0.1875,-8.1875
1589551392.6759756,-0.93,-3.68,9.17,0.5522222222222222,0.16444444444444445,-0.62,-1.3125,-2.0625,-10.375
1589551392.6896868,-1.05,-3.84,8.8,0.5522222222222222,0.16444444444444445,-0.62,0.8125,0.625,-8.5625
1589551392.6958108,-0.97,-3.82,8.61,0.5522222222222222,0.16444444444444445,-0.62,1.0,-0.0625,-5.0625
1589551392.7076108,-0.76,-3.46,8.87,0.5522222222222222,0.16444444444444445,-0.62,-0.125,-1.125,-2.8125
1589551392.715475,-0.72,-3.49,8.82,0.5644444444444444,0.15555555555555556,-0.6677777777777778,0.25,-0.6875,-1.5
1589551392.7257426,-0.81,-3.53,8.95,0.5644444444444444,0.15555555555555556,-0.6677777777777778,-0.3125,-1.375,-1.375
1589551392.7357357,-0.94,-3.56,9.21,0.5644444444444444,0.15555555555555556,-0.6677777777777778,0.3125,-0.6875,0.0
1589551392.7458904,-0.94,-3.45,8.7,0.5644444444444444,0.15555555555555556,-0.6677777777777778,2.3125,2.0625,4.125
1589551392.7582958,-0.92,-3.42,8.71,0.5644444444444444,0.15555555555555556,-0.6677777777777778,1.3125,1.25,8.75
1589551392.768223,-0.87,-3.32,8.79,0.6111111111111112,0.13666666666666666,-0.6555555555555556,-0.375,-1.3125,13.25
1589551392.774852,-0.86,-3.33,8.9,0.6111111111111112,0.13666666666666666,-0.6555555555555556,0.875,-1.6875,18.125
1589551392.7897224,-0.71,-3.13,8.55,0.6111111111111112,0.13666666666666666,-0.6555555555555556,-1.125,-2.4375,22.1875
1589551392.7962582,-0.85,-3.26,9.06,0.6111111111111112,0.13666666666666666,-0.6555555555555556,-0.25,-2.4375,26.125
1589551392.8081474,-0.65,-3.06,8.72,0.6111111111111112,0.13666666666666666,-0.6555555555555556,1.5625,-0.9375,31.5
1589551392.8210428,-0.63,-3.34,8.95,0.75,0.03666666666666667,-0.6677777777777778,-0.25,-2.875,33.625
1589551392.8271186,-0.85,-3.47,8.93,0.75,0.03666666666666667,-0.6677777777777778,-0.25,-2.1875,32.375
1589551392.840823,-0.72,-3.39,8.88,0.75,0.03666666666666667,-0.6677777777777778,2.25,0.3125,31.1875
1589551392.84678,-0.42,-2.99,8.58,0.75,0.03666666666666667,-0.6677777777777778,0.3125,-0.6875,26.4375
1589551392.8605545,-0.51,-2.93,9.15,0.75,0.03666666666666667,-0.6677777777777778,-1.3125,-3.1875,19.9375
1589551392.8661375,-0.75,-3.22,9.03,1.3155555555555556,-0.2966666666666667,-0.4155555555555556,0.25,-0.375,15.75
1589551392.8768144,-0.85,-3.14,8.57,1.3155555555555556,-0.2966666666666667,-0.4155555555555556,-0.5625,-0.9375,14.125
1589551392.8860347,-0.91,-3.23,9.17,1.3155555555555556,-0.2966666666666667,-0.4155555555555556,0.625,-1.125,14.5625
1589551392.89572,-0.99,-3.22,8.48,1.3155555555555556,-0.2966666666666667,-0.4155555555555556,1.25,1.0,15.6875
1589551392.902992,-0.99,-3.22,8.48,1.3155555555555556,-0.2966666666666667,-0.4155555555555556,1.25,1.0,15.6875
1589551392.9111822,-1.02,-3.14,8.53,1.3155555555555556,-0.2966666666666667,-0.4155555555555556,-0.1875,-2.0625,18.5
1589551392.9215493,-1.07,-3.31,8.95,1.1911111111111108,0.027777777777777776,-0.6822222222222222,-0.6875,-2.75,24.25
1589551392.9340026,-0.94,-3.1,8.39,1.1911111111111108,0.027777777777777776,-0.6822222222222222,0.3125,-1.125,28.375
1589551392.9399624,-1.29,-3.54,9.29,1.1911111111111108,0.027777777777777776,-0.6822222222222222,-0.625,-3.5625,29.75
1589551392.9462438,-1.1,-3.17,8.94,1.1911111111111108,0.027777777777777776,-0.6822222222222222,1.6875,0.3125,33.8125
1589551392.9579859,-1.12,-3.18,9.15,1.1911111111111108,0.027777777777777776,-0.6822222222222222,-0.5625,-3.5625,36.9375
1589551392.968844,-1.02,-2.96,9.11,0.7211111111111111,0.12222222222222222,-0.7177777777777777,-0.125,-4.5625,40.6875
1589551392.9763713,-1.13,-3.24,8.75,0.7211111111111111,0.12222222222222222,-0.7177777777777777,1.1875,-1.75,45.5
1589551392.9916115,-1.06,-3.22,8.7,0.7211111111111111,0.12222222222222222,-0.7177777777777777,0.3125,-3.0,48.5625
1589551392.9978087,-1.13,-3.28,8.83,0.7211111111111111,0.12222222222222222,-0.7177777777777777,-0.0625,-3.1875,51.6875
1589551393.0139198,-1.02,-3.18,9.03,0.7211111111111111,0.12222222222222222,-0.7177777777777777,0.3125,-3.3125,54.375
1589551393.020932,-1.01,-3.22,8.77,0.6044444444444445,0.14222222222222222,-0.7377777777777778,0.8125,-2.6875,56.375
1589551393.028595,-0.97,-3.2,8.79,0.6044444444444445,0.14222222222222222,-0.7377777777777778,-0.0625,-3.4375,57.8125
1589551393.0373425,-1.0,-3.34,8.63,0.6044444444444445,0.14222222222222222,-0.7377777777777778,0.9375,-2.9375,58.875
1589551393.0517414,-0.9,-3.28,8.93,0.6044444444444445,0.14222222222222222,-0.7377777777777778,0.25,-4.0625,57.625
1589551393.0588276,-0.82,-3.19,8.76,0.6044444444444445,0.14222222222222222,-0.7377777777777778,1.1875,-1.75,55.75
1589551393.0673196,-0.69,-2.99,8.12,0.5955555555555555,0.12777777777777774,-0.7377777777777778,1.3125,-0.6875,53.25
1589551393.0766587,-0.74,-3.18,9.43,0.5955555555555555,0.12777777777777774,-0.7377777777777778,-1.0625,-5.8125,48.8125
1589551393.0878491,-0.84,-3.3,8.84,0.5955555555555555,0.12777777777777774,-0.7377777777777778,0.75,-2.6875,45.4375
1589551393.097682,-0.86,-3.53,8.95,0.5955555555555555,0.12777777777777774,-0.7377777777777778,0.3125,-2.75,40.875
1589551393.1097481,-0.83,-3.55,8.92,0.5955555555555555,0.12777777777777774,-0.7377777777777778,-0.25,-2.9375,35.9375
1589551393.1170304,-0.68,-3.42,8.7,0.5877777777777777,0.057777777777777775,-0.7533333333333333,0.3125,-2.25,30.875
1589551393.1273134,-0.61,-3.51,9.23,0.5877777777777777,0.057777777777777775,-0.7533333333333333,0.4375,-1.5625,24.875
1589551393.1430178,-0.59,-3.36,8.36,0.5877777777777777,0.057777777777777775,-0.7533333333333333,2.125,1.75,16.8125
1589551393.1496909,-0.61,-3.39,8.92,0.5877777777777777,0.057777777777777775,-0.7533333333333333,0.625,-0.125,6.125
1589551393.1591609,-4.32,-6.88,10.89,0.5877777777777777,0.057777777777777775,-0.7533333333333333,0.9375,1.625,-3.5
1589551393.1695762,2.23,1.78,-4.1,0.5733333333333334,0.054444444444444434,-0.7466666666666667,4.625,75.125,-3.0
1589551393.1792965,-1.13,3.57,4.3,0.5733333333333334,0.054444444444444434,-0.7466666666666667,-96.75,-56.375,-173.6875
1589551393.1879365,3.91,0.4,24.05,0.5733333333333334,0.054444444444444434,-0.7466666666666667,-48.875,-48.0625,-56.5625
1589551393.2014887,0.38,0.58,0.1,0.5733333333333334,0.054444444444444434,-0.7466666666666667,64.125,-26.8125,-52.0
1589551393.2097328,-0.16,3.11,9.75,0.5733333333333334,0.054444444444444434,-0.7466666666666667,85.0,56.875,-50.5
1589551393.2216818,-0.14,0.92,2.84,0.5733333333333334,0.10666666666666667,-0.7322222222222222,23.0,42.1875,-32.9375
1589551393.228423,2.98,-0.45,14.99,0.5733333333333334,0.10666666666666667,-0.7322222222222222,-41.625,-38.1875,-9.125
1589551393.239526,-0.51,-1.79,5.8,0.5733333333333334,0.10666666666666667,-0.7322222222222222,11.125,10.9375,-14.4375
1589551393.2478082,-1.08,-2.55,9.79,0.5733333333333334,0.10666666666666667,-0.7322222222222222,5.625,3.9375,-19.0
1589551393.2596436,-0.73,-2.53,9.67,0.5733333333333334,0.10666666666666667,-0.7322222222222222,-9.1875,-7.0625,-10.875
1589551393.2673516,-0.4,-2.11,8.51,0.5455555555555556,0.1111111111111111,-0.7244444444444444,2.125,1.75,-3.625
1589551393.2777,-0.86,-2.53,8.45,0.5455555555555556,0.1111111111111111,-0.7244444444444444,4.3125,2.125,-4.4375
1589551393.283494,-0.86,-2.53,8.45,0.5455555555555556,0.1111111111111111,-0.7244444444444444,4.3125,2.125,-4.4375
1589551393.2953026,-0.75,-2.18,8.22,0.5455555555555556,0.1111111111111111,-0.7244444444444444,-2.5,1.3125,-4.1875
1589551393.3019285,-1.0,-2.6,9.64,0.5455555555555556,0.1111111111111111,-0.7244444444444444,-2.75,-2.5625,-3.875
1589551393.3169696,-0.83,-2.28,8.63,0.5455555555555556,0.1111111111111111,-0.7244444444444444,3.625,2.875,0.0
1589551393.3229756,-0.93,-2.53,9.27,0.5455555555555556,0.09777777777777777,-0.7244444444444444,1.8125,-0.3125,1.375
1589551393.3341634,-0.89,-2.58,8.96,0.5455555555555556,0.09777777777777777,-0.7244444444444444,-1.25,-0.5625,2.8125
1589551393.3409648,-0.84,-2.57,8.82,0.5455555555555556,0.09777777777777777,-0.7244444444444444,-0.125,0.8125,5.0
1589551393.353226,-16.94,-29.87,8.53,0.5455555555555556,0.09777777777777777,-0.7244444444444444,-0.0625,-0.125,6.5625
1589551393.3605099,-0.77,-4.41,6.17,0.5455555555555556,0.09777777777777777,-0.7244444444444444,-2.0625,-7.0625,-6.4375
1589551393.368026,1.63,1.27,13.01,0.5455555555555556,0.11888888888888888,-0.7177777777777777,-3.875,-0.8125,-43.0625
1589551393.3791745,-0.22,-0.46,8.23,0.5455555555555556,0.11888888888888888,-0.7177777777777777,12.5625,12.625,-38.0625
1589551393.3891644,-0.82,-2.27,9.63,0.5455555555555556,0.11888888888888888,-0.7177777777777777,-5.3125,-0.375,-18.0625
1589551393.3985114,-0.65,-2.53,9.12,0.5455555555555556,0.11888888888888888,-0.7177777777777777,-5.1875,-3.1875,-4.625
1589551393.4104786,-3.97,-7.98,8.45,0.5455555555555556,0.11888888888888888,-0.7177777777777777,4.4375,3.5625,-1.3125
1589551393.4176981,-0.21,-1.85,9.25,0.5522222222222222,0.12444444444444445,-0.7244444444444444,-0.5,-1.5,-9.4375
1589551393.4325645,-1.33,-3.65,9.55,0.5522222222222222,0.12444444444444445,-0.7244444444444444,-0.4375,-2.3125,-13.375
1589551393.4386172,-1.71,-4.29,8.37,0.5522222222222222,0.12444444444444445,-0.7244444444444444,1.75,3.0625,-3.8125
1589551393.4485435,-1.71,-4.29,8.37,0.5522222222222222,0.12444444444444445,-0.7244444444444444,1.75,3.0625,-3.8125
1589551393.4542384,-1.54,-3.84,8.46,0.5522222222222222,0.12444444444444445,-0.7244444444444444,-1.875,0.75,-0.125
1589551393.4620945,-1.53,-3.81,8.69,0.5522222222222222,0.12444444444444445,-0.7244444444444444,-0.4375,-1.1875,-0.125
