time,acc_x,acc_y,acc_z,mag_x,mag_y,mag_z,gyr_x,gyr_y,gyr_z
1589551417.786989,-0.31,-4.04,8.78,0.5044444444444445,0.3,-0.65,-0.0625,-0.0625,1.0625
1589551417.795161,-0.24,-4.07,8.87,0.5044444444444445,0.29444444444444445,-0.65,-0.4375,-0.5,1.5
1589551417.8057446,-0.27,-4.17,8.9,0.5044444444444445,0.29444444444444445,-0.65,-0.4375,-0.5625,1.5625
1589551417.8151135,-0.26,-4.16,8.8,0.5044444444444445,0.29444444444444445,-0.65,-0.25,-0.25,1.4375
1589551417.8253314,-0.28,-4.18,8.79,0.5044444444444445,0.29444444444444445,-0.65,0.0625,0.0,1.5
1589551417.83936,-0.25,-4.15,8.87,0.5044444444444445,0.29444444444444445,-0.65,-0.125,-0.0625,1.4375
1589551417.849356,-0.28,-4.12,8.74,0.5111111111111111,0.30666666666666664,-0.6433333333333333,-0.125,-0.125,1.25
1589551417.8559012,-0.29,-4.14,8.76,0.5111111111111111,0.30666666666666664,-0.6433333333333333,-0.3125,-0.3125,1.1875
1589551417.8674462,-0.29,-4.16,8.64,0.5111111111111111,0.30666666666666664,-0.6433333333333333,-0.5625,-0.875,1.0625
1589551417.8816226,-0.39,-4.07,8.57,0.5111111111111111,0.30666666666666664,-0.6433333333333333,-0.75,-1.4375,1.0
1589551417.8887837,-0.18,-4.15,9.12,0.5111111111111111,0.30666666666666664,-0.6433333333333333,-1.375,-2.125,0.8125
1589551417.900285,-0.3,-4.12,8.79,0.4988888888888889,0.29444444444444445,-0.6588888888888889,-0.5625,-0.875,0.9375
1589551417.906766,-0.32,-4.16,8.76,0.4988888888888889,0.29444444444444445,-0.6588888888888889,-0.5,-0.5625,0.6875
1589551417.920162,-0.26,-4.22,8.82,0.4988888888888889,0.29444444444444445,-0.6588888888888889,-0.8125,-1.0,0.5
1589551417.9259884,-0.27,-4.23,8.8,0.4988888888888889,0.29444444444444445,-0.6588888888888889,0.0,-0.3125,0.375
1589551417.9406695,-0.28,-4.21,8.82,0.4988888888888889,0.29444444444444445,-0.6588888888888889,0.125,0.25,0.125
1589551417.9466126,-0.28,-4.14,8.82,0.5111111111111111,0.30666666666666664,-0.65,0.125,0.25,0.1875
1589551417.9566774,-0.27,-4.17,8.81,0.5111111111111111,0.30666666666666664,-0.65,0.125,-0.125,0.125
1589551417.9660275,-0.27,-4.15,8.72,0.5111111111111111,0.30666666666666664,-0.65,-0.0625,-0.25,0.0
1589551417.9767098,-0.27,-4.14,8.74,0.5111111111111111,0.30666666666666664,-0.65,0.0,0.0,0.0
1589551417.9895024,-0.31,-4.13,8.8,0.5111111111111111,0.30666666666666664,-0.65,0.1875,0.1875,0.0
1589551417.9967535,-0.32,-4.1,8.77,0.5044444444444445,0.3,-0.6288888888888889,0.0,0.0625,0.125
1589551418.0060685,-0.31,-4.11,8.82,0.5044444444444445,0.3,-0.6288888888888889,-0.25,-0.1875,0.125
1589551418.0172627,-0.29,-4.08,8.71,0.5044444444444445,0.3,-0.6288888888888889,-0.5,-0.5625,0.1875
1589551418.0260296,-0.24,-4.07,8.8,0.5044444444444445,0.3,-0.6288888888888889,-0.8125,-0.6875,0.0
1589551418.0389,-0.27,-4.08,8.85,0.5044444444444445,0.3,-0.6288888888888889,-0.875,-0.9375,-0.375
1589551418.046541,-0.26,-4.14,8.9,0.5111111111111111,0.2877777777777778,-0.6433333333333333,-0.625,-0.8125,-0.625
1589551418.0562904,-0.28,-4.16,8.79,0.5111111111111111,0.2877777777777778,-0.6433333333333333,-0.0625,-0.3125,-0.625
1589551418.0714054,-0.27,-4.16,8.73,0.5111111111111111,0.2877777777777778,-0.6433333333333333,-0.125,-0.3125,-0.5625
1589551418.0772767,-0.28,-4.17,8.73,0.5111111111111111,0.2877777777777778,-0.6433333333333333,-0.125,-0.125,-0.25
1589551418.0901768,-0.28,-4.18,8.78,0.5111111111111111,0.2877777777777778,-0.6433333333333333,0.0625,0.125,-0.1875
1589551418.097384,-0.25,-4.16,8.82,0.5188888888888888,0.30666666666666664,-0.65,0.0,0.3125,-0.125
1589551418.1065204,-0.27,-4.2,8.82,0.5188888888888888,0.30666666666666664,-0.65,0.3125,0.5,0.0625
1589551418.116763,-0.29,-4.17,8.69,0.5188888888888888,0.30666666666666664,-0.65,0.5,0.75,0.1875
1589551418.1267116,-0.29,-4.04,8.75,0.5188888888888888,0.30666666666666664,-0.65,0.125,0.5,0.1875
1589551418.1391025,-0.3,-4.01,8.78,0.5188888888888888,0.30666666666666664,-0.65,-0.25,-0.125,0.1875
1589551418.1468651,-0.29,-3.98,8.88,0.4988888888888889,0.2822222222222222,-0.6433333333333333,-1.0625,-1.375,-0.125
1589551418.1579287,-0.32,-3.85,8.92,0.4988888888888889,0.2822222222222222,-0.6433333333333333,-1.6875,-2.0,-0.625
1589551418.1694558,-0.27,-3.86,8.79,0.4988888888888889,0.2822222222222222,-0.6433333333333333,-1.4375,-1.75,-1.125
1589551418.177866,-0.32,-3.76,8.68,0.4988888888888889,0.2822222222222222,-0.6433333333333333,-0.6875,-0.3125,-1.625
1589551418.1898186,-0.29,-3.76,8.78,0.4988888888888889,0.2822222222222222,-0.6433333333333333,-0.8125,-0.8125,-1.9375
1589551418.1964686,-0.16,-3.31,8.74,0.5044444444444445,0.29444444444444445,-0.6355555555555555,-0.625,-0.625,-2.3125
1589551418.2066507,-0.19,-3.29,8.73,0.5044444444444445,0.29444444444444445,-0.6355555555555555,-0.375,0.25,-2.8125
1589551418.2168858,-0.18,-3.17,8.75,0.5044444444444445,0.29444444444444445,-0.6355555555555555,-0.875,-0.25,-4.3125
1589551418.2287529,-0.19,-2.87,8.76,0.5044444444444445,0.29444444444444445,-0.6355555555555555,-1.625,-0.625,-7.4375
1589551418.243221,-0.23,-2.47,9.03,0.5044444444444445,0.29444444444444445,-0.6355555555555555,-2.5,-1.125,-11.6875
1589551418.2487893,-0.31,-2.5,8.99,0.5188888888888888,0.30666666666666664,-0.65,-2.6875,-0.625,-15.75
1589551418.2570152,-0.28,-2.48,8.94,0.5188888888888888,0.30666666666666664,-0.65,-2.5625,-0.25,-17.8125
1589551418.2677984,-0.65,-2.76,9.07,0.5188888888888888,0.30666666666666664,-0.65,-2.8125,-0.5,-18.4375
1589551418.2819667,-0.44,-2.6,8.61,0.5188888888888888,0.30666666666666664,-0.65,-2.75,0.125,-13.3125
1589551418.290057,-0.31,-2.67,8.81,0.5188888888888888,0.30666666666666664,-0.65,-1.375,-0.25,2.6875
1589551418.30179,-0.18,-2.72,8.86,0.5044444444444445,0.3144444444444445,-0.65,0.3125,-1.0625,16.0
1589551418.308373,-0.12,-2.73,8.73,0.5044444444444445,0.3144444444444445,-0.65,0.375,-0.9375,24.5625
1589551418.3177602,-0.08,-2.82,8.83,0.5044444444444445,0.3144444444444445,-0.65,-0.25,-2.1875,30.0625
1589551418.3272846,-0.09,-2.76,8.89,0.5044444444444445,0.3144444444444445,-0.65,0.375,-2.0,34.5625
1589551418.3391573,-0.05,-2.84,8.83,0.5044444444444445,0.3144444444444445,-0.65,0.875,-1.0,37.6875
1589551418.3472009,0.01,-2.89,8.93,0.4922222222222222,0.30666666666666664,-0.6288888888888889,0.8125,-1.5625,38.9375
1589551418.3598301,0.03,-2.82,8.92,0.4922222222222222,0.30666666666666664,-0.6288888888888889,0.3125,-1.75,39.125
1589551418.3726132,0.01,-2.84,8.88,0.4922222222222222,0.30666666666666664,-0.6288888888888889,0.125,-1.8125,38.5
1589551418.3789663,-0.09,-3.02,8.82,0.4922222222222222,0.30666666666666664,-0.6288888888888889,0.125,-1.5,37.625
1589551418.3947515,-0.16,-3.09,8.88,0.4922222222222222,0.30666666666666664,-0.6288888888888889,-0.5,-2.6875,36.6875
1589551418.4003904,-0.19,-3.04,8.81,0.5111111111111111,0.30666666666666664,-0.6577777777777778,-0.4375,-2.4375,36.1875
1589551418.4083958,-0.19,-3.05,8.85,0.5111111111111111,0.30666666666666664,-0.6577777777777778,0.5625,-1.5625,36.375
1589551418.419108,-0.18,-3.05,8.61,0.5111111111111111,0.30666666666666664,-0.6577777777777778,1.0,-0.8125,36.5
1589551418.432908,-0.14,-2.99,8.79,0.5111111111111111,0.30666666666666664,-0.6577777777777778,0.6875,-0.9375,35.875
1589551418.4406822,-0.19,-3.1,9.05,0.5111111111111111,0.30666666666666664,-0.6577777777777778,0.1875,-2.0,34.875
1589551418.4536505,-0.22,-3.02,8.63,0.5511111111111111,0.2822222222222222,-0.65,0.75,-0.1875,34.0625
1589551418.4599965,-0.17,-3.02,9.0,0.5511111111111111,0.2822222222222222,-0.65,1.25,-0.125,33.4375
1589551418.4721055,-0.16,-3.01,8.99,0.5511111111111111,0.2822222222222222,-0.65,-0.375,-2.25,32.3125
1589551418.4795668,-0.29,-2.96,8.58,0.5511111111111111,0.2822222222222222,-0.65,0.375,-0.75,31.3125
1589551418.491327,-0.37,-3.14,9.12,0.5511111111111111,0.2822222222222222,-0.65,0.0625,-1.9375,30.375
1589551418.4990232,-0.36,-2.88,8.73,0.5255555555555556,0.2822222222222222,-0.6644444444444444,-0.4375,-2.25,29.9375
1589551418.508818,-0.32,-2.85,8.48,0.5255555555555556,0.2822222222222222,-0.6644444444444444,1.0625,-0.3125,30.9375
1589551418.5195663,-0.37,-2.99,8.87,0.5255555555555556,0.2822222222222222,-0.6644444444444444,-0.6875,-3.8125,31.0
1589551418.5295904,-0.39,-3.03,8.73,0.5255555555555556,0.2822222222222222,-0.6644444444444444,-0.8125,-3.125,31.625
1589551418.5459387,-0.35,-2.95,8.84,0.5255555555555556,0.2822222222222222,-0.6644444444444444,0.375,-2.0625,32.1875
1589551418.5518699,-0.32,-2.91,9.05,0.5433333333333333,0.27555555555555555,-0.6644444444444444,-0.25,-2.5625,32.4375
1589551418.55959,-0.47,-3.2,8.88,0.5433333333333333,0.27555555555555555,-0.6644444444444444,0.0,-1.4375,32.5625
1589551418.5703619,-0.45,-3.2,8.77,0.5433333333333333,0.27555555555555555,-0.6644444444444444,0.4375,-1.625,32.6875
1589551418.5844052,-0.47,-3.24,9.0,0.5433333333333333,0.27555555555555555,-0.6644444444444444,0.0625,-1.8125,33.0
1589551418.5903304,-0.58,-3.43,9.14,0.5433333333333333,0.27555555555555555,-0.6644444444444444,0.8125,-0.75,32.9375
1589551418.6038687,-0.48,-3.25,8.58,0.5511111111111111,0.2677777777777778,-0.6788888888888889,2.75,2.375,33.875
1589551418.61052,-0.43,-3.19,9.23,0.5511111111111111,0.2677777777777778,-0.6788888888888889,0.625,-1.375,33.5625
1589551418.6234179,-0.45,-3.13,8.58,0.5511111111111111,0.2677777777777778,-0.6788888888888889,0.25,-1.5,33.5
1589551418.629622,-0.45,-3.16,8.79,0.5511111111111111,0.2677777777777778,-0.6788888888888889,1.1875,-0.0625,33.6875
1589551418.6419349,-0.71,-3.37,8.72,0.5511111111111111,0.2677777777777778,-0.6788888888888889,0.6875,-1.125,33.6875
1589551418.649393,-0.61,-3.28,8.91,0.5311111111111111,0.26222222222222225,-0.7066666666666667,-0.1875,-1.9375,34.4375
1589551418.6599994,-0.63,-3.39,9.12,0.5311111111111111,0.26222222222222225,-0.7066666666666667,0.0,-2.5625,36.875
1589551418.6698794,-0.55,-3.11,8.38,0.5311111111111111,0.26222222222222225,-0.7066666666666667,0.625,-0.9375,38.9375
1589551418.68125,-0.63,-3.31,9.06,0.5311111111111111,0.26222222222222225,-0.7066666666666667,-0.125,-2.5625,40.125
1589551418.695863,-0.66,-3.35,9.07,0.5311111111111111,0.26222222222222225,-0.7066666666666667,-1.625,-5.0625,41.0625
1589551418.7025044,-0.66,-3.31,8.79,0.5688888888888889,0.2488888888888889,-0.7266666666666667,-0.3125,-2.5,42.6875
1589551418.7102337,-0.7,-3.38,8.8,0.5688888888888889,0.2488888888888889,-0.7266666666666667,0.625,-2.1875,43.375
1589551418.7205586,-0.81,-3.53,8.97,0.5688888888888889,0.2488888888888889,-0.7266666666666667,-0.6875,-3.375,43.25
1589551418.7306275,-0.79,-3.45,8.6,0.5688888888888889,0.2488888888888889,-0.7266666666666667,-0.625,-2.3125,43.3125
1589551418.7423987,-0.64,-3.15,8.93,0.5688888888888889,0.2488888888888889,-0.7266666666666667,0.25,-1.9375,43.8125
1589551418.754608,-0.74,-3.32,9.07,0.5422222222222223,0.2288888888888889,-0.76,-0.125,-2.9375,43.0
1589551418.7618961,-0.84,-3.45,8.85,0.5422222222222223,0.2288888888888889,-0.76,0.1875,-1.375,42.25
1589551418.7757394,-0.82,-3.43,8.6,0.5422222222222223,0.2288888888888889,-0.76,1.25,0.3125,41.75
1589551418.7817874,-0.98,-3.57,8.99,0.5422222222222223,0.2288888888888889,-0.76,0.375,-1.625,40.3125
1589551418.7926526,-0.94,-3.44,9.02,0.5422222222222223,0.2288888888888889,-0.76,-0.875,-3.0,38.625
1589551418.8007407,-0.88,-3.32,8.55,0.5288888888888889,0.2088888888888889,-0.7911111111111111,0.0,-0.875,38.3125
1589551418.812542,-0.94,-3.37,9.08,0.5288888888888889,0.2088888888888889,-0.7911111111111111,-0.5625,-2.125,37.1875
1589551418.821269,-0.95,-3.33,8.88,0.5288888888888889,0.2088888888888889,-0.7911111111111111,-1.875,-3.5,35.75
1589551418.8310652,-0.93,-3.29,8.68,0.5288888888888889,0.2088888888888889,-0.7911111111111111,-0.375,-0.6875,34.875
1589551418.8434153,-0.91,-3.24,8.46,0.5288888888888889,0.2088888888888889,-0.7911111111111111,1.125,0.9375,33.9375
1589551418.8549225,-1.05,-3.42,9.09,0.5488888888888889,0.14666666666666667,-0.7688888888888888,-0.5625,-0.5,29.125
1589551418.8607955,-1.04,-3.32,8.56,0.5488888888888889,0.14666666666666667,-0.7688888888888888,-0.5625,-0.5,29.125
1589551418.8706846,-0.97,-3.2,8.82,0.5488888888888889,0.14666666666666667,-0.7688888888888888,-0.625,-0.4375,23.0625
1589551418.8819456,-1.02,-3.19,8.7,0.5488888888888889,0.14666666666666667,-0.7688888888888888,-1.375,-0.3125,19.75
1589551418.8922331,-1.05,-3.25,9.02,0.5488888888888889,0.14666666666666667,-0.7688888888888888,-1.375,-0.875,17.5
1589551418.8998373,-1.15,-3.37,9.1,0.5488888888888889,0.09555555555555556,-0.7477777777777778,-0.5625,1.0625,15.5
1589551418.9110065,-1.25,-3.54,9.0,0.5488888888888889,0.09555555555555556,-0.7477777777777778,0.5,3.75,14.0625
1589551418.9254866,-1.04,-3.38,8.51,0.5488888888888889,0.09555555555555556,-0.7477777777777778,-0.625,1.875,10.6875
1589551418.9316454,-1.01,-3.22,8.63,0.5488888888888889,0.09555555555555556,-0.7477777777777778,-2.8125,-1.25,6.4375
1589551418.947166,-1.14,-3.41,9.07,0.5488888888888889,0.09555555555555556,-0.7477777777777778,-2.8125,-1.4375,2.875
1589551418.9532762,-1.21,-3.36,8.88,0.5511111111111111,0.08888888888888889,-0.7822222222222223,-1.8125,-0.4375,1.0625
1589551418.9646616,-1.29,-3.42,8.74,0.5511111111111111,0.08888888888888889,-0.7822222222222223,-2.0,-0.3125,-0.0625
1589551418.9711926,-1.34,-3.48,8.83,0.5511111111111111,0.08888888888888889,-0.7822222222222223,-1.9375,-0.3125,-0.125
1589551418.9854805,-1.36,-3.52,8.85,0.5511111111111111,0.08888888888888889,-0.7822222222222223,-0.6875,1.125,0.3125
1589551418.9935048,-1.37,-3.55,8.77,0.5511111111111111,0.08888888888888889,-0.7822222222222223,-0.4375,1.4375,0.9375
1589551419.0047088,-1.37,-3.49,8.68,0.5188888888888888,0.017777777777777778,-0.76,-1.5625,-0.5625,0.875
1589551419.011821,-1.47,-3.65,9.17,0.5188888888888888,0.017777777777777778,-0.76,-1.4375,-0.9375,1.5
1589551419.021799,-1.41,-3.57,8.76,0.5188888888888888,0.017777777777777778,-0.76,-0.4375,0.8125,2.8125
1589551419.0311482,-1.32,-3.51,8.86,0.5188888888888888,0.017777777777777778,-0.76,0.25,0.9375,3.5
1589551419.0427244,-1.32,-3.47,8.58,0.5188888888888888,0.017777777777777778,-0.76,0.125,1.0,3.4375
1589551419.0501015,-1.19,-3.37,8.61,0.5277777777777778,-0.0033333333333333327,-0.6766666666666666,-1.6875,-2.125,2.375
1589551419.0608814,-1.19,-3.37,8.61,0.5277777777777778,-0.0033333333333333327,-0.6766666666666666,-1.6875,-2.125,2.375
1589551419.071837,-1.37,-3.48,8.4,0.5277777777777778,-0.0033333333333333327,-0.6766666666666666,0.5,1.75,1.9375
1589551419.0833032,-1.29,-3.45,8.72,0.5277777777777778,-0.0033333333333333327,-0.6766666666666666,-0.5625,-1.0625,2.0625
1589551419.0981722,-1.42,-3.63,9.21,0.5277777777777778,-0.0033333333333333327,-0.6766666666666666,-0.125,0.25,2.375
1589551419.1041565,-1.32,-3.45,8.7,0.5466666666666666,0.054444444444444434,-0.6555555555555556,0.4375,0.3125,3.0
1589551419.1141493,-1.37,-3.58,9.26,0.5466666666666666,0.054444444444444434,-0.6555555555555556,-0.6875,-1.3125,2.75
1589551419.1207585,-1.32,-3.46,8.94,0.5466666666666666,0.054444444444444434,-0.6555555555555556,0.9375,2.1875,3.375
1589551419.1262355,-1.32,-3.46,8.94,0.5466666666666666,0.054444444444444434,-0.6555555555555556,0.9375,2.1875,3.375
1589551419.137106,-1.42,-3.6,8.98,0.5466666666666666,0.054444444444444434,-0.6555555555555556,0.0,-1.0625,2.75
1589551419.142849,-1.38,-3.55,9.21,0.5466666666666666,0.054444444444444434,-0.6555555555555556,-1.8125,-2.8125,2.3125
1589551419.1556222,-1.49,-3.56,8.57,0.5344444444444445,0.0811111111111111,-0.6411111111111111,0.25,-0.4375,3.5
1589551419.1622212,-1.47,-3.57,8.84,0.5344444444444445,0.0811111111111111,-0.6411111111111111,-0.5,-1.6875,4.5
1589551419.1722074,-1.49,-3.62,8.74,0.5344444444444445,0.0811111111111111,-0.6411111111111111,0.0,-0.375,5.8125
1589551419.1814926,-1.54,-3.67,8.59,0.5344444444444445,0.0811111111111111,-0.6411111111111111,1.0625,0.375,7.4375
1589551419.1942554,-1.49,-3.61,8.87,0.5344444444444445,0.0811111111111111,-0.6411111111111111,0.0625,-1.5,8.4375
1589551419.202621,-1.64,-3.8,9.12,0.5544444444444444,0.11555555555555555,-0.6355555555555555,-0.125,-1.125,10.25
1589551419.2145786,-1.57,-3.68,8.83,0.5544444444444444,0.11555555555555555,-0.6355555555555555,2.0625,1.5625,13.25
1589551419.2232072,-1.43,-3.52,8.47,0.5544444444444444,0.11555555555555555,-0.6355555555555555,2.125,0.6875,15.4375
1589551419.2358134,-1.42,-3.55,8.61,0.5544444444444444,0.11555555555555555,-0.6355555555555555,-0.5,-3.25,15.9375
1589551419.2506847,-1.62,-3.79,9.04,0.5544444444444444,0.11555555555555555,-0.6355555555555555,-0.9375,-3.0625,17.5
1589551419.256676,-1.72,-3.85,8.64,0.5544444444444444,0.12777777777777774,-0.6577777777777778,1.375,-0.6875,20.375
1589551419.266279,-1.81,-3.97,8.79,0.5544444444444444,0.12777777777777774,-0.6577777777777778,0.5625,-2.75,25.1875
1589551419.272549,-1.76,-3.96,8.9,0.5544444444444444,0.12777777777777774,-0.6577777777777778,0.0,-3.0,29.75
1589551419.2876544,-1.91,-3.77,9.04,0.5544444444444444,0.12777777777777774,-0.6577777777777778,-0.3125,-3.1875,32.6875
1589551419.293851,-2.16,-4.15,9.1,0.5544444444444444,0.12777777777777774,-0.6577777777777778,1.5,-1.625,37.4375
1589551419.3025436,-2.18,-4.1,8.66,0.5611111111111111,0.12777777777777774,-0.6622222222222223,3.1875,-0.0625,47.0625
1589551419.3132627,-1.34,-3.4,8.58,0.5611111111111111,0.12777777777777774,-0.6622222222222223,3.375,-0.1875,55.5625
1589551419.3258247,-1.1,-3.15,8.43,0.5611111111111111,0.12777777777777774,-0.6622222222222223,2.0,-1.25,55.6875
1589551419.3323536,-1.24,-3.13,8.55,0.5611111111111111,0.12777777777777774,-0.6622222222222223,-2.0625,-6.375,47.6875
1589551419.344891,-1.69,-3.45,9.5,0.5611111111111111,0.12777777777777774,-0.6622222222222223,-2.1875,-6.75,41.1875
1589551419.351757,-1.79,-3.35,8.74,0.5688888888888889,0.13444444444444445,-0.6766666666666666,1.75,-0.25,41.4375
1589551419.3579302,-1.79,-3.35,8.74,0.5688888888888889,0.13444444444444445,-0.6766666666666666,1.75,-0.25,41.4375
1589551419.3724635,-2.06,-3.58,8.89,0.5688888888888889,0.13444444444444445,-0.6766666666666666,-0.125,-3.0,46.3125
1589551419.3836567,-1.94,-3.48,8.83,0.5688888888888889,0.13444444444444445,-0.6766666666666666,0.6875,-2.0,50.6875
1589551419.394682,-2.03,-3.49,8.6,0.5688888888888889,0.13444444444444445,-0.6766666666666666,2.125,-1.5,54.8125
1589551419.406291,-2.06,-3.57,8.98,0.5666666666666667,0.10222222222222224,-0.6555555555555556,-0.3125,-4.0,58.0625
1589551419.41403,-2.09,-3.56,8.86,0.5666666666666667,0.10222222222222224,-0.6555555555555556,-0.6875,-4.6875,60.875
1589551419.4237952,-2.41,-3.8,8.77,0.5666666666666667,0.10222222222222224,-0.6555555555555556,0.5625,-4.125,66.9375
1589551419.4386506,-1.82,-3.46,8.82,0.5666666666666667,0.10222222222222224,-0.6555555555555556,0.5625,-3.8125,73.4375
1589551419.445715,-1.71,-3.29,8.97,0.5666666666666667,0.10222222222222224,-0.6555555555555556,0.0625,-4.625,74.0
1589551419.459559,-1.86,-3.2,9.13,0.5866666666666667,0.03666666666666667,-0.67,-0.25,-4.5,69.8125
1589551419.466045,-2.33,-3.63,8.99,0.5866666666666667,0.03666666666666667,-0.67,0.6875,-3.4375,67.8125
1589551419.476665,-2.13,-3.31,8.4,0.5866666666666667,0.03666666666666667,-0.67,3.0,-1.0625,74.125
1589551419.4831011,-1.74,-2.95,8.67,0.5866666666666667,0.03666666666666667,-0.67,-1.4375,-5.75,77.625
1589551419.4985096,-1.53,-2.84,8.76,0.5866666666666667,0.03666666666666667,-0.67,-1.125,-5.5625,73.4375
1589551419.5042186,-1.45,-2.62,8.94,0.6311111111111111,-0.054444444444444434,-0.6766666666666666,2.0625,-3.125,68.125
1589551419.5165155,-1.68,-2.65,9.28,0.6311111111111111,-0.054444444444444434,-0.6766666666666666,1.1875,-2.5,59.875
1589551419.5239651,-1.72,-2.64,8.51,0.6311111111111111,-0.054444444444444434,-0.6766666666666666,1.0,-0.1875,51.1875
1589551419.5341911,-2.02,-2.66,8.68,0.6311111111111111,-0.054444444444444434,-0.6766666666666666,1.6875,-1.5,44.25
1589551419.5458992,-1.96,-2.67,8.97,0.6311111111111111,-0.054444444444444434,-0.6766666666666666,-1.0625,-3.9375,39.125
1589551419.5565693,-1.98,-2.66,9.14,0.6855555555555556,-0.3233333333333333,-0.6,-1.375,-3.375,36.4375
1589551419.5645266,-1.88,-2.46,8.68,0.6855555555555556,-0.3233333333333333,-0.6,1.125,-0.6875,35.1875
1589551419.5749795,-1.81,-2.36,8.44,0.6855555555555556,-0.3233333333333333,-0.6,1.5625,0.125,34.3125
1589551419.5893798,-1.87,-2.42,9.22,0.6855555555555556,-0.3233333333333333,-0.6,-0.375,-3.25,33.875
1589551419.5971358,-2.01,-2.48,8.94,0.6855555555555556,-0.3233333333333333,-0.6,-0.625,-1.6875,34.5625
1589551419.604079,-2.13,-2.53,9.01,1.0,-0.8388888888888889,-0.057777777777777775,0.1875,-2.0625,36.9375
1589551419.6159625,-2.33,-2.64,9.0,1.0,-0.8388888888888889,-0.057777777777777775,0.25,-1.5625,40.25
1589551419.6237535,-2.53,-2.71,8.75,1.0,-0.8388888888888889,-0.057777777777777775,0.4375,-1.1875,44.6875
1589551419.6336336,-2.23,-2.57,8.6,1.0,-0.8388888888888889,-0.057777777777777775,0.1875,-1.8125,49.625
1589551419.650307,-2.44,-2.83,9.67,1.0,-0.8388888888888889,-0.057777777777777775,0.5625,-3.4375,52.9375
1589551419.6561544,-1.94,-2.51,8.93,1.28,-0.22,-0.5366666666666666,0.75,-1.0,55.6875
1589551419.6700342,-1.83,-2.38,7.85,1.28,-0.22,-0.5366666666666666,1.8125,-0.4375,54.625
1589551419.6768012,-2.02,-2.56,9.7,1.28,-0.22,-0.5366666666666666,-3.0,-8.5625,48.6875
1589551419.6882856,-2.05,-2.39,8.49,1.28,-0.22,-0.5366666666666666,-0.5,-1.9375,45.5
1589551419.6964073,-2.03,-2.43,8.66,1.28,-0.22,-0.5366666666666666,1.6875,-0.625,43.625
1589551419.7074218,-2.31,-2.73,9.36,0.7944444444444444,-0.09888888888888887,-0.7066666666666667,-0.125,-3.1875,41.8125
1589551419.7142727,-2.53,-2.86,9.61,0.7944444444444444,-0.09888888888888887,-0.7066666666666667,-0.25,-2.1875,41.375
1589551419.7248054,-2.01,-2.45,8.3,0.7944444444444444,-0.09888888888888887,-0.7066666666666667,2.1875,0.375,39.75
1589551419.734143,-1.71,-2.24,8.07,0.7944444444444444,-0.09888888888888887,-0.7066666666666667,0.6875,-1.6875,33.5625
1589551419.7494593,-1.91,-2.34,8.75,0.7944444444444444,-0.09888888888888887,-0.7066666666666667,-3.125,-5.3125,24.5625
1589551419.7563894,-1.64,-2.08,7.34,0.6588888888888889,-0.03,-0.7388888888888889,2.125,5.375,20.3125
1589551419.7682507,-2.24,-2.75,10.5,0.6588888888888889,-0.03,-0.7388888888888889,-0.5,-5.75,11.5625
1589551419.7755167,-2.24,-2.62,8.64,0.6588888888888889,-0.03,-0.7388888888888889,0.5,0.9375,4.6875
1589551419.7846649,-2.19,-2.75,9.5,0.6588888888888889,-0.03,-0.7388888888888889,-0.6875,-0.4375,-3.0625
1589551419.801653,-1.62,-2.42,8.97,0.6588888888888889,-0.03,-0.7388888888888889,-1.9375,-2.8125,-11.75
1589551419.8076222,-1.43,-2.31,8.58,0.6222222222222222,-0.03333333333333333,-0.7477777777777778,-0.375,0.3125,-20.5625
1589551419.8200893,-1.51,-2.52,8.61,0.6222222222222222,-0.03333333333333333,-0.7477777777777778,0.5,0.8125,-31.1875
1589551419.826757,-1.45,-2.51,8.48,0.6222222222222222,-0.03333333333333333,-0.7477777777777778,1.6875,4.875,-42.75
1589551419.8388786,-1.53,-2.67,9.18,0.6222222222222222,-0.03333333333333333,-0.7477777777777778,-1.4375,0.5625,-55.75
1589551419.8468947,-1.67,-2.75,9.05,0.6222222222222222,-0.03333333333333333,-0.7477777777777778,-2.1875,1.375,-67.25
1589551419.858364,-1.74,-2.87,8.7,0.6111111111111112,-0.022222222222222227,-0.7477777777777778,0.0625,4.1875,-77.0625
1589551419.865797,-2.0,-3.03,9.01,0.6111111111111112,-0.022222222222222227,-0.7477777777777778,0.4375,4.5625,-87.5625
1589551419.8792815,-2.0,-3.04,9.01,0.6111111111111112,-0.022222222222222227,-0.7477777777777778,-1.125,3.5625,-97.75
1589551419.8859234,-2.01,-3.07,9.2,0.6111111111111112,-0.022222222222222227,-0.7477777777777778,-0.5,5.0625,-105.5
1589551419.8980227,-2.07,-3.23,9.24,0.6111111111111112,-0.022222222222222227,-0.7477777777777778,-1.0,3.1875,-111.375
1589551419.9051747,-1.62,-3.0,8.49,0.6166666666666667,0.0,-0.7333333333333333,0.0625,6.4375,-114.6875
1589551419.9165998,-1.62,-3.16,8.79,0.6166666666666667,0.0,-0.7333333333333333,-0.5625,5.25,-119.875
1589551419.925941,-1.71,-3.32,9.14,0.6166666666666667,0.0,-0.7333333333333333,-1.6875,3.5,-126.125
1589551419.9355912,-1.43,-3.14,8.57,0.6166666666666667,0.0,-0.7333333333333333,0.3125,6.625,-129.5
1589551419.9475017,-1.45,-3.1,8.63,0.6166666666666667,0.0,-0.7333333333333333,0.375,7.875,-132.4375
1589551419.9575007,-8.64,-9.94,12.75,0.5811111111111111,0.057777777777777775,-0.7555555555555555,-1.375,3.5625,-136.6875
1589551419.9706836,3.76,4.16,-1.98,0.5811111111111111,0.057777777777777775,-0.7555555555555555,18.4375,76.0,-52.0
1589551419.976559,0.51,1.98,7.74,0.5811111111111111,0.057777777777777775,-0.7555555555555555,-48.6875,-6.625,-37.6875
1589551419.99072,0.29,-0.43,6.87,0.5811111111111111,0.057777777777777775,-0.7555555555555555,-7.0625,-40.6875,17.1875
1589551419.9977741,-0.28,2.09,1.4,0.5811111111111111,0.057777777777777775,-0.7555555555555555,31.0625,-44.375,18.5625
1589551420.0098693,0.13,0.58,5.77,0.59,0.14555555555555555,-0.7333333333333333,14.125,31.4375,18.625
1589551420.0165484,3.48,0.83,16.37,0.59,0.14555555555555555,-0.7333333333333333,-24.0625,-31.0,27.5625
1589551420.0265605,0.52,-0.19,6.68,0.59,0.14555555555555555,-0.7333333333333333,4.5,4.0625,18.8125
1589551420.0364275,-1.17,-2.26,10.86,0.59,0.14555555555555555,-0.7333333333333333,5.5,6.0625,0.6875
1589551420.0483427,-0.84,-2.08,8.71,0.59,0.14555555555555555,-0.7333333333333333,-8.5,-8.9375,-5.4375
1589551420.0553012,-0.87,-2.02,8.51,0.5722222222222222,0.12555555555555556,-0.7333333333333333,2.125,3.5625,-3.875
1589551420.0659833,-0.87,-2.02,8.51,0.5722222222222222,0.12555555555555556,-0.7333333333333333,2.125,3.5625,-3.875
1589551420.0711176,-0.89,-1.69,8.68,0.5722222222222222,0.12555555555555556,-0.7333333333333333,3.8125,0.3125,-5.75
1589551420.0782952,-1.07,-2.11,9.1,0.5722222222222222,0.12555555555555556,-0.7333333333333333,-2.4375,0.3125,-9.75
1589551420.0882833,-0.87,-2.2,8.7,0.5722222222222222,0.12555555555555556,-0.7333333333333333,-1.375,0.5625,-13.0625
1589551420.0989516,-1.0,-2.17,8.66,0.5722222222222222,0.12555555555555556,-0.7333333333333333,1.375,2.6875,-15.6875
1589551420.1078734,-7.1,-7.44,9.95,0.6,0.12777777777777774,-0.7388888888888889,1.0625,0.9375,-19.375
1589551420.117155,-14.16,-23.7,7.2,0.6,0.12777777777777774,-0.7388888888888889,1.9375,0.6875,-16.6875
1589551420.1285882,1.44,1.13,6.91,0.6,0.12777777777777774,-0.7388888888888889,-2.3125,-3.875,-15.0
1589551420.1375074,-1.48,-1.45,7.5,0.6,0.12777777777777774,-0.7388888888888889,-2.125,0.1875,-27.5625
1589551420.1484885,-1.45,-1.85,8.05,0.6,0.12777777777777774,-0.7388888888888889,6.125,10.5625,-18.6875
1589551420.1608665,-3.05,-4.18,10.26,0.5933333333333334,0.10666666666666667,-0.72,-3.8125,-3.3125,-6.375
1589551420.1670375,-4.11,-7.22,8.57,0.5933333333333334,0.10666666666666667,-0.72,-0.3125,-1.75,1.5
1589551420.180919,-1.56,-2.82,9.36,0.5933333333333334,0.10666666666666667,-0.72,1.8125,1.6875,0.875
1589551420.1878898,-2.15,-3.61,8.66,0.5933333333333334,0.10666666666666667,-0.72,-0.5,-1.875,-2.0
1589551420.1993842,-2.11,-3.57,8.67,0.5933333333333334,0.10666666666666667,-0.72,-1.125,1.3125,0.0625
1589551420.2066164,-2.03,-3.52,8.98,0.6177777777777778,0.13333333333333333,-0.7388888888888889,0.25,-0.375,0.125
1589551420.2168114,-2.02,-3.46,8.92,0.6177777777777778,0.13333333333333333,-0.7388888888888889,1.0625,-0.1875,0.0625
1589551420.2231493,-2.02,-3.46,8.92,0.6177777777777778,0.13333333333333333,-0.7388888888888889,1.0625,-0.1875,0.0625
1589551420.2296786,-2.02,-3.46,8.81,0.6177777777777778,0.13333333333333333,-0.7388888888888889,-0.125,0.125,0.0
1589551420.2402039,-2.04,-3.5,8.9,0.6177777777777778,0.13333333333333333,-0.7388888888888889,-0.4375,-0.1875,0.1875
1589551420.2501602,-2.02,-3.55,8.88,0.6177777777777778,0.13333333333333333,-0.7388888888888889,-0.5,0.3125,0.0625
1589551420.2601712,-2.03,-3.51,8.93,0.5933333333333334,0.13333333333333333,-0.7411111111111112,-0.0625,-0.4375,0.125
1589551420.2677705,-2.03,-3.44,8.92,0.5933333333333334,0.13333333333333333,-0.7411111111111112,0.75,0.0625,0.0625
1589551420.2795966,-2.01,-3.47,8.93,0.5933333333333334,0.13333333333333333,-0.7411111111111112,0.5,-0.25,0.0625
1589551420.2883525,-2.04,-3.5,8.84,0.5933333333333334,0.13333333333333333,-0.7411111111111112,-0.25,0.375,0.0
1589551420.3007338,-2.13,-3.45,8.63,0.5933333333333334,0.13333333333333333,-0.7411111111111112,-0.8125,0.375,0.0
1589551420.3083339,-1.96,-3.57,9.11,0.5933333333333334,0.14,-0.7266666666666667,-0.4375,-0.4375,-0.0625
1589551420.3182662,-2.03,-3.45,8.91,0.5933333333333334,0.14,-0.7266666666666667,0.25,-0.3125,-0.0625
1589551420.3323092,-2.0,-3.49,8.95,0.5933333333333334,0.14,-0.7266666666666667,0.25,-0.375,0.0
1589551420.3391244,-2.07,-3.49,8.79,0.5933333333333334,0.14,-0.7266666666666667,-0.1875,-0.1875,0.0
