time,acc_x,acc_y,acc_z,mag_x,mag_y,mag_z,gyr_x,gyr_y,gyr_z
1589551780.3299162,-0.08,-4.14,9.02,0.5011111111111111,0.2733333333333333,-0.6555555555555556,0.0,0.0,-0.1875
1589551780.3355162,-0.09,-4.14,9.08,0.48,0.2733333333333333,-0.6488888888888888,0.0,-0.0625,-0.1875
1589551780.3458786,-0.09,-4.13,9.06,0.48,0.2733333333333333,-0.6488888888888888,0.0625,0.0,-0.125
1589551780.3520505,-0.09,-4.12,8.93,0.48,0.2733333333333333,-0.6488888888888888,0.0625,-0.125,-0.0625
1589551780.3657546,-0.08,-4.14,9.01,0.48,0.2733333333333333,-0.6488888888888888,-0.0625,-0.1875,0.0
1589551780.3736231,-0.09,-4.11,9.02,0.48,0.2733333333333333,-0.6488888888888888,-0.0625,0.0,0.0
1589551780.3848028,-0.11,-4.12,9.02,0.48,0.28,-0.6411111111111111,-0.125,-0.125,0.0625
1589551780.3916118,-0.09,-4.13,9.03,0.48,0.28,-0.6411111111111111,0.0625,0.0,0.1875
1589551780.4051135,-0.08,-4.13,8.93,0.48,0.28,-0.6411111111111111,0.0,0.0,0.25
1589551780.4117262,-0.05,-4.16,9.01,0.48,0.28,-0.6411111111111111,0.125,-0.25,0.25
1589551780.4264436,-0.08,-4.15,9.03,0.48,0.28,-0.6411111111111111,0.0,-0.0625,0.125
1589551780.4329267,-0.07,-4.13,9.05,0.4866666666666667,0.2877777777777778,-0.6555555555555556,0.125,0.0,0.125
1589551780.4436994,-0.06,-4.14,9.06,0.4866666666666667,0.2877777777777778,-0.6555555555555556,-0.0625,0.0,0.0625
1589551780.4519892,-0.1,-4.15,8.97,0.4866666666666667,0.2877777777777778,-0.6555555555555556,-0.25,-0.125,0.0
1589551780.4615948,-0.1,-4.13,8.99,0.4866666666666667,0.2877777777777778,-0.6555555555555556,0.0,-0.25,-0.0625
1589551780.4754314,-0.07,-4.13,9.05,0.4866666666666667,0.2877777777777778,-0.6555555555555556,-0.0625,-0.25,-0.1875
1589551780.4868295,-0.07,-4.14,9.03,0.4933333333333334,0.2877777777777778,-0.6322222222222222,-0.125,0.0,-0.0625
1589551780.4957714,-0.07,-4.11,9.04,0.4933333333333334,0.2877777777777778,-0.6322222222222222,-0.1875,-0.0625,-0.125
1589551780.5049267,-0.07,-4.14,8.94,0.4933333333333334,0.2877777777777778,-0.6322222222222222,-0.25,-0.1875,-0.125
1589551780.5120769,-0.1,-4.12,8.96,0.4933333333333334,0.2877777777777778,-0.6322222222222222,-0.125,-0.1875,-0.125
1589551780.524436,-0.07,-4.15,9.03,0.4933333333333334,0.2877777777777778,-0.6322222222222222,-0.25,0.125,-0.1875
1589551780.5317366,-0.07,-4.13,9.06,0.4933333333333334,0.28,-0.6411111111111111,-0.25,0.0625,-0.1875
1589551780.5439925,-0.09,-4.15,9.01,0.4933333333333334,0.28,-0.6411111111111111,0.0,0.125,-0.0625
1589551780.5546114,-0.07,-4.12,8.97,0.4933333333333334,0.28,-0.6411111111111111,-0.0625,0.0625,0.0
1589551780.5620027,-0.07,-4.14,9.02,0.4933333333333334,0.28,-0.6411111111111111,-0.125,0.0625,-0.125
1589551780.575524,-0.08,-4.13,9.04,0.4933333333333334,0.28,-0.6411111111111111,-0.1875,0.0625,-0.125
1589551780.582484,-0.06,-4.13,9.03,0.5011111111111111,0.2733333333333333,-0.6555555555555556,-0.1875,-0.0625,-0.125
1589551780.592174,-0.08,-4.14,9.03,0.5011111111111111,0.2733333333333333,-0.6555555555555556,-0.25,0.0625,-0.0625
1589551780.6026173,-0.1,-4.15,8.92,0.5011111111111111,0.2733333333333333,-0.6555555555555556,-0.0625,0.25,-0.3125
1589551780.6148405,-0.1,-4.12,8.98,0.5011111111111111,0.2733333333333333,-0.6555555555555556,-0.0625,0.0625,-0.1875
1589551780.6251304,-0.1,-4.1,9.0,0.5011111111111111,0.2733333333333333,-0.6555555555555556,-0.0625,0.25,-0.1875
1589551780.6363196,-0.09,-4.13,9.0,0.4866666666666667,0.2877777777777778,-0.6411111111111111,-0.0625,0.1875,-0.1875
1589551780.643261,-0.09,-4.12,9.0,0.4866666666666667,0.2877777777777778,-0.6411111111111111,-0.3125,-0.125,-0.1875
1589551780.654423,0.05,-4.25,9.24,0.4866666666666667,0.2877777777777778,-0.6411111111111111,-1.0,-1.5,-0.25
1589551780.6630702,0.01,-4.21,9.29,0.4866666666666667,0.2877777777777778,-0.6411111111111111,-0.75,-1.375,-0.25
1589551780.6759205,-0.26,-4.04,8.63,0.4866666666666667,0.2877777777777778,-0.6411111111111111,1.1875,1.875,-0.125
1589551780.6824696,-0.05,-4.15,9.11,0.4933333333333334,0.2877777777777778,-0.6411111111111111,-0.6875,-1.0,-0.1875
1589551780.6918507,-0.11,-4.12,9.04,0.4933333333333334,0.2877777777777778,-0.6411111111111111,-0.25,-0.125,-0.3125
1589551780.697861,-0.11,-4.12,9.04,0.4933333333333334,0.2877777777777778,-0.6411111111111111,-0.25,-0.125,-0.3125
1589551780.7089758,-0.16,-4.09,8.79,0.4933333333333334,0.2877777777777778,-0.6411111111111111,0.5625,0.9375,-0.0625
1589551780.7156901,-0.07,-4.12,8.98,0.4933333333333334,0.2877777777777778,-0.6411111111111111,-0.375,-0.25,-0.25
1589551780.7294912,-0.09,-4.12,9.01,0.4933333333333334,0.2877777777777778,-0.6411111111111111,-0.25,-0.25,-0.0625
1589551780.7355444,-0.1,-4.13,8.97,0.4666666666666667,0.2733333333333333,-0.6411111111111111,0.0625,0.375,-0.125
1589551780.7480485,-0.05,-4.14,9.05,0.4666666666666667,0.2733333333333333,-0.6411111111111111,-0.1875,-0.3125,-0.0625
1589551780.7548368,-0.08,-4.14,8.97,0.4666666666666667,0.2733333333333333,-0.6411111111111111,-0.125,-0.25,-0.0625
1589551780.7635586,-0.12,-4.14,8.98,0.4666666666666667,0.2733333333333333,-0.6411111111111111,0.0,0.0,-0.125
1589551780.775605,-0.09,-4.15,9.03,0.4666666666666667,0.2733333333333333,-0.6411111111111111,-0.25,-0.25,-0.25
1589551780.7857022,-0.08,-4.14,9.07,0.4933333333333334,0.2877777777777778,-0.6266666666666667,-0.0625,-0.125,-0.125
1589551780.7929273,-0.07,-4.13,8.98,0.4933333333333334,0.2877777777777778,-0.6266666666666667,-0.125,-0.0625,-0.125
1589551780.803043,-0.06,-4.14,8.95,0.4933333333333334,0.2877777777777778,-0.6266666666666667,-0.25,-0.4375,-0.125
1589551780.8137374,-0.08,-4.14,8.97,0.4933333333333334,0.2877777777777778,-0.6266666666666667,-0.25,-0.125,-0.125
1589551780.8261778,-0.1,-4.11,9.02,0.4933333333333334,0.2877777777777778,-0.6266666666666667,-0.1875,-0.125,-0.1875
1589551780.833804,-0.12,-4.13,9.02,0.4666666666666667,0.2733333333333333,-0.6266666666666667,-0.25,0.0625,-0.1875
1589551780.8440268,-0.07,-4.13,9.03,0.4666666666666667,0.2733333333333333,-0.6266666666666667,-0.375,-0.1875,-0.25
1589551780.8599124,-0.08,-4.12,8.93,0.4666666666666667,0.2733333333333333,-0.6266666666666667,-0.3125,-0.1875,-0.1875
1589551780.8665485,-0.06,-4.13,8.99,0.4666666666666667,0.2733333333333333,-0.6266666666666667,-0.1875,-0.3125,-0.1875
1589551780.8811305,-0.09,-4.14,9.03,0.4666666666666667,0.2733333333333333,-0.6266666666666667,-0.25,-0.25,-0.375
1589551780.8873188,-0.1,-4.14,9.05,0.5011111111111111,0.28,-0.6622222222222223,-0.125,-0.1875,-0.25
1589551780.8939614,-0.1,-4.12,9.06,0.5011111111111111,0.28,-0.6622222222222223,-0.125,-0.25,-0.125
1589551780.905726,-0.07,-4.13,8.94,0.5011111111111111,0.28,-0.6622222222222223,-0.125,-0.125,-0.25
1589551780.915408,-0.07,-4.15,8.99,0.5011111111111111,0.28,-0.6622222222222223,-0.125,-0.125,-0.25
1589551780.9267194,-0.09,-4.14,9.02,0.5011111111111111,0.28,-0.6622222222222223,-0.125,-0.1875,-0.1875
1589551780.9378912,-0.07,-4.13,9.04,0.4744444444444445,0.26666666666666666,-0.6488888888888888,-0.25,-0.125,-0.0625
1589551780.9444625,-0.09,-4.15,9.01,0.4744444444444445,0.26666666666666666,-0.6488888888888888,-0.25,0.0,-0.0625
1589551780.9585454,-0.09,-4.15,8.92,0.4744444444444445,0.26666666666666666,-0.6488888888888888,-0.125,-0.1875,0.125
1589551780.9649556,-0.09,-4.14,8.94,0.4744444444444445,0.26666666666666666,-0.6488888888888888,-0.125,-0.0625,0.0625
1589551780.976622,-0.08,-4.14,9.03,0.4744444444444445,0.26666666666666666,-0.6488888888888888,-0.1875,-0.0625,0.25
1589551780.983889,-0.09,-4.13,9.0,0.4866666666666667,0.26666666666666666,-0.6344444444444445,0.1875,0.0,0.1875
1589551780.9940672,-0.07,-4.14,9.03,0.4866666666666667,0.26666666666666666,-0.6344444444444445,0.0,0.0,0.125
1589551781.0046284,-0.06,-4.15,8.93,0.4866666666666667,0.26666666666666666,-0.6344444444444445,0.0625,-0.0625,0.0625
1589551781.0142086,-0.08,-4.12,8.97,0.4866666666666667,0.26666666666666666,-0.6344444444444445,0.125,0.3125,0.0
1589551781.0312347,-0.1,-4.15,9.04,0.4866666666666667,0.26666666666666666,-0.6344444444444445,-0.0625,0.0625,-0.0625
1589551781.0375,-0.06,-4.12,9.05,0.4933333333333334,0.26666666666666666,-0.62,-0.0625,-0.125,-0.125
1589551781.0503953,-0.09,-4.13,8.99,0.4933333333333334,0.26666666666666666,-0.62,0.0,-0.0625,-0.125
1589551781.0571172,-0.08,-4.16,8.93,0.4933333333333334,0.26666666666666666,-0.62,-0.0625,0.0,-0.1875
1589551781.0665267,-0.07,-4.13,8.97,0.4933333333333334,0.26666666666666666,-0.62,0.0,0.0,-0.1875
1589551781.0774643,-0.11,-4.14,9.0,0.4933333333333334,0.26666666666666666,-0.62,-0.0625,-0.125,-0.0625
1589551781.0877616,-0.07,-4.14,9.04,0.4933333333333334,0.26666666666666666,-0.6266666666666667,-0.1875,0.0,-0.25
1589551781.0942948,-0.09,-4.12,9.02,0.4933333333333334,0.26666666666666666,-0.6266666666666667,-0.1875,-0.0625,-0.25
1589551781.109387,-0.08,-4.15,8.91,0.4933333333333334,0.26666666666666666,-0.6266666666666667,-0.1875,-0.125,-0.0625
1589551781.1162221,-0.09,-4.13,8.94,0.4933333333333334,0.26666666666666666,-0.6266666666666667,-0.3125,-0.1875,-0.0625
1589551781.1283953,-0.05,-4.18,9.15,0.4933333333333334,0.26666666666666666,-0.6266666666666667,-0.5,-0.625,-0.125
1589551781.1349125,0.0,-4.18,9.29,0.5011111111111111,0.28,-0.6488888888888888,-1.125,-1.6875,0.0
1589551781.1454287,-0.2,-4.09,8.77,0.5011111111111111,0.28,-0.6488888888888888,0.4375,1.1875,0.25
1589551781.1558294,-0.02,-4.16,9.01,0.5011111111111111,0.28,-0.6488888888888888,-0.4375,-0.4375,0.375
1589551781.1660638,-0.06,-4.14,9.0,0.5011111111111111,0.28,-0.6488888888888888,-0.25,-0.1875,0.5625
1589551781.1806052,-0.09,-4.13,8.94,0.5011111111111111,0.28,-0.6488888888888888,0.0625,0.25,0.3125
1589551781.1866972,-0.09,-4.13,9.06,0.48,0.28,-0.6488888888888888,-0.3125,-0.125,0.0
1589551781.1959186,-0.07,-4.14,8.98,0.48,0.28,-0.6488888888888888,-0.1875,-0.25,-0.125
1589551781.2078025,-0.08,-4.15,8.92,0.48,0.28,-0.6488888888888888,-0.1875,-0.25,0.125
1589551781.2155216,-0.07,-4.1,8.93,0.48,0.28,-0.6488888888888888,-0.1875,-0.4375,-0.0625
1589551781.228456,0.08,-4.22,9.34,0.48,0.28,-0.6488888888888888,-0.625,-1.0,0.125
1589551781.239972,-0.14,-4.09,8.84,0.48,0.28,-0.6133333333333333,-0.375,-0.6875,0.5625
1589551781.246148,-0.11,-4.13,8.97,0.48,0.28,-0.6133333333333333,0.3125,0.625,0.5
1589551781.2597814,-0.02,-4.19,9.09,0.48,0.28,-0.6133333333333333,-0.5,-0.5,0.3125
1589551781.2665086,-0.09,-4.12,8.94,0.48,0.28,-0.6133333333333333,-0.0625,0.0,0.3125
1589551781.2797995,-0.08,-4.13,9.04,0.48,0.28,-0.6133333333333333,0.125,0.125,0.125
1589551781.286053,-0.06,-4.15,9.07,0.48,0.2933333333333333,-0.6344444444444445,-0.375,-0.3125,0.1875
1589551781.299604,-0.08,-4.15,8.98,0.48,0.2933333333333333,-0.6344444444444445,-0.1875,-0.3125,0.0
1589551781.305902,-0.07,-4.14,8.92,0.48,0.2933333333333333,-0.6344444444444445,-0.125,0.0,0.0
1589551781.3189232,-0.09,-4.16,8.99,0.48,0.2933333333333333,-0.6344444444444445,-0.0625,-0.25,0.0
1589551781.3322005,-0.08,-4.13,8.96,0.48,0.2933333333333333,-0.6344444444444445,0.0625,-0.25,0.0625
1589551781.3396974,-0.08,-4.15,9.03,0.4866666666666667,0.2877777777777778,-0.6411111111111111,-0.0625,0.0,0.125
1589551781.3463128,-0.1,-4.15,9.02,0.4866666666666667,0.2877777777777778,-0.6411111111111111,-0.0625,0.0625,0.0
1589551781.3581386,-0.11,-4.14,8.94,0.4866666666666667,0.2877777777777778,-0.6411111111111111,-0.1875,-0.0625,0.0
1589551781.3662019,-0.16,-4.13,8.94,0.4866666666666667,0.2877777777777778,-0.6411111111111111,-0.25,-0.25,0.125
1589551781.3791618,-0.08,-4.12,9.04,0.4866666666666667,0.2877777777777778,-0.6411111111111111,-0.5,-0.5625,0.4375
1589551781.3923225,-0.11,-4.13,8.99,0.4744444444444445,0.2877777777777778,-0.62,0.0,-0.0625,0.625
1589551781.3983016,-0.09,-4.15,9.08,0.4744444444444445,0.2877777777777778,-0.62,-0.25,-0.4375,0.5625
1589551781.4115055,-0.11,-4.11,8.91,0.4744444444444445,0.2877777777777778,-0.62,-0.25,-0.5625,0.75
1589551781.4180956,-0.12,-4.11,8.97,0.4744444444444445,0.2877777777777778,-0.62,-0.1875,-0.3125,0.9375
1589551781.4333832,-0.11,-4.1,9.01,0.4744444444444445,0.2877777777777778,-0.62,-0.4375,-0.5,1.1875
1589551781.4393072,-0.13,-4.09,9.04,0.48,0.28,-0.6344444444444445,-0.4375,-0.1875,1.5
1589551781.447796,-0.51,-3.81,8.96,0.48,0.28,-0.6344444444444445,-0.5,-0.0625,1.875
1589551781.4576786,-0.24,-4.11,9.25,0.48,0.28,-0.6344444444444445,-1.1875,-1.625,2.9375
1589551781.4677534,-0.35,-3.93,8.78,0.48,0.28,-0.6344444444444445,-0.5625,-0.625,5.625
1589551781.483409,-0.28,-3.92,9.16,0.48,0.28,-0.6344444444444445,-0.625,-0.5,7.9375
1589551781.4894214,-0.3,-3.91,9.0,0.4666666666666667,0.2733333333333333,-0.6411111111111111,-0.9375,-1.5,9.8125
1589551781.497296,-0.23,-3.86,9.06,0.4666666666666667,0.2733333333333333,-0.6411111111111111,-0.5,-0.8125,11.3125
1589551781.5085785,-0.21,-3.91,8.91,0.4666666666666667,0.2733333333333333,-0.6411111111111111,-0.1875,-0.875,12.625
1589551781.5181706,-0.16,-4.11,9.0,0.4666666666666667,0.2733333333333333,-0.6411111111111111,-0.25,-1.0625,13.0
1589551781.5299704,-0.14,-4.24,8.99,0.4666666666666667,0.2733333333333333,-0.6411111111111111,-0.4375,-1.0,12.8125
1589551781.5434294,-0.13,-4.18,9.05,0.4933333333333334,0.26666666666666666,-0.6411111111111111,-0.3125,-1.0,13.0
1589551781.549677,-0.09,-4.09,9.04,0.4933333333333334,0.26666666666666666,-0.6411111111111111,-0.375,-1.125,12.6875
1589551781.563357,-0.1,-4.01,8.95,0.4933333333333334,0.26666666666666666,-0.6411111111111111,-0.4375,-0.6875,11.9375
1589551781.5702634,-0.09,-3.92,8.98,0.4933333333333334,0.26666666666666666,-0.6411111111111111,-0.6875,-0.875,11.4375
1589551781.5839849,-0.11,-3.85,9.03,0.4933333333333334,0.26666666666666666,-0.6411111111111111,-1.0,-0.9375,11.125
1589551781.5896986,-0.17,-3.64,9.04,0.4866666666666667,0.2733333333333333,-0.6322222222222222,-1.625,-1.25,10.8125
1589551781.6012206,-0.16,-3.55,9.0,0.4866666666666667,0.2733333333333333,-0.6322222222222222,-1.6875,-1.1875,10.375
1589551781.607632,-0.2,-2.72,9.1,0.4866666666666667,0.2733333333333333,-0.6322222222222222,-2.125,-1.8125,9.4375
1589551781.618011,-0.28,-2.35,9.02,0.4866666666666667,0.2733333333333333,-0.6322222222222222,-3.0625,-1.8125,11.5
1589551781.629831,-0.32,-2.61,9.14,0.4866666666666667,0.2733333333333333,-0.6322222222222222,-1.8125,-1.5625,20.75
1589551781.641374,-0.31,-2.62,8.93,0.4933333333333334,0.2733333333333333,-0.6266666666666667,1.0,-1.0625,30.0625
1589551781.6473784,-0.28,-2.63,9.08,0.4933333333333334,0.2733333333333333,-0.6266666666666667,0.375,-1.25,37.5
1589551781.6588914,-0.22,-2.76,8.92,0.4933333333333334,0.2733333333333333,-0.6266666666666667,-0.1875,-2.4375,43.0
1589551781.6684525,-0.23,-2.81,9.06,0.4933333333333334,0.2733333333333333,-0.6266666666666667,0.6875,-1.75,47.3125
1589551781.6815574,-0.19,-2.79,9.06,0.4933333333333334,0.2733333333333333,-0.6266666666666667,0.3125,-2.3125,50.5
1589551781.6891284,-0.18,-2.81,9.09,0.4866666666666667,0.26666666666666666,-0.6411111111111111,-0.25,-3.0,53.125
1589551781.70039,-0.16,-2.81,9.11,0.4866666666666667,0.26666666666666666,-0.6411111111111111,-0.25,-3.0,53.125
1589551781.7141926,-0.15,-2.79,8.82,0.4866666666666667,0.26666666666666666,-0.6411111111111111,0.3125,-2.3125,53.6875
1589551781.7208107,-0.16,-2.83,9.15,0.4866666666666667,0.26666666666666666,-0.6411111111111111,-0.5625,-3.25,52.75
1589551781.7359324,-0.18,-2.77,9.03,0.4866666666666667,0.26666666666666666,-0.6411111111111111,-0.0625,-2.375,52.4375
1589551781.7420776,-0.21,-2.75,9.05,0.5133333333333333,0.2466666666666667,-0.6555555555555556,0.0,-2.375,52.0
1589551781.753602,-0.28,-2.8,9.1,0.5133333333333333,0.2466666666666667,-0.6555555555555556,0.875,-2.25,51.4375
1589551781.7596009,-0.27,-2.76,9.02,0.5133333333333333,0.2466666666666667,-0.6555555555555556,1.5,-1.375,51.125
1589551781.7733295,-0.31,-2.78,9.09,0.5133333333333333,0.2466666666666667,-0.6555555555555556,1.125,-1.6875,50.1875
1589551781.7821276,-0.37,-2.79,9.09,0.5133333333333333,0.2466666666666667,-0.6555555555555556,0.1875,-1.8125,49.3125
1589551781.7928398,-0.33,-2.8,9.02,0.5133333333333333,0.22666666666666666,-0.6488888888888888,0.125,-2.4375,48.1875
1589551781.7981706,-0.31,-2.81,9.21,0.5133333333333333,0.22666666666666666,-0.6488888888888888,-0.1875,-2.625,46.5
1589551781.8114278,-0.33,-2.77,8.97,0.5133333333333333,0.22666666666666666,-0.6488888888888888,0.3125,-1.6875,45.0625
1589551781.819288,-0.37,-2.82,8.94,0.5133333333333333,0.22666666666666666,-0.6488888888888888,0.25,-2.375,42.4375
1589551781.8325179,-0.33,-2.79,9.2,0.5133333333333333,0.22666666666666666,-0.6488888888888888,-0.25,-2.4375,39.625
1589551781.8385253,-0.41,-2.9,9.05,0.52,0.2222222222222222,-0.6555555555555556,0.125,-1.75,36.9375
1589551781.8497396,-0.41,-2.96,9.2,0.52,0.2222222222222222,-0.6555555555555556,0.5,-1.1875,34.25
1589551781.8603766,-0.47,-2.91,8.73,0.52,0.2222222222222222,-0.6555555555555556,0.5,-0.6875,32.125
1589551781.8721528,-0.5,-2.97,8.98,0.52,0.2222222222222222,-0.6555555555555556,0.0,-1.9375,30.125
1589551781.887175,-0.55,-2.98,9.03,0.52,0.2222222222222222,-0.6555555555555556,0.125,-1.1875,28.625
1589551781.8930233,-0.62,-3.08,9.17,0.5377777777777778,0.18777777777777774,-0.6766666666666666,0.5,-0.9375,27.4375
1589551781.8997686,-0.62,-3.06,9.08,0.5377777777777778,0.18777777777777774,-0.6766666666666666,0.25,-1.25,26.5
1589551781.9101946,-0.61,-3.05,9.13,0.5377777777777778,0.18777777777777774,-0.6766666666666666,-0.4375,-1.9375,25.25
1589551781.9240775,-0.59,-3.02,9.12,0.5377777777777778,0.18777777777777774,-0.6766666666666666,-0.1875,-1.8125,24.0
1589551781.9331224,-0.58,-3.01,9.02,0.5377777777777778,0.18777777777777774,-0.6766666666666666,0.0625,-1.125,22.75
1589551781.943445,-0.65,-3.1,9.04,0.5577777777777778,0.20222222222222225,-0.6677777777777778,-0.4375,-1.9375,21.25
1589551781.948968,-0.66,-3.05,9.05,0.5577777777777778,0.20222222222222225,-0.6677777777777778,-0.5625,-1.9375,20.5
1589551781.96217,-0.74,-3.13,9.05,0.5577777777777778,0.20222222222222225,-0.6677777777777778,0.0625,-1.125,20.0
1589551781.9702654,-0.78,-3.18,8.88,0.5577777777777778,0.20222222222222225,-0.6677777777777778,0.1875,-1.25,19.6875
1589551781.9832404,-0.64,-3.02,9.11,0.5577777777777778,0.20222222222222225,-0.6677777777777778,0.1875,-0.875,19.0
1589551781.9893928,-0.64,-3.03,8.88,0.5433333333333333,0.1811111111111111,-0.6977777777777778,0.875,-0.125,17.875
1589551782.0001488,-0.7,-3.18,9.3,0.5433333333333333,0.1811111111111111,-0.6977777777777778,-0.3125,-1.6875,15.8125
1589551782.0108328,-0.73,-3.17,9.07,0.5433333333333333,0.1811111111111111,-0.6977777777777778,0.0,-0.125,14.5625
1589551782.02041,-0.75,-3.16,9.24,0.5433333333333333,0.1811111111111111,-0.6977777777777778,0.25,-0.9375,13.3125
1589551782.0361795,-0.72,-3.12,8.97,0.5433333333333333,0.1811111111111111,-0.6977777777777778,-0.375,-0.75,12.0
1589551782.0432534,-0.75,-3.18,9.16,0.5433333333333333,0.18777777777777774,-0.7033333333333334,-0.4375,-1.1875,10.5625
1589551782.0499725,-0.75,-3.19,9.22,0.5433333333333333,0.18777777777777774,-0.7033333333333334,-0.0625,-0.375,9.25
1589551782.060324,-0.78,-3.2,9.07,0.5433333333333333,0.18777777777777774,-0.7033333333333334,0.0,-0.4375,8.5
1589551782.073087,-0.78,-3.13,9.03,0.5433333333333333,0.18777777777777774,-0.7033333333333334,-0.0625,-0.3125,7.6875
1589551782.0824132,-0.79,-3.17,8.99,0.5433333333333333,0.18777777777777774,-0.7033333333333334,0.1875,0.125,6.875
1589551782.0955696,-0.79,-3.23,9.1,0.5433333333333333,0.17555555555555555,-0.7388888888888889,-0.125,0.0625,5.8125
1589551782.1021295,-0.76,-3.14,8.98,0.5433333333333333,0.17555555555555555,-0.7388888888888889,0.125,0.25,4.5
1589551782.1136775,-0.81,-3.23,9.07,0.5433333333333333,0.17555555555555555,-0.7388888888888889,0.0,-0.1875,3.25
1589551782.1203618,-0.73,-3.15,8.97,0.5433333333333333,0.17555555555555555,-0.7388888888888889,-0.25,0.125,1.8125
1589551782.1342087,-0.74,-3.15,9.2,0.5433333333333333,0.17555555555555555,-0.7388888888888889,-0.5,-0.6875,-0.125
1589551782.1403394,-0.72,-3.1,9.17,0.5511111111111111,0.18777777777777774,-0.76,-0.4375,0.0,-2.3125
1589551782.1551766,-0.72,-3.1,9.03,0.5511111111111111,0.18777777777777774,-0.76,-0.125,0.625,-4.5625
1589551782.1608622,-0.79,-3.22,8.99,0.5511111111111111,0.18777777777777774,-0.76,-0.6875,0.375,-6.75
1589551782.1724215,-0.72,-3.15,9.0,0.5511111111111111,0.18777777777777774,-0.76,-0.3125,0.8125,-8.4375
1589551782.1834087,-0.72,-3.11,9.0,0.5511111111111111,0.18777777777777774,-0.76,-0.75,0.625,-10.5
1589551782.1947668,-0.77,-3.13,9.09,0.5166666666666667,0.1811111111111111,-0.7744444444444445,-1.0,0.25,-12.4375
1589551782.200965,-0.82,-3.2,9.03,0.5166666666666667,0.1811111111111111,-0.7744444444444445,-0.5,1.0,-13.5625
1589551782.211173,-0.83,-3.19,8.97,0.5166666666666667,0.1811111111111111,-0.7744444444444445,-0.5625,1.375,-14.5625
1589551782.2244122,-0.88,-3.33,9.06,0.5166666666666667,0.1811111111111111,-0.7744444444444445,-0.875,1.1875,-14.8125
1589551782.2334347,-0.81,-3.25,9.09,0.5166666666666667,0.1811111111111111,-0.7744444444444445,-0.9375,1.375,-14.8125
1589551782.2458565,-0.86,-3.29,9.24,0.5488888888888889,0.15444444444444444,-0.7955555555555556,-1.0625,0.9375,-14.5
1589551782.2522974,-0.81,-3.18,9.02,0.5488888888888889,0.15444444444444444,-0.7955555555555556,-0.8125,1.6875,-13.6875
1589551782.2657118,-0.83,-3.21,8.94,0.5488888888888889,0.15444444444444444,-0.7955555555555556,-1.0,1.375,-13.25
1589551782.2716098,-0.76,-3.16,8.99,0.5488888888888889,0.15444444444444444,-0.7955555555555556,-1.375,1.1875,-12.6875
1589551782.2839222,-0.85,-3.31,9.01,0.5488888888888889,0.15444444444444444,-0.7955555555555556,-1.625,1.125,-12.3125
1589551782.2912962,-0.89,-3.47,9.08,0.5555555555555556,0.09555555555555556,-0.7822222222222223,-1.3125,1.25,-11.5625
1589551782.302575,-0.78,-3.21,9.03,0.5555555555555556,0.09555555555555556,-0.7822222222222223,-1.375,1.4375,-11.0
1589551782.3120596,-0.85,-3.36,9.0,0.5555555555555556,0.09555555555555556,-0.7822222222222223,-1.5625,1.1875,-10.6875
1589551782.3223677,-0.85,-3.24,8.79,0.5555555555555556,0.09555555555555556,-0.7822222222222223,-2.0625,1.625,-10.0
1589551782.333829,-0.91,-3.4,9.11,0.5555555555555556,0.09555555555555556,-0.7822222222222223,-1.9375,0.125,-8.5
1589551782.3439689,-0.99,-3.54,8.91,0.5777777777777777,0.10222222222222224,-0.81,-1.6875,0.5,-6.4375
1589551782.3508992,-1.09,-3.67,9.05,0.5777777777777777,0.10222222222222224,-0.81,-2.0,0.25,-4.3125
1589551782.3622925,-1.03,-3.54,9.06,0.5777777777777777,0.10222222222222224,-0.81,-1.875,-0.3125,-1.1875
1589551782.3711505,-1.01,-3.49,8.87,0.5777777777777777,0.10222222222222224,-0.81,-1.3125,0.0625,2.25
1589551782.3840427,-1.03,-3.62,9.04,0.5777777777777777,0.10222222222222224,-0.81,-1.6875,-0.8125,5.625
1589551782.3930938,-1.09,-3.64,9.0,0.5644444444444444,-0.0011111111111111113,-0.76,-1.3125,-0.75,9.1875
1589551782.404118,-1.08,-3.67,9.12,0.5644444444444444,-0.0011111111111111113,-0.76,-1.0625,-1.25,12.9375
1589551782.4131622,-1.17,-3.68,8.95,0.5644444444444444,-0.0011111111111111113,-0.76,-0.8125,-1.0,16.875
1589551782.4257007,-1.26,-3.84,9.07,0.5644444444444444,-0.0011111111111111113,-0.76,-0.6875,-1.4375,21.5
1589551782.4352846,-1.27,-3.79,8.96,0.5644444444444444,-0.0011111111111111113,-0.76,-0.625,-1.4375,26.9375
1589551782.4417706,-1.22,-3.6,9.1,0.5255555555555556,0.031111111111111114,-0.6766666666666666,-0.4375,-2.25,32.9375
1589551782.455917,-1.14,-3.49,9.01,0.5255555555555556,0.031111111111111114,-0.6766666666666666,-0.5,-2.3125,39.5
1589551782.4630618,-1.24,-3.67,8.93,0.5255555555555556,0.031111111111111114,-0.6766666666666666,0.1875,-2.1875,45.6875
1589551782.477314,-1.27,-3.69,9.04,0.5255555555555556,0.031111111111111114,-0.6766666666666666,-0.1875,-2.75,51.625
1589551782.4847085,-1.27,-3.62,9.03,0.5255555555555556,0.031111111111111114,-0.6766666666666666,-0.0625,-3.1875,57.5625
1589551782.4960644,-1.31,-3.7,9.11,0.5433333333333333,0.07111111111111111,-0.6411111111111111,0.0625,-3.6875,62.4375
1589551782.5022194,-1.22,-3.5,8.88,0.5433333333333333,0.07111111111111111,-0.6411111111111111,0.125,-3.625,66.5
1589551782.5136807,-1.28,-3.63,9.12,0.5433333333333333,0.07111111111111111,-0.6411111111111111,-0.25,-4.4375,69.8125
1589551782.5237286,-1.28,-3.49,8.94,0.5433333333333333,0.07111111111111111,-0.6411111111111111,0.25,-3.8125,72.5625
1589551782.534959,-1.34,-3.55,9.17,0.5433333333333333,0.07111111111111111,-0.6411111111111111,0.375,-4.1875,75.0
1589551782.5424402,-1.34,-3.5,9.09,0.4988888888888889,0.09,-0.6488888888888888,0.6875,-4.0,77.25
1589551782.5525234,-1.39,-3.48,9.05,0.4988888888888889,0.09,-0.6488888888888888,0.75,-3.9375,79.1875
1589551782.5628755,-1.5,-3.55,8.97,0.4988888888888889,0.09,-0.6488888888888888,0.625,-4.375,80.9375
1589551782.5729413,-1.55,-3.63,9.0,0.4988888888888889,0.09,-0.6488888888888888,0.9375,-3.9375,83.0
1589551782.590544,-1.61,-3.58,9.09,0.4988888888888889,0.09,-0.6488888888888888,0.3125,-4.8125,84.9375
1589551782.596142,-1.67,-3.64,9.18,0.5311111111111111,0.09,-0.6133333333333333,0.75,-5.25,87.4375
1589551782.6074276,-1.68,-3.57,9.03,0.5311111111111111,0.09,-0.6133333333333333,1.0625,-4.875,89.8125
1589551782.6134696,-1.69,-3.47,8.97,0.5311111111111111,0.09,-0.6133333333333333,1.25,-5.0625,92.4375
1589551782.6279585,-1.68,-3.49,9.05,0.5311111111111111,0.09,-0.6133333333333333,0.875,-5.6875,94.8125
1589551782.6360188,-1.77,-3.52,9.11,0.5311111111111111,0.09,-0.6133333333333333,0.9375,-5.375,96.75
1589551782.6470346,-1.73,-3.33,9.03,0.5688888888888889,0.07555555555555556,-0.6411111111111111,1.75,-4.875,98.375
1589551782.6536047,-1.73,-3.27,9.2,0.5688888888888889,0.07555555555555556,-0.6411111111111111,1.375,-5.625,99.5
1589551782.666579,-1.73,-3.21,9.17,0.5688888888888889,0.07555555555555556,-0.6411111111111111,1.25,-5.125,100.5625
1589551782.672599,-1.72,-3.16,9.02,0.5688888888888889,0.07555555555555556,-0.6411111111111111,2.1875,-3.8125,101.0625
1589551782.6852524,-1.82,-3.18,9.25,0.5688888888888889,0.07555555555555556,-0.6411111111111111,1.1875,-5.375,99.5625
1589551782.6934385,-1.88,-3.15,9.03,0.5544444444444444,0.045555555555555564,-0.6411111111111111,1.5,-4.625,97.9375
1589551782.7039814,-1.85,-3.03,9.26,0.5544444444444444,0.045555555555555564,-0.6411111111111111,0.9375,-4.9375,95.4375
1589551782.7138207,-1.98,-3.08,8.93,0.5544444444444444,0.045555555555555564,-0.6411111111111111,0.8125,-4.8125,93.5625
1589551782.7236822,-2.07,-3.1,9.05,0.5544444444444444,0.045555555555555564,-0.6411111111111111,0.875,-4.4375,91.8125
1589551782.7356973,-2.26,-3.19,9.16,0.5544444444444444,0.045555555555555564,-0.6411111111111111,0.9375,-4.5625,89.4375
1589551782.7479663,-2.88,-5.43,8.68,0.5644444444444444,-0.006666666666666667,-0.67,1.4375,-3.625,91.125
1589551782.7565136,-1.75,-5.68,8.5,0.5644444444444444,-0.006666666666666667,-0.67,3.625,-1.6875,113.625
1589551782.7662694,-1.97,-5.85,9.69,0.5644444444444444,-0.006666666666666667,-0.67,-0.25,-8.75,120.875
1589551782.7741768,-1.96,-2.85,9.7,0.5644444444444444,-0.006666666666666667,-0.67,1.125,-5.3125,118.5625
1589551782.785534,-1.93,-2.71,9.71,0.5644444444444444,-0.006666666666666667,-0.67,-3.625,-10.5625,103.5625
1589551782.793008,-1.56,-2.17,8.46,0.57,-0.08,-0.6622222222222223,2.25,-2.25,97.6875
1589551782.8047552,-1.56,-1.85,9.12,0.57,-0.08,-0.6622222222222223,1.625,-4.25,83.1875
1589551782.8178782,-1.85,-2.04,9.09,0.57,-0.08,-0.6622222222222223,-2.625,-5.625,62.3125
1589551782.8246872,-1.78,-2.18,9.08,0.57,-0.08,-0.6622222222222223,1.5,-1.5,46.6875
1589551782.83663,-1.61,-2.13,8.53,0.57,-0.08,-0.6622222222222223,1.6875,-0.375,33.75
1589551782.8428607,-1.52,-2.05,9.57,0.6111111111111112,-0.17,-0.6766666666666666,-3.9375,-5.125,17.5
1589551782.850805,-1.52,-2.05,9.57,0.6111111111111112,-0.17,-0.6766666666666666,-3.9375,-5.125,17.5
1589551782.8640351,-2.0,-1.94,8.91,0.6111111111111112,-0.17,-0.6766666666666666,3.125,3.3125,-9.875
1589551782.8744905,-2.25,-2.0,8.85,0.6111111111111112,-0.17,-0.6766666666666666,1.0625,2.6875,-18.0625
1589551782.8860106,-2.17,-2.03,9.23,0.6111111111111112,-0.17,-0.6766666666666666,-1.375,0.0,-23.25
1589551782.8967087,-1.91,-2.02,9.16,0.7211111111111111,-0.35,-0.6622222222222223,-0.875,0.375,-24.8125
1589551782.9048655,-1.95,-2.02,9.13,0.7211111111111111,-0.35,-0.6622222222222223,-0.625,0.5625,-29.0625
1589551782.9169312,-2.05,-2.16,9.19,0.7211111111111111,-0.35,-0.6622222222222223,-1.4375,0.4375,-35.875
1589551782.9246678,-2.27,-2.43,9.06,0.7211111111111111,-0.35,-0.6622222222222223,-1.0,1.5,-40.4375
1589551782.9358692,-2.32,-2.43,9.21,0.7211111111111111,-0.35,-0.6622222222222223,-0.375,2.125,-42.4375
1589551782.9435375,-2.16,-2.36,9.16,1.2266666666666666,-0.84,-0.5933333333333334,-0.8125,2.0,-42.9375
1589551782.9537814,-2.16,-2.36,9.16,1.2266666666666666,-0.84,-0.5933333333333334,-0.8125,2.0,-42.9375
1589551782.9596107,-2.63,-2.56,9.26,1.2266666666666666,-0.84,-0.5933333333333334,-1.0625,1.75,-42.3125
1589551782.9704287,-2.88,-2.73,9.24,1.2266666666666666,-0.84,-0.5933333333333334,-1.75,-0.0625,-37.3125
1589551782.977052,-2.77,-2.73,9.01,1.2266666666666666,-0.84,-0.5933333333333334,-0.6875,0.75,-27.0625
1589551782.986994,-2.74,-2.82,9.1,1.2266666666666666,-0.84,-0.5933333333333334,-0.3125,0.625,-15.6875
1589551782.9943929,-2.29,-2.64,9.25,0.97,-0.4777777777777778,-0.7422222222222222,-1.125,-1.4375,-7.6875
1589551783.0083053,-1.98,-2.37,9.11,0.97,-0.4777777777777778,-0.7422222222222222,-0.875,-1.5,-3.875
1589551783.0144804,-1.88,-2.35,9.22,0.97,-0.4777777777777778,-0.7422222222222222,-0.75,-1.3125,-4.0
1589551783.0252116,-1.92,-2.28,8.99,0.97,-0.4777777777777778,-0.7422222222222222,0.0625,0.0,-7.125
1589551783.0368087,-1.76,-2.19,8.94,0.97,-0.4777777777777778,-0.7422222222222222,1.125,1.625,-12.125
1589551783.047401,-1.44,-1.92,9.15,0.6855555555555556,-0.13666666666666666,-0.7355555555555555,-0.375,0.375,-18.4375
1589551783.054661,-1.58,-2.09,9.46,0.6855555555555556,-0.13666666666666666,-0.7355555555555555,-1.8125,-1.1875,-28.3125
1589551783.0667293,-1.72,-2.18,9.03,0.6855555555555556,-0.13666666666666666,-0.7355555555555555,-0.5625,1.625,-38.3125
1589551783.0758574,-1.55,-2.19,9.15,0.6855555555555556,-0.13666666666666666,-0.7355555555555555,-0.1875,2.25,-48.125
1589551783.0875714,-1.34,-2.2,8.91,0.6855555555555556,-0.13666666666666666,-0.7355555555555555,-0.4375,2.5625,-57.75
1589551783.0953887,-1.45,-2.44,9.37,0.6255555555555555,-0.004444444444444445,-0.7588888888888888,-1.4375,1.9375,-68.25
1589551783.107323,-1.48,-2.55,8.94,0.6255555555555555,-0.004444444444444445,-0.7588888888888888,-0.625,3.0625,-77.625
1589551783.1206946,-1.6,-2.74,9.07,0.6255555555555555,-0.004444444444444445,-0.7588888888888888,0.0,4.5,-85.0
1589551783.1275425,-1.65,-2.96,9.12,0.6255555555555555,-0.004444444444444445,-0.7588888888888888,-1.0625,3.6875,-89.8125
1589551783.1414473,-1.44,-2.99,9.07,0.6255555555555555,-0.004444444444444445,-0.7588888888888888,-0.875,4.0625,-92.875
1589551783.1472006,-1.41,-3.17,9.26,0.6311111111111111,0.03555555555555556,-0.7422222222222222,-0.3125,4.1875,-94.6875
1589551783.1600766,-1.45,-3.2,8.94,0.6311111111111111,0.03555555555555556,-0.7422222222222222,-0.375,4.4375,-98.6875
1589551783.1668158,-1.5,-3.24,9.22,0.6311111111111111,0.03555555555555556,-0.7422222222222222,-1.125,4.0,-103.0625
1589551783.178911,-1.52,-3.31,8.89,0.6311111111111111,0.03555555555555556,-0.7422222222222222,-0.5625,5.0625,-105.8125
1589551783.187444,-1.72,-3.63,9.1,0.6311111111111111,0.03555555555555556,-0.7422222222222222,0.0,6.0,-107.625
1589551783.1988633,-1.65,-3.95,9.18,0.6411111111111111,0.08333333333333333,-0.7711111111111111,-0.4375,4.6875,-108.4375
1589551783.2054055,-1.64,-3.69,9.14,0.6411111111111111,0.08333333333333333,-0.7711111111111111,-0.375,5.125,-107.9375
1589551783.2166526,-1.47,-3.92,9.34,0.6411111111111111,0.08333333333333333,-0.7711111111111111,-1.125,3.875,-107.3125
1589551783.2255926,-1.5,-4.09,8.62,0.6411111111111111,0.08333333333333333,-0.7711111111111111,-0.4375,4.9375,-105.625
1589551783.237374,-1.22,-3.86,9.15,0.6411111111111111,0.08333333333333333,-0.7711111111111111,-0.125,5.3125,-106.125
1589551783.2456641,-1.27,-3.37,8.48,0.6111111111111112,0.10222222222222224,-0.7422222222222222,-0.1875,5.0,-107.8125
1589551783.2570171,-34.72,-29.61,16.9,0.6111111111111112,0.10222222222222224,-0.7422222222222222,1.375,7.4375,-107.75
1589551783.2659953,-1.0,0.35,-6.81,0.6111111111111112,0.10222222222222224,-0.7422222222222222,13.375,44.5,-75.9375
1589551783.2760837,0.7,-0.53,11.77,0.6111111111111112,0.10222222222222224,-0.7422222222222222,-66.5625,-72.75,-296.0
1589551783.29276,0.04,-0.15,5.96,0.6111111111111112,0.10222222222222224,-0.7422222222222222,-11.0625,25.875,-205.4375
1589551783.2991376,0.52,2.06,8.52,0.6,0.17777777777777778,-0.7144444444444444,14.6875,2.75,-168.8125
1589551783.310984,0.84,-0.08,10.11,0.6,0.17777777777777778,-0.7144444444444444,14.6875,2.75,-168.8125
1589551783.317214,0.39,-0.76,9.17,0.6,0.17777777777777778,-0.7144444444444444,-24.5625,-7.1875,-137.4375
1589551783.3267052,-0.11,-1.49,8.01,0.6,0.17777777777777778,-0.7144444444444444,5.8125,10.5625,-121.1875
1589551783.3379552,0.2,-2.51,8.9,0.6,0.17777777777777778,-0.7144444444444444,-9.625,-4.0625,-58.5
1589551783.3488376,-0.25,-2.65,8.44,0.5777777777777777,0.2644444444444444,-0.7288888888888889,1.3125,3.125,-28.1875
1589551783.3571494,-0.13,-2.81,9.18,0.5777777777777777,0.2644444444444444,-0.7288888888888889,3.625,0.75,-9.25
1589551783.3703268,-0.18,-2.77,9.52,0.5777777777777777,0.2644444444444444,-0.7288888888888889,-3.125,-0.5,-1.6875
1589551783.376909,-0.43,-2.6,8.47,0.5777777777777777,0.2644444444444444,-0.7288888888888889,-1.1875,0.0,4.375
1589551783.3883393,-0.4,-2.56,8.84,0.5777777777777777,0.2644444444444444,-0.7288888888888889,0.1875,-0.5,10.9375
1589551783.3958542,-0.34,-2.43,9.02,0.5466666666666666,0.2933333333333333,-0.7233333333333334,0.125,-1.3125,14.6875
1589551783.405585,-0.34,-2.43,9.02,0.5466666666666666,0.2933333333333333,-0.7233333333333334,0.125,-1.3125,14.6875
1589551783.4113154,-0.42,-2.63,9.33,0.5466666666666666,0.2933333333333333,-0.7233333333333334,1.75,-0.75,17.5
1589551783.4181876,-0.36,-2.48,8.96,0.5466666666666666,0.2933333333333333,-0.7233333333333334,0.25,-0.75,19.125
1589551783.4275596,-0.47,-2.46,8.92,0.5466666666666666,0.2933333333333333,-0.7233333333333334,-0.75,-0.5,20.1875
1589551783.441332,-0.22,-3.76,9.28,0.5466666666666666,0.2933333333333333,-0.7233333333333334,0.25,-1.8125,19.9375
1589551783.4472196,-4.49,-29.31,7.57,0.5422222222222223,0.3022222222222222,-0.7288888888888889,-6.875,-15.5625,-43.6875
1589551783.45762,-1.07,-0.88,13.01,0.5422222222222223,0.3022222222222222,-0.7288888888888889,-3.75,10.5625,-106.3125
1589551783.4689512,-1.44,-1.35,6.8,0.5422222222222223,0.3022222222222222,-0.7288888888888889,19.5625,25.3125,-84.125
1589551783.4767096,-2.02,-2.48,8.41,0.5422222222222223,0.3022222222222222,-0.7288888888888889,-9.875,-4.75,-47.0625
1589551783.4889295,-0.97,-2.59,10.76,0.5422222222222223,0.3022222222222222,-0.7288888888888889,-7.125,-3.3125,-16.0625
1589551783.5013409,-0.94,-10.7,7.75,0.5344444444444445,0.31777777777777777,-0.7155555555555555,7.1875,3.875,-9.0
1589551783.507117,-1.32,-4.92,9.13,0.5344444444444445,0.31777777777777777,-0.7155555555555555,-4.75,-2.0625,-32.1875
1589551783.5213366,-0.97,-2.4,9.75,0.5344444444444445,0.31777777777777777,-0.7155555555555555,3.8125,4.3125,-28.0625
1589551783.5274134,-1.21,-4.9,8.67,0.5344444444444445,0.31777777777777777,-0.7155555555555555,1.3125,1.875,-12.6875
1589551783.5427494,-0.63,-4.4,9.35,0.5344444444444445,0.31777777777777777,-0.7155555555555555,-5.0625,-3.3125,-6.25
1589551783.5488017,-0.61,-4.28,9.14,0.5366666666666666,0.32666666666666666,-0.7244444444444444,0.9375,0.8125,-3.0
1589551783.5568287,-0.84,-3.97,8.92,0.5366666666666666,0.32666666666666666,-0.7244444444444444,2.4375,1.875,-0.625
1589551783.5638044,-0.84,-3.97,8.92,0.5366666666666666,0.32666666666666666,-0.7244444444444444,2.4375,1.875,-0.625
1589551783.5706446,-0.59,-4.06,9.14,0.5366666666666666,0.32666666666666666,-0.7244444444444444,-0.5625,-1.0625,-0.375
1589551783.582519,-0.62,-4.06,9.17,0.5366666666666666,0.32666666666666666,-0.7244444444444444,-0.6875,-0.4375,-0.25
1589551783.5957112,-0.79,-3.98,8.91,0.5366666666666666,0.32666666666666666,-0.7244444444444444,0.0,0.6875,-0.0625
1589551783.6016064,-0.67,-4.01,9.04,0.5288888888888889,0.3333333333333333,-0.7244444444444444,-1.1875,-0.5,-0.375
1589551783.608857,-0.63,-4.05,9.05,0.5288888888888889,0.3333333333333333,-0.7244444444444444,-0.25,-0.5,-0.25
1589551783.6206455,-0.69,-3.96,8.93,0.5288888888888889,0.3333333333333333,-0.7244444444444444,1.0,0.0625,-0.125
1589551783.634495,-0.72,-3.97,8.94,0.5288888888888889,0.3333333333333333,-0.7244444444444444,0.125,-0.25,-0.1875
1589551783.640694,-0.71,-4.04,9.0,0.5288888888888889,0.3333333333333333,-0.7244444444444444,-0.6875,-0.1875,-0.25
1589551783.6502802,-0.7,-4.05,8.99,0.5366666666666666,0.3411111111111111,-0.7155555555555555,-0.375,0.0,-0.25
1589551783.6594725,-0.67,-4.05,9.04,0.5366666666666666,0.3411111111111111,-0.7155555555555555,-0.25,-0.25,-0.1875
1589551783.6728516,-0.69,-4.06,8.94,0.5366666666666666,0.3411111111111111,-0.7155555555555555,0.5,-0.375,-0.25
1589551783.6788256,-0.68,-3.96,9.02,0.5366666666666666,0.3411111111111111,-0.7155555555555555,0.3125,-0.1875,-0.25
1589551783.6916888,-0.69,-4.02,9.08,0.5366666666666666,0.3411111111111111,-0.7155555555555555,-0.625,-0.25,-0.25
1589551783.6993804,-0.67,-4.03,9.05,0.5688888888888889,0.3411111111111111,-0.7244444444444444,-0.8125,-0.125,-0.3125
1589551783.7086751,-0.65,-4.05,8.97,0.5688888888888889,0.3411111111111111,-0.7244444444444444,-0.5,-0.25,-0.5
1589551783.7185152,-0.67,-4.04,8.96,0.5688888888888889,0.3411111111111111,-0.7244444444444444,0.1875,0.0,-0.875
1589551783.7290256,-0.68,-4.03,9.03,0.5688888888888889,0.3411111111111111,-0.7244444444444444,0.625,0.0625,-1.0625
1589551783.7420056,-0.67,-4.01,9.04,0.5688888888888889,0.3411111111111111,-0.7244444444444444,0.0625,0.0625,-0.8125
1589551783.753338,-0.67,-4.05,9.07,0.5433333333333333,0.32666666666666666,-0.7088888888888889,-0.5,0.0,-0.75
1589551783.7592578,-0.71,-4.07,8.94,0.5433333333333333,0.32666666666666666,-0.7088888888888889,0.0,0.0625,-0.4375
1589551783.770343,-0.69,-4.05,8.95,0.5433333333333333,0.32666666666666666,-0.7088888888888889,0.5,-0.0625,-0.4375
1589551783.7793732,-0.69,-3.98,9.05,0.5433333333333333,0.32666666666666666,-0.7088888888888889,0.6875,0.1875,-0.1875
