time,acc_x,acc_y,acc_z,mag_x,mag_y,mag_z,gyr_x,gyr_y,gyr_z
1589551790.5010517,0.0,-4.12,9.07,0.4711111111111111,0.3088888888888889,-0.6555555555555556,0.25,0.0625,-0.0625
1589551790.5113928,0.01,-4.14,9.0,0.4711111111111111,0.3088888888888889,-0.6555555555555556,0.1875,0.1875,-0.0625
1589551790.5173488,0.0,-4.11,9.03,0.4711111111111111,0.3088888888888889,-0.6555555555555556,0.3125,0.5625,-0.125
1589551790.527614,0.02,-4.12,9.07,0.4711111111111111,0.3088888888888889,-0.6555555555555556,0.375,0.375,-0.125
1589551790.5339134,0.02,-4.13,9.12,0.4833333333333333,0.3288888888888889,-0.6488888888888888,0.5,0.5,-0.3125
1589551790.5491464,-0.02,-4.09,9.02,0.4833333333333333,0.3288888888888889,-0.6488888888888888,0.3125,0.5625,-0.125
1589551790.5554926,-0.01,-4.11,8.95,0.4833333333333333,0.3288888888888889,-0.6488888888888888,-0.125,0.0625,-0.0625
1589551790.5687714,0.01,-4.15,9.01,0.4833333333333333,0.3288888888888889,-0.6488888888888888,-0.3125,-0.25,-0.0625
1589551790.5769928,0.02,-4.13,8.99,0.4833333333333333,0.3288888888888889,-0.6488888888888888,-0.1875,-0.0625,0.0
1589551790.585206,-0.01,-4.14,8.99,0.4711111111111111,0.3022222222222222,-0.6555555555555556,0.0,-0.125,-0.0625
1589551790.594865,0.0,-4.11,9.03,0.4711111111111111,0.3022222222222222,-0.6555555555555556,-0.0625,-0.125,-0.0625
1589551790.6079652,-0.01,-4.12,8.89,0.4711111111111111,0.3022222222222222,-0.6555555555555556,0.3125,0.0,0.125
1589551790.6152866,0.0,-4.11,8.99,0.4711111111111111,0.3022222222222222,-0.6555555555555556,0.0,-0.0625,-0.0625
1589551790.6273787,0.01,-4.13,9.04,0.4711111111111111,0.3022222222222222,-0.6555555555555556,-0.4375,-0.6875,-0.1875
1589551790.6354506,0.01,-4.13,9.08,0.4833333333333333,0.3144444444444445,-0.6622222222222223,-0.625,-0.625,-0.0625
1589551790.6456337,0.01,-4.12,9.1,0.4833333333333333,0.3144444444444445,-0.6622222222222223,-0.5,-0.6875,-0.1875
1589551790.655168,0.03,-4.11,9.0,0.4833333333333333,0.3144444444444445,-0.6622222222222223,-0.375,-0.4375,-0.3125
1589551790.6644616,0.03,-4.1,9.03,0.4833333333333333,0.3144444444444445,-0.6622222222222223,-0.1875,-0.25,-0.4375
1589551790.6772866,0.02,-4.13,9.04,0.4833333333333333,0.3144444444444445,-0.6622222222222223,-0.375,-0.375,-0.625
1589551790.6884305,0.02,-4.11,9.01,0.4711111111111111,0.3333333333333333,-0.6611111111111111,-0.375,-0.25,-0.75
1589551790.70042,0.02,-4.14,8.97,0.4711111111111111,0.3333333333333333,-0.6611111111111111,-0.125,-0.25,-0.875
1589551790.7071939,0.03,-4.12,8.92,0.4711111111111111,0.3333333333333333,-0.6611111111111111,-0.0625,0.0,-0.75
1589551790.714877,0.03,-4.12,8.95,0.4711111111111111,0.3333333333333333,-0.6611111111111111,0.0,0.25,-0.6875
1589551790.727576,0.0,-4.11,8.98,0.4711111111111111,0.3333333333333333,-0.6611111111111111,0.0625,0.375,-0.8125
1589551790.7353654,-0.01,-4.13,9.01,0.4977777777777778,0.3144444444444445,-0.6555555555555556,-0.125,0.4375,-0.6875
1589551790.7470033,0.0,-4.13,9.03,0.4977777777777778,0.3144444444444445,-0.6555555555555556,-0.1875,0.0625,-0.6875
1589551790.7589455,0.01,-4.13,8.97,0.4977777777777778,0.3144444444444445,-0.6555555555555556,-0.4375,-0.4375,-0.5625
1589551790.7648304,0.05,-4.13,9.06,0.4977777777777778,0.3144444444444445,-0.6555555555555556,-0.625,-0.5625,-0.5625
1589551790.777589,0.05,-4.1,9.07,0.4977777777777778,0.3144444444444445,-0.6555555555555556,-0.6875,-0.875,-0.8125
1589551790.786039,0.05,-4.11,9.07,0.4833333333333333,0.3211111111111111,-0.6488888888888888,-0.375,-0.5,-1.1875
1589551790.7980294,0.04,-4.09,8.95,0.4833333333333333,0.3211111111111111,-0.6488888888888888,-0.1875,-0.375,-1.625
1589551790.8054767,0.01,-4.13,8.9,0.4833333333333333,0.3211111111111111,-0.6488888888888888,0.0,-0.25,-2.125
1589551790.8155134,0.01,-4.14,8.96,0.4833333333333333,0.3211111111111111,-0.6488888888888888,-0.0625,-0.125,-2.25
1589551790.8281946,0.0,-4.16,8.97,0.4833333333333333,0.3211111111111111,-0.6488888888888888,0.0625,0.25,-1.9375
1589551790.838954,0.02,-4.16,9.05,0.4777777777777778,0.3144444444444445,-0.6411111111111111,0.125,0.4375,-1.25
1589551790.84596,0.01,-4.14,9.01,0.4777777777777778,0.3144444444444445,-0.6411111111111111,0.3125,0.8125,-0.625
1589551790.857851,0.01,-4.14,8.96,0.4777777777777778,0.3144444444444445,-0.6411111111111111,0.375,0.625,-0.375
1589551790.8659492,0.03,-4.13,9.02,0.4777777777777778,0.3144444444444445,-0.6411111111111111,0.1875,0.3125,-0.4375
1589551790.8781686,0.03,-4.11,9.06,0.4777777777777778,0.3144444444444445,-0.6411111111111111,0.125,0.25,-0.375
1589551790.8861024,0.03,-4.13,9.04,0.4711111111111111,0.3144444444444445,-0.6488888888888888,0.0625,0.0,-0.375
1589551790.8982668,-0.13,-3.92,8.74,0.4711111111111111,0.3144444444444445,-0.6488888888888888,-0.125,-0.375,-0.4375
1589551790.911084,0.08,-4.22,9.12,0.4711111111111111,0.3144444444444445,-0.6488888888888888,-1.125,-2.3125,-0.625
1589551790.916855,-0.08,-4.1,8.68,0.4711111111111111,0.3144444444444445,-0.6488888888888888,0.5,1.0625,-0.1875
1589551790.9285312,0.07,-4.13,9.1,0.4711111111111111,0.3144444444444445,-0.6488888888888888,0.375,0.5625,0.125
1589551790.9359903,0.02,-4.14,9.0,0.4711111111111111,0.3288888888888889,-0.6411111111111111,0.25,0.625,0.0625
1589551790.9513507,0.03,-4.13,8.99,0.4711111111111111,0.3288888888888889,-0.6411111111111111,0.4375,0.625,0.0
1589551790.9580655,0.01,-4.13,8.95,0.4711111111111111,0.3288888888888889,-0.6411111111111111,0.5625,0.4375,0.0625
1589551790.9687939,0.01,-4.12,8.97,0.4711111111111111,0.3288888888888889,-0.6411111111111111,0.75,1.0625,0.0625
1589551790.9786801,0.02,-4.14,9.07,0.4711111111111111,0.3288888888888889,-0.6411111111111111,0.5,0.6875,0.0
1589551790.9866939,0.02,-4.12,9.06,0.4711111111111111,0.3288888888888889,-0.6488888888888888,0.0625,0.1875,0.0625
1589551790.9963243,0.02,-4.13,9.07,0.4711111111111111,0.3288888888888889,-0.6488888888888888,0.125,0.0625,0.0
1589551791.0077026,0.02,-4.11,8.92,0.4711111111111111,0.3288888888888889,-0.6488888888888888,-0.125,0.0,-0.0625
1589551791.0163336,0.03,-4.11,8.97,0.4711111111111111,0.3288888888888889,-0.6488888888888888,-0.25,-0.125,-0.25
1589551791.0291958,0.02,-4.13,9.02,0.4711111111111111,0.3288888888888889,-0.6488888888888888,-0.4375,-0.5,0.0625
1589551791.03696,0.03,-4.14,9.03,0.4777777777777778,0.3144444444444445,-0.6555555555555556,-0.4375,-0.5625,0.0
1589551791.048896,0.17,-4.26,9.31,0.4777777777777778,0.3144444444444445,-0.6555555555555556,-0.5,-0.75,-0.0625
1589551791.0624652,0.05,-4.14,8.99,0.4777777777777778,0.3144444444444445,-0.6555555555555556,-1.0,-2.1875,-0.25
1589551791.0702355,-0.07,-4.07,8.68,0.4777777777777778,0.3144444444444445,-0.6555555555555556,0.4375,1.1875,-0.0625
1589551791.0829208,0.08,-4.14,9.16,0.4777777777777778,0.3144444444444445,-0.6555555555555556,-0.25,-0.4375,-0.125
1589551791.0892336,0.03,-4.12,9.06,0.4711111111111111,0.3088888888888889,-0.6555555555555556,-0.4375,-0.375,-0.125
1589551791.1014118,0.02,-4.13,9.05,0.4711111111111111,0.3088888888888889,-0.6555555555555556,-0.125,0.0,0.0
1589551791.107546,0.01,-4.14,8.95,0.4711111111111111,0.3088888888888889,-0.6555555555555556,-0.125,-0.375,-0.125
1589551791.1173284,0.04,-4.13,8.96,0.4711111111111111,0.3088888888888889,-0.6555555555555556,-0.3125,-0.4375,-0.3125
1589551791.1291633,0.06,-4.07,9.01,0.4711111111111111,0.3088888888888889,-0.6555555555555556,-0.1875,-0.375,-0.25
1589551791.1409836,0.05,-4.1,9.0,0.49,0.3088888888888889,-0.6488888888888888,-0.125,0.125,-0.625
1589551791.1469586,0.05,-4.11,9.0,0.49,0.3088888888888889,-0.6488888888888888,-0.1875,-0.1875,-0.875
1589551791.161331,0.02,-4.12,8.86,0.49,0.3088888888888889,-0.6488888888888888,-0.1875,-0.1875,-1.1875
1589551791.167371,0.04,-4.1,8.97,0.49,0.3088888888888889,-0.6488888888888888,-0.1875,-0.0625,-1.375
1589551791.179359,0.05,-4.09,9.08,0.49,0.3088888888888889,-0.6488888888888888,-0.375,-0.3125,-1.375
1589551791.1863713,0.07,-4.1,9.1,0.4977777777777778,0.3144444444444445,-0.6266666666666667,-0.375,-0.375,-1.4375
1589551791.2013946,0.07,-4.11,9.07,0.4977777777777778,0.3144444444444445,-0.6266666666666667,-0.25,-0.0625,-1.9375
1589551791.2097335,0.07,-4.11,8.96,0.4977777777777778,0.3144444444444445,-0.6266666666666667,-0.0625,0.0,-2.0625
1589551791.2196774,0.06,-4.11,8.96,0.4977777777777778,0.3144444444444445,-0.6266666666666667,0.125,0.375,-2.3125
1589551791.2342038,0.03,-4.08,9.01,0.4977777777777778,0.3144444444444445,-0.6266666666666667,0.125,0.375,-2.25
1589551791.240556,0.05,-4.1,8.99,0.4777777777777778,0.3333333333333333,-0.6644444444444444,0.1875,0.1875,-2.3125
1589551791.2474296,0.04,-4.06,8.98,0.4777777777777778,0.3333333333333333,-0.6644444444444444,-0.3125,0.0,-2.375
1589551791.2589102,0.05,-4.03,8.9,0.4777777777777778,0.3333333333333333,-0.6644444444444444,-0.5,-0.5,-2.5
1589551791.2717464,0.08,-4.04,9.0,0.4777777777777778,0.3333333333333333,-0.6644444444444444,-0.6875,-0.8125,-2.625
1589551791.2798455,0.07,-3.98,9.02,0.4777777777777778,0.3333333333333333,-0.6644444444444444,-0.9375,-1.1875,-3.375
1589551791.2914698,0.09,-3.88,9.04,0.4711111111111111,0.3144444444444445,-0.6555555555555556,-1.3125,-1.375,-3.8125
1589551791.29744,-0.03,-3.62,9.03,0.4711111111111111,0.3144444444444445,-0.6555555555555556,-2.0,-1.75,-5.0
1589551791.311321,-0.05,-3.5,9.17,0.4711111111111111,0.3144444444444445,-0.6555555555555556,-2.75,-2.8125,-6.8125
1589551791.3174193,-0.2,-3.43,8.8,0.4711111111111111,0.3144444444444445,-0.6555555555555556,-2.0,-1.0625,-8.5625
1589551791.3306293,-0.13,-3.49,9.16,0.4711111111111111,0.3144444444444445,-0.6555555555555556,-2.125,-1.0,-8.6875
1589551791.3367176,0.05,-3.04,8.97,0.4833333333333333,0.3144444444444445,-0.6555555555555556,-1.5625,-0.8125,-7.875
1589551791.3481536,0.14,-3.15,9.11,0.4833333333333333,0.3144444444444445,-0.6555555555555556,-1.75,-0.8125,-7.5625
1589551791.3573642,0.14,-3.09,8.95,0.4833333333333333,0.3144444444444445,-0.6555555555555556,-2.0,-1.5,-10.1875
1589551791.367348,0.0,-2.9,9.03,0.4833333333333333,0.3144444444444445,-0.6555555555555556,-2.0,-0.75,-14.75
1589551791.374886,0.0,-2.9,9.03,0.4833333333333333,0.3144444444444445,-0.6555555555555556,-2.0,-0.75,-14.75
1589551791.3851564,-0.06,-2.66,8.89,0.4833333333333333,0.3144444444444445,-0.6555555555555556,-0.8125,0.875,-13.375
1589551791.3920453,0.02,-2.81,9.06,0.4633333333333333,0.3333333333333333,-0.6411111111111111,1.75,1.75,-0.4375
1589551791.4045627,0.05,-2.85,9.06,0.4633333333333333,0.3333333333333333,-0.6411111111111111,-0.125,-0.375,9.0625
1589551791.4111855,0.07,-3.02,9.02,0.4633333333333333,0.3333333333333333,-0.6411111111111111,-0.3125,-0.9375,15.8125
1589551791.419056,0.12,-2.96,8.95,0.4633333333333333,0.3333333333333333,-0.6411111111111111,0.5625,-0.3125,21.5625
1589551791.4306428,0.14,-3.05,9.18,0.4633333333333333,0.3333333333333333,-0.6411111111111111,0.5,-0.625,25.375
1589551791.4426892,0.15,-3.01,9.02,0.4833333333333333,0.3211111111111111,-0.67,0.4375,-1.125,26.625
1589551791.4490786,0.08,-3.05,9.02,0.4833333333333333,0.3211111111111111,-0.67,0.375,-1.25,27.375
1589551791.4632876,0.1,-3.07,8.93,0.4833333333333333,0.3211111111111111,-0.67,0.0625,-1.625,28.0
1589551791.469107,0.1,-3.11,9.08,0.4833333333333333,0.3211111111111111,-0.67,-0.0625,-2.125,28.9375
1589551791.4811044,0.05,-3.12,8.93,0.4833333333333333,0.3211111111111111,-0.67,0.25,-0.9375,29.75
1589551791.48814,0.05,-3.07,9.06,0.4833333333333333,0.3211111111111111,-0.6488888888888888,0.625,-0.875,30.25
1589551791.501749,0.0,-3.2,9.27,0.4833333333333333,0.3211111111111111,-0.6488888888888888,-0.1875,-1.9375,31.0
1589551791.5090792,0.02,-3.06,8.83,0.4833333333333333,0.3211111111111111,-0.6488888888888888,0.5,-0.8125,32.1875
1589551791.5195756,-0.02,-3.13,9.27,0.4833333333333333,0.3211111111111111,-0.6488888888888888,0.9375,-0.5625,33.375
1589551791.5310366,-0.05,-3.02,8.92,0.4833333333333333,0.3211111111111111,-0.6488888888888888,-0.125,-2.25,33.5
1589551791.5413575,0.0,-3.09,9.12,0.5044444444444445,0.3022222222222222,-0.6555555555555556,0.3125,-1.3125,34.1875
1589551791.548899,-0.04,-2.99,9.24,0.5044444444444445,0.3022222222222222,-0.6555555555555556,-0.625,-2.875,34.875
1589551791.5591464,-0.06,-3.05,8.96,0.5044444444444445,0.3022222222222222,-0.6555555555555556,0.1875,-1.625,35.875
1589551791.5693645,-0.07,-3.06,9.15,0.5044444444444445,0.3022222222222222,-0.6555555555555556,0.375,-1.75,36.875
1589551791.5816133,-0.12,-3.05,8.88,0.5044444444444445,0.3022222222222222,-0.6555555555555556,0.1875,-1.875,37.5625
1589551791.5911145,-0.15,-3.25,9.14,0.5044444444444445,0.3022222222222222,-0.67,0.0625,-2.0,39.625
1589551791.5995655,-0.15,-3.2,9.02,0.5044444444444445,0.3022222222222222,-0.67,0.0625,-2.0,39.625
1589551791.614746,-0.08,-3.2,8.85,0.5044444444444445,0.3022222222222222,-0.67,0.5,-1.4375,40.125
1589551791.6210058,-0.12,-3.32,9.05,0.5044444444444445,0.3022222222222222,-0.67,-0.125,-2.25,38.75
1589551791.6364946,-0.22,-3.43,9.14,0.5044444444444445,0.3022222222222222,-0.67,0.3125,-1.5625,37.625
1589551791.6421182,-0.21,-3.37,9.08,0.5166666666666667,0.3022222222222222,-0.67,0.6875,-1.375,36.75
1589551791.6510506,-0.23,-3.39,9.02,0.5166666666666667,0.3022222222222222,-0.67,0.25,-1.8125,35.0
1589551791.6597905,-0.24,-3.32,8.89,0.5166666666666667,0.3022222222222222,-0.67,0.375,-1.1875,33.375
1589551791.6701884,-0.31,-3.38,8.93,0.5166666666666667,0.3022222222222222,-0.67,0.4375,-1.3125,31.5625
1589551791.6824734,-0.32,-3.33,9.17,0.5166666666666667,0.3022222222222222,-0.67,0.0625,-1.5,30.5
1589551791.690089,-0.22,-3.1,8.99,0.5244444444444445,0.2877777777777778,-0.6844444444444444,0.8125,-0.6875,29.3125
1589551791.69949,-0.3,-3.29,9.08,0.5244444444444445,0.2877777777777778,-0.6844444444444444,0.0,-1.9375,27.4375
1589551791.7116125,-0.29,-3.14,9.04,0.5244444444444445,0.2877777777777778,-0.6844444444444444,0.0625,-1.375,26.0625
1589551791.7207284,-0.33,-3.22,8.98,0.5244444444444445,0.2877777777777778,-0.6844444444444444,0.875,-0.625,24.8125
1589551791.7319374,-0.3,-3.3,9.1,0.5244444444444445,0.2877777777777778,-0.6844444444444444,0.4375,-0.4375,23.125
1589551791.7424655,-0.33,-3.33,9.14,0.5166666666666667,0.2822222222222222,-0.7055555555555556,0.5,-0.3125,21.0
1589551791.750037,-0.31,-3.33,9.01,0.5166666666666667,0.2822222222222222,-0.7055555555555556,0.5625,-0.625,18.8125
1589551791.7662618,-0.37,-3.5,9.1,0.5166666666666667,0.2822222222222222,-0.7055555555555556,-0.1875,-1.0625,16.5625
1589551791.7727704,-0.41,-3.57,9.03,0.5166666666666667,0.2822222222222222,-0.7055555555555556,0.375,-0.1875,14.6875
1589551791.7873626,-0.43,-3.46,9.03,0.5166666666666667,0.2822222222222222,-0.7055555555555556,0.0625,-0.125,12.875
1589551791.7936757,-0.43,-3.54,8.98,0.5222222222222223,0.2677777777777778,-0.7322222222222222,0.0,-0.8125,10.875
1589551791.8046658,-0.4,-3.53,9.19,0.5222222222222223,0.2677777777777778,-0.7322222222222222,0.25,0.0625,8.6875
1589551791.811401,-0.28,-3.26,8.78,0.5222222222222223,0.2677777777777778,-0.7322222222222222,0.75,0.6875,5.5625
1589551791.824548,-0.27,-3.22,9.06,0.5222222222222223,0.2677777777777778,-0.7322222222222222,-0.3125,-0.625,1.6875
1589551791.8328252,-0.35,-3.29,9.08,0.5222222222222223,0.2677777777777778,-0.7322222222222222,-0.25,0.0,-1.3125
1589551791.8440075,-0.32,-3.26,9.04,0.5155555555555555,0.2611111111111111,-0.7266666666666667,0.125,0.625,-3.625
1589551791.8518884,-0.33,-3.2,9.0,0.5155555555555555,0.2611111111111111,-0.7266666666666667,0.1875,0.5,-6.125
1589551791.8609335,-0.38,-3.34,9.05,0.5155555555555555,0.2611111111111111,-0.7266666666666667,-0.4375,0.0625,-8.8125
1589551791.8714547,-0.34,-3.22,9.0,0.5155555555555555,0.2611111111111111,-0.7266666666666667,-0.0625,0.625,-10.6875
1589551791.88306,-0.34,-3.44,9.15,0.5155555555555555,0.2611111111111111,-0.7266666666666667,-0.125,0.8125,-12.6875
1589551791.8902102,-0.34,-3.39,8.96,0.5077777777777778,0.2677777777777778,-0.7466666666666667,0.0625,1.6875,-14.8125
1589551791.9004152,-0.35,-3.46,8.99,0.5077777777777778,0.2677777777777778,-0.7466666666666667,-0.4375,0.75,-17.0625
1589551791.9155855,-0.27,-3.36,8.91,0.5077777777777778,0.2677777777777778,-0.7466666666666667,-0.3125,0.9375,-19.1875
1589551791.9215686,-0.31,-3.5,8.96,0.5077777777777778,0.2677777777777778,-0.7466666666666667,-0.1875,1.3125,-21.375
1589551791.9363368,-0.33,-3.45,9.08,0.5077777777777778,0.2677777777777778,-0.7466666666666667,-0.375,1.0,-23.3125
1589551791.9420538,-0.29,-3.37,9.05,0.4955555555555556,0.27555555555555555,-0.7622222222222222,-0.1875,1.375,-25.375
1589551791.955863,-0.22,-3.29,8.97,0.4955555555555556,0.27555555555555555,-0.7622222222222222,-0.125,1.625,-27.4375
1589551791.9617352,-0.16,-3.3,8.88,0.4955555555555556,0.27555555555555555,-0.7622222222222222,-0.8125,1.375,-30.0625
1589551791.9760973,-0.23,-3.48,9.03,0.4955555555555556,0.27555555555555555,-0.7622222222222222,-1.375,0.75,-32.5625
1589551791.9833305,-0.29,-3.61,9.02,0.4955555555555556,0.27555555555555555,-0.7622222222222222,-0.75,1.5,-34.1875
1589551791.9952095,-0.28,-3.72,9.11,0.5222222222222223,0.2822222222222222,-0.7822222222222223,-1.1875,1.4375,-35.5625
1589551792.0014675,-0.28,-3.7,9.05,0.5222222222222223,0.2822222222222222,-0.7822222222222223,-1.25,1.875,-36.5
1589551792.0108395,-0.27,-3.69,8.93,0.5222222222222223,0.2822222222222222,-0.7822222222222223,-0.5,2.4375,-37.5
1589551792.0209465,-0.19,-3.71,9.07,0.5222222222222223,0.2822222222222222,-0.7822222222222223,-1.25,1.875,-38.3125
1589551792.0337653,-0.18,-3.71,8.95,0.5222222222222223,0.2822222222222222,-0.7822222222222223,-1.25,2.0625,-39.625
1589551792.0420675,-0.19,-3.74,9.07,0.5222222222222223,0.2677777777777778,-0.8033333333333333,-1.125,2.125,-40.5
1589551792.0539494,-0.17,-3.59,9.06,0.5222222222222223,0.2677777777777778,-0.8033333333333333,-1.0,2.6875,-41.25
1589551792.0628548,-0.22,-3.66,8.98,0.5222222222222223,0.2677777777777778,-0.8033333333333333,-1.6875,2.1875,-41.875
1589551792.0748448,-0.16,-3.66,9.04,0.5222222222222223,0.2677777777777778,-0.8033333333333333,-1.625,2.1875,-42.1875
1589551792.0891562,-0.11,-3.66,8.92,0.5222222222222223,0.2677777777777778,-0.8033333333333333,-1.0,2.5625,-42.0625
1589551792.0946527,-0.08,-3.76,9.14,0.5466666666666666,0.23555555555555555,-0.8033333333333333,-1.9375,1.9375,-42.3125
1589551792.1021564,-0.01,-3.69,8.92,0.5466666666666666,0.23555555555555555,-0.8033333333333333,-1.875,2.1875,-42.25
1589551792.1140585,-0.05,-3.81,8.92,0.5466666666666666,0.23555555555555555,-0.8033333333333333,-1.625,1.9375,-43.0625
1589551792.1254985,-0.13,-3.72,9.26,0.5466666666666666,0.23555555555555555,-0.8033333333333333,-1.375,2.5,-42.75
1589551792.1342552,-0.1,-3.51,8.7,0.5466666666666666,0.23555555555555555,-0.8033333333333333,-0.8125,3.5,-40.5625
1589551792.14558,-0.13,-3.45,9.36,0.5733333333333334,0.25,-0.8177777777777778,-3.0,-0.25,-38.375
1589551792.151447,-0.17,-3.4,8.95,0.5733333333333334,0.25,-0.8177777777777778,-2.6875,1.1875,-35.1875
1589551792.159784,-0.17,-3.4,8.95,0.5733333333333334,0.25,-0.8177777777777778,-2.6875,1.1875,-35.1875
1589551792.1724794,-0.08,-3.54,9.0,0.5733333333333334,0.25,-0.8177777777777778,-2.3125,0.5,-28.4375
1589551792.1854918,-0.09,-3.65,9.01,0.5733333333333334,0.25,-0.8177777777777778,-1.0625,1.375,-25.3125
1589551792.1917946,-0.09,-3.56,8.97,0.5455555555555556,0.15777777777777774,-0.7955555555555556,-0.9375,1.1875,-22.1875
1589551792.2034488,-0.06,-3.88,9.13,0.5455555555555556,0.15777777777777774,-0.7955555555555556,-2.125,-0.4375,-19.3125
1589551792.2125301,-0.03,-3.88,9.08,0.5455555555555556,0.15777777777777774,-0.7955555555555556,-1.625,-0.0625,-16.375
1589551792.2216294,-0.03,-3.85,8.63,0.5455555555555556,0.15777777777777774,-0.7955555555555556,0.5,1.9375,-13.125
1589551792.2275405,-0.03,-3.85,8.63,0.5455555555555556,0.15777777777777774,-0.7955555555555556,0.5,1.9375,-13.125
1589551792.2342224,0.03,-3.89,9.07,0.5455555555555556,0.15777777777777774,-0.7955555555555556,-0.875,-0.25,-10.5
1589551792.2462714,-0.03,-4.14,9.16,0.5188888888888888,0.17333333333333334,-0.6966666666666667,-1.25,-0.8125,-8.0
1589551792.2522097,-0.09,-4.09,8.98,0.5188888888888888,0.17333333333333334,-0.6966666666666667,-0.125,-0.0625,-4.25
1589551792.2618878,-0.08,-4.12,8.8,0.5188888888888888,0.17333333333333334,-0.6966666666666667,-0.5,-0.3125,0.0625
1589551792.2677348,-0.08,-4.12,8.8,0.5188888888888888,0.17333333333333334,-0.6966666666666667,-0.5,-0.3125,0.0625
1589551792.279517,-0.06,-4.08,8.98,0.5188888888888888,0.17333333333333334,-0.6966666666666667,-0.75,-0.875,4.25
1589551792.2852092,-0.11,-4.1,8.97,0.5188888888888888,0.17333333333333334,-0.6966666666666667,-0.1875,-0.625,8.3125
1589551792.2924473,-0.07,-4.22,9.03,0.4711111111111111,0.23555555555555555,-0.67,-0.1875,-1.0,12.1875
1589551792.3042276,-0.17,-4.05,9.09,0.4711111111111111,0.23555555555555555,-0.67,-0.0625,-1.1875,16.1875
1589551792.3182425,-0.14,-3.97,9.03,0.4711111111111111,0.23555555555555555,-0.67,0.3125,-1.125,21.125
1589551792.3241491,-0.17,-3.93,8.73,0.4711111111111111,0.23555555555555555,-0.67,0.75,-0.75,25.4375
1589551792.3370907,-0.2,-4.07,9.12,0.4711111111111111,0.23555555555555555,-0.67,-0.125,-2.4375,29.625
1589551792.342901,-0.31,-4.14,8.95,0.4633333333333333,0.27555555555555555,-0.6411111111111111,0.1875,-1.875,34.4375
1589551792.3544133,-0.33,-4.18,9.01,0.4633333333333333,0.27555555555555555,-0.6411111111111111,0.75,-1.9375,40.0
1589551792.3642282,-0.31,-4.24,8.87,0.4633333333333333,0.27555555555555555,-0.6411111111111111,0.375,-2.625,45.5625
1589551792.3734446,-0.35,-4.23,8.95,0.4633333333333333,0.27555555555555555,-0.6411111111111111,0.375,-2.875,51.0
1589551792.3857286,-0.46,-4.11,9.03,0.4633333333333333,0.27555555555555555,-0.6411111111111111,0.625,-3.0625,55.875
1589551792.3970788,-0.45,-4.11,9.01,0.4711111111111111,0.2877777777777778,-0.6411111111111111,0.875,-2.8125,61.75
1589551792.404712,-0.5,-4.16,9.05,0.4711111111111111,0.2877777777777778,-0.6411111111111111,0.8125,-3.4375,66.8125
1589551792.4164352,-0.46,-4.16,8.95,0.4711111111111111,0.2877777777777778,-0.6411111111111111,0.625,-3.875,71.25
1589551792.4262922,-0.48,-4.15,8.97,0.4711111111111111,0.2877777777777778,-0.6411111111111111,1.125,-3.875,74.875
1589551792.4357245,-0.47,-4.16,8.95,0.4711111111111111,0.2877777777777778,-0.6411111111111111,1.0625,-4.0625,77.6875
1589551792.4431484,-0.4,-4.12,9.04,0.49,0.3022222222222222,-0.6488888888888888,0.875,-4.4375,79.125
1589551792.4548378,-0.5,-4.02,9.02,0.49,0.3022222222222222,-0.6488888888888888,1.1875,-4.4375,78.9375
1589551792.4642189,-0.53,-4.05,8.84,0.49,0.3022222222222222,-0.6488888888888888,1.5,-3.875,78.9375
1589551792.476112,-0.41,-3.89,9.01,0.49,0.3022222222222222,-0.6488888888888888,1.5625,-4.125,78.625
1589551792.4886293,-0.53,-4.04,9.01,0.49,0.3022222222222222,-0.6488888888888888,1.4375,-3.9375,77.125
1589551792.4957225,-0.59,-4.01,9.09,0.4977777777777778,0.27555555555555555,-0.6411111111111111,1.5625,-3.6875,76.125
1589551792.5077324,-0.65,-4.0,9.06,0.4977777777777778,0.27555555555555555,-0.6411111111111111,1.375,-3.8125,75.1875
1589551792.5141346,-0.65,-3.93,8.93,0.4977777777777778,0.27555555555555555,-0.6411111111111111,1.75,-3.375,74.6875
1589551792.5288708,-0.65,-3.91,9.01,0.4977777777777778,0.27555555555555555,-0.6411111111111111,1.625,-3.3125,73.875
1589551792.5362961,-0.68,-3.98,9.03,0.4977777777777778,0.27555555555555555,-0.6411111111111111,1.5,-3.3125,72.8125
1589551792.546467,-0.68,-3.94,9.05,0.4977777777777778,0.25,-0.6622222222222223,1.375,-3.4375,71.375
1589551792.5543525,-0.7,-3.85,9.05,0.4977777777777778,0.25,-0.6622222222222223,1.375,-3.3125,69.75
1589551792.5643992,-0.84,-4.02,8.92,0.4977777777777778,0.25,-0.6622222222222223,1.0,-3.3125,68.3125
1589551792.5778716,-0.9,-4.06,9.01,0.4977777777777778,0.25,-0.6622222222222223,0.875,-3.3125,67.1875
1589551792.5868587,-0.9,-3.97,9.06,0.4977777777777778,0.25,-0.6622222222222223,1.1875,-3.375,66.25
1589551792.5942748,-0.87,-3.88,9.09,0.5544444444444444,0.2222222222222222,-0.6844444444444444,1.25,-3.125,64.875
1589551792.6068196,-0.96,-3.99,9.14,0.5544444444444444,0.2222222222222222,-0.6844444444444444,0.875,-3.3125,62.625
1589551792.615834,-0.99,-3.97,8.86,0.5544444444444444,0.2222222222222222,-0.6844444444444444,1.0,-2.9375,60.6875
1589551792.6274116,-1.03,-3.97,8.96,0.5544444444444444,0.2222222222222222,-0.6844444444444444,0.9375,-3.125,58.5
1589551792.6403215,-1.53,-4.78,8.77,0.5544444444444444,0.2222222222222222,-0.6844444444444444,0.75,-3.1875,56.5625
1589551792.6471505,-0.91,-4.26,8.91,0.56,0.19,-0.6488888888888888,2.125,-1.0,66.1875
1589551792.659591,-0.86,-4.26,9.11,0.56,0.19,-0.6488888888888888,1.6875,-3.3125,71.0
1589551792.6657028,-0.81,-4.03,8.8,0.56,0.19,-0.6488888888888888,-0.1875,-4.0,66.875
1589551792.6803613,-0.96,-3.92,9.18,0.56,0.19,-0.6488888888888888,-0.1875,-4.4375,59.9375
1589551792.6862712,-0.84,-3.71,8.91,0.56,0.19,-0.6488888888888888,0.9375,-2.1875,51.5625
1589551792.6974425,-0.84,-3.84,8.95,0.6233333333333333,0.13666666666666666,-0.6844444444444444,1.1875,-1.5625,42.3125
1589551792.7048345,-0.73,-3.55,9.09,0.6233333333333333,0.13666666666666666,-0.6844444444444444,0.25,-2.1875,30.375
1589551792.7146106,-0.85,-3.64,8.88,0.6233333333333333,0.13666666666666666,-0.6844444444444444,0.6875,-0.375,16.75
1589551792.7260828,-1.05,-3.6,9.03,0.6233333333333333,0.13666666666666666,-0.6844444444444444,-0.0625,-0.3125,3.5
1589551792.7374089,-1.22,-3.56,9.08,0.6233333333333333,0.13666666666666666,-0.6844444444444444,-0.75,-0.375,-6.8125
1589551792.7441492,-1.52,-3.83,9.07,0.6966666666666667,0.04,-0.6844444444444444,-0.1875,0.25,-13.1875
1589551792.7582202,-1.54,-3.8,9.03,0.6966666666666667,0.04,-0.6844444444444444,-0.0625,0.8125,-16.875
1589551792.7654786,-1.52,-3.76,9.02,0.6966666666666667,0.04,-0.6844444444444444,-0.5,0.1875,-18.0
1589551792.7778196,-1.61,-3.84,8.97,0.6966666666666667,0.04,-0.6844444444444444,-0.25,0.5,-17.5625
1589551792.788586,-1.57,-3.81,9.07,0.6966666666666667,0.04,-0.6844444444444444,0.0,0.625,-15.4375
1589551792.794316,-1.57,-3.77,9.09,0.9466666666666668,-0.16,-0.6055555555555555,-0.5,0.375,-12.6875
1589551792.7999911,-1.57,-3.77,9.09,0.9466666666666668,-0.16,-0.6055555555555555,-0.5,0.375,-12.6875
1589551792.8111012,-1.52,-3.78,9.05,0.9466666666666668,-0.16,-0.6055555555555555,-0.0625,0.5,-9.3125
1589551792.8177936,-1.6,-3.95,8.98,0.9466666666666668,-0.16,-0.6055555555555555,0.0,0.4375,-6.125
1589551792.8310926,-1.49,-3.87,8.9,0.9466666666666668,-0.16,-0.6055555555555555,0.3125,0.6875,-2.9375
1589551792.8378885,-1.42,-3.91,9.06,0.9466666666666668,-0.16,-0.6055555555555555,-0.125,-0.375,-0.4375
1589551792.8457491,-1.38,-3.92,9.06,1.5233333333333334,-0.3,-0.2411111111111111,-1.1875,-1.3125,1.0
1589551792.854853,-1.06,-3.61,8.88,1.5233333333333334,-0.3,-0.2411111111111111,1.0625,1.9375,2.375
1589551792.8685524,-0.99,-3.7,8.84,1.5233333333333334,-0.3,-0.2411111111111111,2.4375,2.4375,1.4375
1589551792.8748672,-0.91,-3.67,9.13,1.5233333333333334,-0.3,-0.2411111111111111,-0.25,0.3125,-2.5625
1589551792.8868592,-0.69,-3.29,8.74,1.5233333333333334,-0.3,-0.2411111111111111,-0.0625,0.875,-6.8125
1589551792.8945086,-0.74,-3.48,9.06,1.2244444444444444,0.1288888888888889,-0.6522222222222223,0.375,0.9375,-11.1875
1589551792.9027677,-0.74,-3.48,9.06,1.2244444444444444,0.1288888888888889,-0.6522222222222223,0.375,0.9375,-11.1875
1589551792.9098258,-0.88,-3.61,9.01,1.2244444444444444,0.1288888888888889,-0.6522222222222223,-1.8125,-1.875,-16.125
1589551792.9164796,-1.13,-3.84,9.23,1.2244444444444444,0.1288888888888889,-0.6522222222222223,-1.875,-2.5,-20.1875
1589551792.9284658,-1.2,-4.05,8.76,1.2244444444444444,0.1288888888888889,-0.6522222222222223,-0.25,0.0,-22.8125
1589551792.9373922,-1.26,-4.03,9.16,1.2244444444444444,0.1288888888888889,-0.6522222222222223,-0.125,1.25,-25.375
1589551792.9480824,-1.25,-3.97,9.15,0.8188888888888889,0.1811111111111111,-0.7211111111111111,-0.5625,0.4375,-28.5625
1589551792.9606893,-1.16,-3.93,9.03,0.8188888888888889,0.1811111111111111,-0.7211111111111111,0.125,1.625,-30.8125
1589551792.9671226,-1.24,-4.02,9.02,0.8188888888888889,0.1811111111111111,-0.7211111111111111,-0.4375,1.125,-33.8125
1589551792.9823909,-1.26,-4.02,8.94,0.8188888888888889,0.1811111111111111,-0.7211111111111111,-0.25,1.0625,-36.25
1589551792.9884858,-1.25,-4.09,9.1,0.8188888888888889,0.1811111111111111,-0.7211111111111111,-0.125,1.75,-37.25
1589551792.9967222,-1.15,-4.1,9.05,0.6677777777777778,0.20555555555555555,-0.7211111111111111,-0.125,1.625,-38.0
1589551793.0084624,-1.19,-4.25,9.17,0.6677777777777778,0.20555555555555555,-0.7211111111111111,-0.4375,1.375,-38.5625
1589551793.0208495,-0.99,-3.96,8.87,0.6677777777777778,0.20555555555555555,-0.7211111111111111,0.0,1.75,-39.3125
1589551793.0273836,-1.1,-4.15,9.13,0.6677777777777778,0.20555555555555555,-0.7211111111111111,-0.125,1.875,-40.5625
1589551793.0426078,-1.09,-4.12,9.03,0.6677777777777778,0.20555555555555555,-0.7211111111111111,-0.875,1.0,-42.8125
1589551793.048082,-0.97,-3.95,8.97,0.6022222222222222,0.26222222222222225,-0.7355555555555555,-0.5,1.625,-43.9375
1589551793.0596542,-0.95,-3.94,9.12,0.6022222222222222,0.26222222222222225,-0.7355555555555555,-0.5625,1.3125,-45.1875
1589551793.0671134,-0.97,-3.87,8.91,0.6022222222222222,0.26222222222222225,-0.7355555555555555,-0.875,1.125,-46.75
1589551793.0769973,-0.88,-3.79,9.06,0.6022222222222222,0.26222222222222225,-0.7355555555555555,-0.4375,1.75,-47.75
1589551793.0890336,-0.83,-3.74,9.02,0.6022222222222222,0.26222222222222225,-0.7355555555555555,-0.1875,1.9375,-48.5
1589551793.0970187,-0.92,-4.04,9.07,0.5755555555555556,0.2766666666666667,-0.73,-0.4375,2.0625,-49.875
1589551793.1099298,-0.95,-4.11,9.03,0.5755555555555556,0.2766666666666667,-0.73,-0.5,2.0,-50.75
1589551793.116331,-0.95,-4.19,8.95,0.5755555555555556,0.2766666666666667,-0.73,-0.5625,2.0625,-50.8125
1589551793.121834,-0.95,-4.19,8.95,0.5755555555555556,0.2766666666666667,-0.73,-0.5625,2.0625,-50.8125
1589551793.1334481,-0.87,-4.14,8.96,0.5755555555555556,0.2766666666666667,-0.73,-0.125,2.0625,-49.5
1589551793.139367,-0.9,-4.21,9.09,0.5755555555555556,0.2766666666666667,-0.73,-0.25,2.0,-48.25
1589551793.1470356,-0.85,-4.19,9.06,0.5688888888888889,0.3022222222222222,-0.7422222222222222,-0.5625,1.6875,-46.875
1589551793.1585815,-0.57,-4.14,8.92,0.5688888888888889,0.3022222222222222,-0.7422222222222222,-0.125,1.8125,-44.625
1589551793.1693738,-0.72,-4.08,9.15,0.5688888888888889,0.3022222222222222,-0.7422222222222222,-1.0,1.0,-46.0
1589551793.1774518,-0.82,-4.09,8.91,0.5688888888888889,0.3022222222222222,-0.7422222222222222,-0.125,2.125,-47.6875
1589551793.190592,-0.92,-4.11,9.12,0.5688888888888889,0.3022222222222222,-0.7422222222222222,-0.25,1.9375,-46.9375
1589551793.197636,-0.9,-4.04,9.1,0.57,0.3111111111111111,-0.75,-0.8125,1.625,-45.25
1589551793.2122214,-0.9,-4.26,9.0,0.57,0.3111111111111111,-0.75,0.0,2.0,-40.3125
1589551793.2183785,-0.93,-4.38,8.96,0.57,0.3111111111111111,-0.75,-0.1875,1.5625,-34.4375
1589551793.2277007,-0.8,-4.31,8.95,0.57,0.3111111111111111,-0.75,-0.0625,1.5625,-27.125
1589551793.23861,-0.75,-4.27,9.1,0.57,0.3111111111111111,-0.75,0.625,1.1875,-19.3125
1589551793.2467468,-0.41,-4.01,9.03,0.5255555555555556,0.31222222222222223,-0.7355555555555555,0.375,0.8125,-9.5625
1589551793.2538366,-0.41,-4.01,9.03,0.5255555555555556,0.31222222222222223,-0.7355555555555555,0.375,0.8125,-9.5625
1589551793.2621114,-0.39,-3.98,9.19,0.5255555555555556,0.31222222222222223,-0.7355555555555555,0.375,0.8125,-9.5625
1589551793.2715974,-0.29,-3.76,8.87,0.5255555555555556,0.31222222222222223,-0.7355555555555555,0.3125,0.8125,-9.375
1589551793.2791755,-0.22,-3.47,9.37,0.5255555555555556,0.31222222222222223,-0.7355555555555555,0.25,0.375,-13.125
1589551793.2898257,-0.2,-3.41,8.78,0.5255555555555556,0.31222222222222223,-0.7355555555555555,0.875,2.0625,-15.8125
1589551793.2966409,-0.23,-3.52,9.28,0.5455555555555556,0.3411111111111111,-0.7355555555555555,0.9375,1.4375,-17.9375
1589551793.307025,-0.23,-3.52,9.28,0.5455555555555556,0.3411111111111111,-0.7355555555555555,0.9375,1.4375,-17.9375
1589551793.3125148,-1.01,-8.31,9.85,0.5455555555555556,0.3411111111111111,-0.7355555555555555,-12.0,12.25,-41.3125
1589551793.320792,-0.31,-1.0,16.35,0.5455555555555556,0.3411111111111111,-0.7355555555555555,-91.3125,-48.4375,-331.75
1589551793.327952,-0.59,-1.12,1.17,0.5455555555555556,0.3411111111111111,-0.7355555555555555,-51.1875,-3.75,-384.125
1589551793.3429143,-1.56,-4.04,10.07,0.5455555555555556,0.3411111111111111,-0.7355555555555555,-1.0625,79.5,-325.0625
1589551793.3484366,-9.85,-10.41,10.42,0.4933333333333334,0.3688888888888889,-0.7088888888888889,79.5625,41.0625,-237.25
1589551793.3627036,1.09,4.56,8.15,0.4933333333333334,0.3688888888888889,-0.7088888888888889,77.125,34.375,-90.125
1589551793.3687258,-0.42,0.43,4.45,0.4933333333333334,0.3688888888888889,-0.7088888888888889,-19.5,-2.625,-45.8125
1589551793.3787498,2.04,-0.61,11.9,0.4933333333333334,0.3688888888888889,-0.7088888888888889,-15.125,-21.0,-26.625
1589551793.3900902,0.68,-0.86,6.01,0.4933333333333334,0.3688888888888889,-0.7088888888888889,13.25,17.125,-21.875
1589551793.4017766,1.0,-2.3,8.95,0.4622222222222222,0.4622222222222222,-0.7,-3.5,-4.75,-11.625
1589551793.4080846,-1.2,-12.85,11.66,0.4622222222222222,0.4622222222222222,-0.7,-3.0,2.6875,23.6875
1589551793.4219995,1.02,-0.87,5.69,0.4622222222222222,0.4622222222222222,-0.7,6.5625,-0.8125,60.375
1589551793.4276495,0.27,-5.15,10.21,0.4622222222222222,0.4622222222222222,-0.7,-1.6875,-6.3125,57.4375
1589551793.441698,0.19,-3.79,7.28,0.4622222222222222,0.4622222222222222,-0.7,-0.5,1.75,67.5625
1589551793.4474418,0.51,-4.01,9.61,0.4222222222222222,0.49,-0.7233333333333334,2.125,-5.125,75.75
1589551793.4581325,0.14,-4.13,8.69,0.4222222222222222,0.49,-0.7233333333333334,1.375,-1.9375,80.1875
1589551793.4708402,0.06,-3.97,8.84,0.4222222222222222,0.49,-0.7233333333333334,0.375,-3.6875,85.1875
1589551793.4793925,0.14,-4.21,9.14,0.4222222222222222,0.49,-0.7233333333333334,0.375,-4.75,90.3125
1589551793.4959269,0.19,-4.68,9.19,0.4222222222222222,0.49,-0.7233333333333334,-0.1875,-5.125,91.75
1589551793.5012858,-1.07,0.43,11.56,0.4622222222222222,0.4488888888888889,-0.6877777777777778,-6.75,-7.6875,44.75
1589551793.5088089,0.43,-5.85,8.84,0.4622222222222222,0.4488888888888889,-0.6877777777777778,8.6875,6.625,19.6875
1589551793.5203981,-1.0,-3.37,8.01,0.4622222222222222,0.4488888888888889,-0.6877777777777778,0.875,1.4375,1.625
1589551793.5301962,0.14,-4.27,9.22,0.4622222222222222,0.4488888888888889,-0.6877777777777778,-3.1875,-4.25,-2.0625
1589551793.541135,-0.02,-4.18,8.96,0.4622222222222222,0.4488888888888889,-0.6877777777777778,-0.375,0.0625,-1.1875
1589551793.5524216,0.05,-4.12,9.03,0.4566666666666666,0.4222222222222222,-0.7211111111111111,-0.0625,0.125,-0.1875
1589551793.5588698,0.0,-4.24,8.95,0.4566666666666666,0.4222222222222222,-0.7211111111111111,-0.125,-0.125,-0.1875
1589551793.572598,-0.06,-4.17,8.85,0.4566666666666666,0.4222222222222222,-0.7211111111111111,0.625,0.1875,-0.3125
1589551793.5790849,0.11,-4.09,9.08,0.4566666666666666,0.4222222222222222,-0.7211111111111111,0.0,-0.375,-0.0625
1589551793.5929124,-0.02,-4.16,8.95,0.4566666666666666,0.4222222222222222,-0.7211111111111111,-0.375,0.0,-0.0625
1589551793.5991983,0.07,-4.15,9.05,0.4566666666666666,0.4355555555555555,-0.7144444444444444,-0.25,-0.125,-0.125
1589551793.6097755,0.03,-4.18,8.95,0.4566666666666666,0.4355555555555555,-0.7144444444444444,0.0,0.1875,-0.1875
1589551793.6193554,0.04,-4.16,8.95,0.4566666666666666,0.4355555555555555,-0.7144444444444444,0.5,-0.0625,-0.0625
1589551793.6321778,0.02,-4.12,8.98,0.4566666666666666,0.4355555555555555,-0.7144444444444444,0.25,0.0,0.125
1589551793.645601,0.05,-4.15,9.04,0.4566666666666666,0.4355555555555555,-0.7144444444444444,-0.1875,0.0625,-0.125
1589551793.6519544,0.03,-4.18,8.97,0.4688888888888889,0.44222222222222224,-0.7144444444444444,-0.25,0.0,-0.125
1589551793.6600664,0.06,-4.14,9.03,0.4688888888888889,0.44222222222222224,-0.7144444444444444,0.0625,0.125,-0.0625
1589551793.6702926,0.01,-4.2,8.91,0.4688888888888889,0.44222222222222224,-0.7144444444444444,0.1875,0.0625,0.0625
1589551793.6804867,0.02,-4.12,9.02,0.4688888888888889,0.44222222222222224,-0.7144444444444444,0.25,0.0625,-0.0625
1589551793.6921375,0.01,-4.16,9.01,0.4688888888888889,0.44222222222222224,-0.7144444444444444,-0.0625,0.1875,0.0
1589551793.7037098,0.05,-4.14,9.03,0.4811111111111111,0.44222222222222224,-0.7088888888888889,-0.0625,-0.125,0.0625
1589551793.710756,0.01,-4.19,8.97,0.4811111111111111,0.44222222222222224,-0.7088888888888889,-0.0625,0.1875,0.0
1589551793.7239542,0.02,-4.14,8.91,0.4811111111111111,0.44222222222222224,-0.7088888888888889,0.25,0.1875,0.0
1589551793.7299604,0.0,-4.18,8.96,0.4811111111111111,0.44222222222222224,-0.7088888888888889,0.25,0.0,0.0625
1589551793.7439206,0.05,-4.11,9.03,0.4811111111111111,0.44222222222222224,-0.7088888888888889,0.125,0.0625,0.0
1589551793.7505655,0.03,-4.17,9.03,0.4811111111111111,0.4355555555555555,-0.7088888888888889,-0.375,-0.0625,0.0
1589551793.7608619,0.02,-4.15,9.0,0.4811111111111111,0.4355555555555555,-0.7088888888888889,-0.125,0.1875,0.0
1589551793.770771,0.02,-4.17,8.9,0.4811111111111111,0.4355555555555555,-0.7088888888888889,0.125,0.125,0.0
1589551793.78078,0.03,-4.14,9.01,0.4811111111111111,0.4355555555555555,-0.7088888888888889,0.1875,0.0,0.0
1589551793.7953365,0.03,-4.15,9.03,0.4811111111111111,0.4355555555555555,-0.7088888888888889,0.1875,0.0,0.0
1589551793.8014464,0.02,-4.15,9.02,0.4755555555555556,0.4488888888888889,-0.73,-0.125,-0.0625,0.0
1589551793.8114974,0.02,-4.17,9.03,0.4755555555555556,0.4488888888888889,-0.73,-0.125,0.0625,-0.0625
1589551793.8240516,0.02,-4.17,8.92,0.4755555555555556,0.4488888888888889,-0.73,0.1875,0.1875,-0.125
1589551793.8309536,0.03,-4.15,8.96,0.4755555555555556,0.4488888888888889,-0.73,0.25,-0.0625,0.0
1589551793.843586,0.03,-4.14,9.02,0.4755555555555556,0.4488888888888889,-0.73,0.1875,0.0,0.0
1589551793.855549,0.04,-4.15,9.03,0.4688888888888889,0.4355555555555555,-0.7144444444444444,-0.25,0.0,0.0625
1589551793.8612995,0.04,-4.18,8.94,0.4688888888888889,0.4355555555555555,-0.7144444444444444,-0.3125,0.125,0.0
1589551793.8749506,0.04,-4.18,8.87,0.4688888888888889,0.4355555555555555,-0.7144444444444444,-0.125,0.0625,-0.0625
1589551793.881265,0.05,-4.15,8.95,0.4688888888888889,0.4355555555555555,-0.7144444444444444,0.125,0.0,-0.0625
1589551793.8975198,0.03,-4.13,9.02,0.4688888888888889,0.4355555555555555,-0.7144444444444444,0.125,0.125,-0.0625
1589551793.9037511,0.04,-4.16,9.02,0.4688888888888889,0.44222222222222224,-0.7144444444444444,0.0625,0.25,-0.0625
1589551793.9118922,0.03,-4.16,9.04,0.4688888888888889,0.44222222222222224,-0.7144444444444444,-0.1875,0.125,0.0
1589551793.9208436,0.02,-4.17,8.93,0.4688888888888889,0.44222222222222224,-0.7144444444444444,0.0,0.1875,0.0
1589551793.9344575,0.03,-4.16,8.96,0.4688888888888889,0.44222222222222224,-0.7144444444444444,0.25,-0.125,0.0625
1589551793.9438536,0.03,-4.15,9.02,0.4688888888888889,0.44222222222222224,-0.7144444444444444,0.25,0.0,-0.0625
1589551793.9515054,0.03,-4.15,9.02,0.4888888888888889,0.44222222222222224,-0.7211111111111111,0.1875,0.0625,-0.0625
1589551793.961065,0.03,-4.17,8.98,0.4888888888888889,0.44222222222222224,-0.7211111111111111,-0.125,0.0625,-0.0625
1589551793.9713142,0.04,-4.17,8.9,0.4888888888888889,0.44222222222222224,-0.7211111111111111,-0.125,-0.0625,0.0
1589551793.9816985,0.03,-4.17,8.95,0.4888888888888889,0.44222222222222224,-0.7211111111111111,0.125,0.125,-0.0625
1589551793.9937732,0.03,-4.16,9.01,0.4888888888888889,0.44222222222222224,-0.7211111111111111,0.25,0.0625,0.0625
1589551794.0036414,0.05,-4.15,9.04,0.4688888888888889,0.42777777777777776,-0.7211111111111111,0.125,0.0,0.125
1589551794.0119448,0.03,-4.15,9.0,0.4688888888888889,0.42777777777777776,-0.7211111111111111,0.0625,0.0625,0.0
1589551794.027164,0.03,-4.16,8.92,0.4688888888888889,0.42777777777777776,-0.7211111111111111,-0.25,0.0625,0.0
1589551794.0329,0.03,-4.16,8.92,0.4688888888888889,0.42777777777777776,-0.7211111111111111,0.0,0.0625,0.0625
1589551794.0464313,0.03,-4.14,9.03,0.4688888888888889,0.42777777777777776,-0.7211111111111111,0.1875,-0.0625,0.0625
1589551794.0530245,0.02,-4.15,9.03,0.4622222222222222,0.42777777777777776,-0.7144444444444444,0.1875,0.0,0.0625
1589551794.0624573,0.02,-4.15,9.03,0.4622222222222222,0.42777777777777776,-0.7144444444444444,0.0,0.125,-0.0625
1589551794.0718286,0.04,-4.18,8.89,0.4622222222222222,0.42777777777777776,-0.7144444444444444,-0.1875,-0.0625,-0.125
1589551794.0824418,0.03,-4.18,8.97,0.4622222222222222,0.42777777777777776,-0.7144444444444444,-0.0625,0.125,-0.0625
1589551794.0942338,0.03,-4.17,8.99,0.4622222222222222,0.42777777777777776,-0.7144444444444444,0.0,0.125,-0.125
1589551794.1059651,0.02,-4.16,9.02,0.4566666666666666,0.42777777777777776,-0.73,0.3125,0.0,0.0
1589551794.1128433,0.04,-4.15,8.98,0.4566666666666666,0.42777777777777776,-0.73,0.0,0.0,0.0
1589551794.1241355,0.02,-4.16,8.91,0.4566666666666666,0.42777777777777776,-0.73,-0.125,0.125,0.0625
1589551794.1328375,0.03,-4.17,8.94,0.4566666666666666,0.42777777777777776,-0.73,-0.0625,0.0,0.0625
