time,acc_x,acc_y,acc_z,mag_x,mag_y,mag_z,gyr_x,gyr_y,gyr_z
1589551809.9747155,-0.07,-4.11,9.08,0.4833333333333333,0.31222222222222223,-0.6677777777777778,0.0,0.0,0.0625
1589551809.9827724,-0.08,-4.13,9.07,0.4688888888888889,0.32666666666666666,-0.6611111111111111,-0.25,-0.375,0.1875
1589551809.9920568,-0.07,-4.1,9.05,0.4688888888888889,0.32666666666666666,-0.6611111111111111,0.0,-0.1875,0.25
1589551810.006933,-0.05,-4.12,8.97,0.4688888888888889,0.32666666666666666,-0.6611111111111111,-0.0625,-0.0625,0.3125
1589551810.013091,-0.07,-4.1,9.02,0.4688888888888889,0.32666666666666666,-0.6611111111111111,0.0625,0.1875,0.1875
1589551810.024816,-0.1,-4.12,9.0,0.4688888888888889,0.32666666666666666,-0.6611111111111111,0.0,0.375,0.25
1589551810.0324664,-0.1,-4.11,9.0,0.4833333333333333,0.32,-0.6533333333333333,-0.0625,0.25,0.3125
1589551810.0452547,-0.09,-4.12,8.98,0.4833333333333333,0.32,-0.6533333333333333,-0.125,-0.1875,0.25
1589551810.0527437,-0.08,-4.13,8.96,0.4833333333333333,0.32,-0.6533333333333333,-0.0625,0.0,0.125
1589551810.0628815,-0.08,-4.11,9.0,0.4833333333333333,0.32,-0.6533333333333333,0.125,-0.375,0.1875
1589551810.0760078,-0.06,-4.11,9.03,0.4833333333333333,0.32,-0.6533333333333333,0.125,-0.25,0.0625
1589551810.0871632,-0.07,-4.15,9.06,0.4955555555555556,0.31222222222222223,-0.6533333333333333,-0.0625,-0.0625,0.1875
1589551810.0939713,-0.06,-4.11,9.05,0.4955555555555556,0.31222222222222223,-0.6533333333333333,0.25,-0.0625,0.125
1589551810.1034675,-0.06,-4.11,8.96,0.4955555555555556,0.31222222222222223,-0.6533333333333333,0.0625,0.25,0.0625
1589551810.1157415,-0.08,-4.13,9.01,0.4955555555555556,0.31222222222222223,-0.6533333333333333,0.125,0.1875,0.0
1589551810.1255744,-0.08,-4.11,9.04,0.4955555555555556,0.31222222222222223,-0.6533333333333333,0.0625,0.3125,-0.1875
1589551810.1330519,-0.09,-4.12,9.03,0.4633333333333333,0.3333333333333333,-0.6533333333333333,-0.125,0.125,-0.1875
1589551810.144862,-0.06,-4.12,9.07,0.4633333333333333,0.3333333333333333,-0.6533333333333333,0.0,0.125,0.0
1589551810.1574025,-0.09,-4.11,8.92,0.4633333333333333,0.3333333333333333,-0.6533333333333333,0.0,0.25,-0.125
1589551810.1635664,-0.08,-4.11,8.97,0.4633333333333333,0.3333333333333333,-0.6533333333333333,0.0625,0.1875,-0.1875
1589551810.1757526,-0.08,-4.14,9.02,0.4633333333333333,0.3333333333333333,-0.6533333333333333,0.1875,0.25,-0.1875
1589551810.1832054,-0.1,-4.11,9.04,0.4755555555555556,0.31222222222222223,-0.6533333333333333,0.0625,0.25,-0.0625
1589551810.1958618,-0.1,-4.12,9.0,0.4755555555555556,0.31222222222222223,-0.6533333333333333,-0.0625,0.1875,-0.125
1589551810.203111,-0.08,-4.1,8.95,0.4755555555555556,0.31222222222222223,-0.6533333333333333,-0.0625,-0.0625,-0.125
1589551810.2133305,-0.09,-4.11,8.98,0.4755555555555556,0.31222222222222223,-0.6533333333333333,-0.125,-0.1875,-0.1875
1589551810.2263193,-0.07,-4.13,9.03,0.4755555555555556,0.31222222222222223,-0.6533333333333333,-0.25,-0.125,-0.1875
1589551810.2376025,-0.07,-4.11,9.02,0.4833333333333333,0.32666666666666666,-0.6966666666666667,-0.1875,-0.125,-0.25
1589551810.2439187,-0.09,-4.13,9.02,0.4833333333333333,0.32666666666666666,-0.6966666666666667,-0.1875,-0.3125,-0.0625
1589551810.2543578,-0.08,-4.12,8.96,0.4833333333333333,0.32666666666666666,-0.6966666666666667,0.0,-0.25,-0.125
1589551810.263474,-0.1,-4.11,9.02,0.4833333333333333,0.32666666666666666,-0.6966666666666667,0.1875,0.0,-0.1875
1589551810.276129,-0.08,-4.11,9.04,0.4833333333333333,0.32666666666666666,-0.6966666666666667,-0.125,-0.1875,-0.125
1589551810.2836342,-0.09,-4.11,9.03,0.4755555555555556,0.32,-0.6466666666666666,-0.1875,-0.0625,0.0
1589551810.2956555,-0.07,-4.12,9.02,0.4755555555555556,0.32,-0.6466666666666666,-0.0625,-0.1875,-0.0625
1589551810.3044305,-0.07,-4.14,8.95,0.4755555555555556,0.32,-0.6466666666666666,-0.0625,-0.0625,-0.0625
1589551810.3148966,-0.09,-4.12,8.99,0.4755555555555556,0.32,-0.6466666666666666,-0.0625,0.0,-0.125
1589551810.327038,-0.09,-4.11,9.03,0.4755555555555556,0.32,-0.6466666666666666,-0.25,0.0,-0.0625
1589551810.334464,-0.08,-4.13,9.03,0.4688888888888889,0.32666666666666666,-0.6533333333333333,-0.0625,0.0625,-0.125
1589551810.3481581,-0.08,-4.11,9.01,0.4688888888888889,0.32666666666666666,-0.6533333333333333,0.0,0.0,-0.25
1589551810.3543162,-0.08,-4.13,8.93,0.4688888888888889,0.32666666666666666,-0.6533333333333333,-0.125,-0.125,-0.25
1589551810.3675206,-0.06,-4.12,9.01,0.4688888888888889,0.32666666666666666,-0.6533333333333333,-0.0625,-0.4375,-0.1875
1589551810.3765295,-0.08,-4.1,9.05,0.4688888888888889,0.32666666666666666,-0.6533333333333333,-0.1875,-0.125,-0.125
1589551810.3844967,-0.09,-4.12,9.09,0.4833333333333333,0.32,-0.6466666666666666,-0.0625,-0.125,-0.1875
1589551810.394661,-0.08,-4.1,9.07,0.4833333333333333,0.32,-0.6466666666666666,0.0,-0.0625,-0.0625
1589551810.4049332,-0.08,-4.11,8.93,0.4833333333333333,0.32,-0.6466666666666666,0.0625,-0.0625,0.0625
1589551810.4148073,-0.12,-4.13,8.97,0.4833333333333333,0.32,-0.6466666666666666,-0.125,0.125,0.0625
1589551810.4276376,-0.06,-4.11,9.03,0.4833333333333333,0.32,-0.6466666666666666,0.0,0.25,0.0625
1589551810.4343915,-0.08,-4.13,9.03,0.4755555555555556,0.3388888888888889,-0.64,0.0625,0.25,0.0
1589551810.4442394,-0.09,-4.12,9.0,0.4755555555555556,0.3388888888888889,-0.64,0.25,0.3125,0.125
1589551810.4559188,-0.08,-4.12,8.92,0.4755555555555556,0.3388888888888889,-0.64,0.1875,0.25,0.0625
1589551810.466532,-0.05,-4.12,8.98,0.4755555555555556,0.3388888888888889,-0.64,0.1875,0.0,-0.0625
1589551810.4813454,-0.08,-4.12,9.03,0.4755555555555556,0.3388888888888889,-0.64,0.1875,0.0625,0.0625
1589551810.4874606,-0.07,-4.11,9.06,0.49,0.32,-0.6677777777777778,0.0,-0.125,0.0625
1589551810.4997954,-0.08,-4.11,9.04,0.49,0.32,-0.6677777777777778,0.0,0.0,0.0
1589551810.5057476,-0.09,-4.11,8.93,0.49,0.32,-0.6677777777777778,0.0,0.0,0.0
1589551810.5196915,-0.07,-4.11,8.99,0.49,0.32,-0.6677777777777778,-0.125,-0.125,0.125
1589551810.5275135,-0.08,-4.12,9.02,0.49,0.32,-0.6677777777777778,-0.0625,0.0,-0.125
1589551810.5390792,-0.07,-4.13,9.03,0.4688888888888889,0.32,-0.6322222222222222,-0.0625,-0.1875,0.0
1589551810.5451612,-0.07,-4.12,8.99,0.4688888888888889,0.32,-0.6322222222222222,0.0625,-0.125,0.0
1589551810.5590475,-0.09,-4.11,8.93,0.4688888888888889,0.32,-0.6322222222222222,0.0625,-0.0625,0.0
1589551810.5648205,-0.09,-4.11,9.0,0.4688888888888889,0.32,-0.6322222222222222,-0.0625,-0.3125,-0.0625
1589551810.577607,-0.07,-4.14,9.05,0.4688888888888889,0.32,-0.6322222222222222,-0.4375,-0.625,0.0625
1589551810.5861578,-0.1,-4.13,9.06,0.4688888888888889,0.32666666666666666,-0.6466666666666666,-0.3125,-0.4375,-0.0625
1589551810.597437,-0.08,-4.11,9.05,0.4688888888888889,0.32666666666666666,-0.6466666666666666,-0.25,-0.6875,0.0625
1589551810.6054382,-0.07,-4.12,8.93,0.4688888888888889,0.32666666666666666,-0.6466666666666666,-0.25,-0.4375,-0.0625
1589551810.6169267,-0.08,-4.13,8.96,0.4688888888888889,0.32666666666666666,-0.6466666666666666,-0.25,0.0,0.0625
1589551810.6297605,-0.08,-4.12,9.02,0.4688888888888889,0.32666666666666666,-0.6466666666666666,-0.125,0.0,0.125
1589551810.6356988,-0.1,-4.11,9.02,0.4833333333333333,0.32666666666666666,-0.6755555555555556,-0.125,0.0625,0.25
1589551810.6514134,-0.08,-4.13,9.05,0.4833333333333333,0.32666666666666666,-0.6755555555555556,0.0625,0.1875,0.375
1589551810.65745,-0.08,-4.12,8.94,0.4833333333333333,0.32666666666666666,-0.6755555555555556,0.125,0.125,0.375
1589551810.6663532,-0.08,-4.1,8.99,0.4833333333333333,0.32666666666666666,-0.6755555555555556,-0.1875,0.0,0.25
1589551810.6787562,-0.09,-4.13,9.01,0.4833333333333333,0.32666666666666666,-0.6755555555555556,-0.25,0.0,0.125
1589551810.6903484,-0.11,-4.14,9.03,0.4955555555555556,0.3333333333333333,-0.6755555555555556,-0.375,-0.25,0.3125
1589551810.6970644,-0.09,-4.11,8.99,0.4955555555555556,0.3333333333333333,-0.6755555555555556,-0.1875,-0.125,0.375
1589551810.7100418,-0.11,-4.09,8.91,0.4955555555555556,0.3333333333333333,-0.6755555555555556,0.0,-0.125,0.375
1589551810.7161179,-0.08,-4.13,8.96,0.4955555555555556,0.3333333333333333,-0.6755555555555556,-0.1875,-0.25,0.375
1589551810.7305582,-0.08,-4.11,9.04,0.4955555555555556,0.3333333333333333,-0.6755555555555556,-0.0625,-0.3125,0.375
1589551810.7371852,-0.06,-4.09,9.04,0.4755555555555556,0.32666666666666666,-0.64,-0.1875,-0.25,0.125
1589551810.7470453,-0.08,-4.09,9.09,0.4755555555555556,0.32666666666666666,-0.64,-0.0625,-0.0625,0.0
1589551810.7561054,-0.08,-4.09,8.96,0.4755555555555556,0.32666666666666666,-0.64,0.0625,-0.125,-0.25
1589551810.7670105,-0.09,-4.12,9.03,0.4755555555555556,0.32666666666666666,-0.64,-0.0625,0.125,-0.3125
1589551810.7787838,-0.09,-4.13,9.03,0.4755555555555556,0.32666666666666666,-0.64,0.125,0.375,-0.125
1589551810.788837,-0.07,-4.16,9.02,0.4688888888888889,0.32666666666666666,-0.68,0.125,0.375,0.125
1589551810.8022392,-0.1,-4.14,8.97,0.4688888888888889,0.32666666666666666,-0.68,-0.125,0.25,0.3125
1589551810.8082073,-0.07,-4.1,8.92,0.4688888888888889,0.32666666666666666,-0.68,-0.1875,0.125,0.25
1589551810.8164833,-0.09,-4.07,8.97,0.4688888888888889,0.32666666666666666,-0.68,0.0,0.0625,0.125
1589551810.8292778,-0.09,-4.08,9.01,0.4688888888888889,0.32666666666666666,-0.68,-0.125,-0.125,0.0
1589551810.8387814,-0.1,-4.09,9.01,0.49,0.32666666666666666,-0.6533333333333333,-0.125,-0.125,-0.375
1589551810.8463998,-0.07,-4.1,9.08,0.49,0.32666666666666666,-0.6533333333333333,-0.625,-0.4375,-0.5625
1589551810.861026,-0.05,-4.08,8.95,0.49,0.32666666666666666,-0.6533333333333333,-0.5625,-0.5,-0.6875
1589551810.8670626,-0.08,-4.05,8.97,0.49,0.32666666666666666,-0.6533333333333333,-0.75,-0.125,-1.125
1589551810.8796873,-0.09,-4.0,9.03,0.49,0.32666666666666666,-0.6533333333333333,-1.125,-0.4375,-1.6875
1589551810.8876975,-0.07,-4.0,9.12,0.4755555555555556,0.32666666666666666,-0.6533333333333333,-1.25,-0.5,-2.1875
1589551810.8971574,-0.09,-3.89,9.05,0.4755555555555556,0.32666666666666666,-0.6533333333333333,-0.9375,-0.375,-2.0625
1589551810.9070358,-0.1,-3.87,8.92,0.4755555555555556,0.32666666666666666,-0.6533333333333333,-0.6875,-0.3125,-2.125
1589551810.91805,-0.1,-3.82,8.96,0.4755555555555556,0.32666666666666666,-0.6533333333333333,-0.75,-0.125,-2.3125
1589551810.9303806,-0.11,-3.77,8.99,0.4755555555555556,0.32666666666666666,-0.6533333333333333,-1.0,-0.4375,-2.8125
1589551810.9403155,-0.17,-3.8,9.04,0.4833333333333333,0.32,-0.6611111111111111,-1.25,-0.5625,-3.9375
1589551810.9484663,-0.22,-3.7,9.01,0.4833333333333333,0.32,-0.6611111111111111,-1.5,-0.6875,-4.6875
1589551810.9601936,-0.28,-3.67,8.98,0.4833333333333333,0.32,-0.6611111111111111,-1.75,-0.4375,-5.1875
1589551810.9668267,-0.29,-3.5,9.0,0.4833333333333333,0.32,-0.6611111111111111,-2.125,-0.5625,-4.5
1589551810.979076,-0.09,-2.81,9.04,0.4833333333333333,0.32,-0.6611111111111111,-1.75,-0.4375,-3.1875
1589551810.98767,0.0,-2.37,9.03,0.4688888888888889,0.31222222222222223,-0.6611111111111111,-1.9375,-0.4375,-1.4375
1589551810.997002,-0.05,-2.6,9.15,0.4688888888888889,0.31222222222222223,-0.6611111111111111,-2.9375,-1.4375,0.3125
1589551811.0120664,-0.02,-2.67,8.96,0.4688888888888889,0.31222222222222223,-0.6611111111111111,-2.625,-1.3125,1.0625
1589551811.0179687,-0.06,-3.02,9.06,0.4688888888888889,0.31222222222222223,-0.6611111111111111,-1.9375,-1.0625,0.3125
1589551811.0334768,-0.24,-2.54,9.42,0.4688888888888889,0.31222222222222223,-0.6611111111111111,-1.3125,-0.875,-0.3125
1589551811.0389967,-0.21,-2.46,8.82,0.4688888888888889,0.3388888888888889,-0.6677777777777778,4.875,3.4375,5.3125
1589551811.051414,-0.34,-2.68,8.53,0.4688888888888889,0.3388888888888889,-0.6677777777777778,2.625,1.3125,14.8125
1589551811.0580785,-0.16,-2.66,9.24,0.4688888888888889,0.3388888888888889,-0.6677777777777778,-2.9375,-4.0,23.5625
1589551811.0678773,-0.23,-2.69,8.7,0.4688888888888889,0.3388888888888889,-0.6677777777777778,1.75,0.375,31.375
1589551811.0793905,-0.19,-2.8,9.17,0.4688888888888889,0.3388888888888889,-0.6677777777777778,0.75,-1.25,37.875
1589551811.0912328,-0.13,-2.72,9.11,0.4755555555555556,0.3333333333333333,-0.6611111111111111,-0.25,-2.0625,44.125
1589551811.0981147,-0.15,-2.8,9.11,0.4755555555555556,0.3333333333333333,-0.6611111111111111,1.0,-1.6875,49.25
1589551811.1094427,-0.16,-2.83,9.01,0.4755555555555556,0.3333333333333333,-0.6611111111111111,0.3125,-2.5,53.5625
1589551811.1190429,-0.16,-2.93,9.0,0.4755555555555556,0.3333333333333333,-0.6611111111111111,0.3125,-3.0625,57.5625
1589551811.130612,-0.16,-2.93,8.98,0.4755555555555556,0.3333333333333333,-0.6611111111111111,0.375,-2.875,61.25
1589551811.1392753,-0.19,-2.93,9.08,0.4633333333333333,0.32666666666666666,-0.6533333333333333,0.25,-3.0,63.875
1589551811.1485245,-0.18,-2.91,9.11,0.4633333333333333,0.32666666666666666,-0.6533333333333333,0.5625,-2.9375,65.9375
1589551811.1643248,-0.2,-2.99,8.99,0.4633333333333333,0.32666666666666666,-0.6533333333333333,0.8125,-2.5625,67.375
1589551811.1708472,-0.22,-3.0,9.11,0.4633333333333333,0.32666666666666666,-0.6533333333333333,0.4375,-3.0625,68.375
1589551811.185301,-0.33,-3.02,9.12,0.4633333333333333,0.32666666666666666,-0.6533333333333333,0.625,-2.875,68.9375
1589551811.1908982,-0.29,-3.05,9.03,0.49,0.30666666666666664,-0.6888888888888889,0.75,-2.6875,69.5
1589551811.2022793,-0.28,-2.92,9.0,0.49,0.30666666666666664,-0.6888888888888889,0.5625,-3.1875,69.625
1589551811.2096074,-0.32,-3.05,8.97,0.49,0.30666666666666664,-0.6888888888888889,1.0,-2.6875,69.4375
1589551811.2230394,-0.29,-3.02,9.05,0.49,0.30666666666666664,-0.6888888888888889,0.25,-3.5,69.1875
1589551811.2310748,-0.37,-3.0,8.94,0.49,0.30666666666666664,-0.6888888888888889,0.4375,-3.0,68.125
1589551811.24326,-0.37,-3.02,9.05,0.5166666666666667,0.28,-0.6677777777777778,0.5625,-2.875,66.625
1589551811.2493641,-0.42,-3.05,9.08,0.5166666666666667,0.28,-0.6677777777777778,0.0625,-3.625,64.6875
1589551811.259581,-0.46,-3.11,8.98,0.5166666666666667,0.28,-0.6677777777777778,0.5625,-3.0,63.25
1589551811.2691824,-0.5,-3.17,8.98,0.5166666666666667,0.28,-0.6677777777777778,0.4375,-2.6875,61.25
1589551811.2814586,-0.53,-3.2,9.03,0.5166666666666667,0.28,-0.6677777777777778,0.5,-2.3125,59.375
1589551811.2888384,-0.57,-3.23,9.14,0.5288888888888889,0.2533333333333333,-0.6755555555555556,0.5,-2.875,57.1875
1589551811.3006568,-0.6,-3.21,9.12,0.5288888888888889,0.2533333333333333,-0.6755555555555556,0.375,-2.25,54.8125
1589551811.309553,-0.71,-3.37,9.06,0.5288888888888889,0.2533333333333333,-0.6755555555555556,0.625,-2.1875,52.75
1589551811.3194673,-0.7,-3.29,9.05,0.5288888888888889,0.2533333333333333,-0.6755555555555556,0.3125,-2.4375,50.0
1589551811.3362446,-0.73,-3.32,9.04,0.5288888888888889,0.2533333333333333,-0.6755555555555556,0.375,-2.1875,47.625
1589551811.3425233,-0.8,-3.3,9.11,0.5422222222222223,0.2344444444444445,-0.7033333333333334,0.1875,-2.25,45.0
1589551811.3494346,-0.73,-3.23,9.03,0.5422222222222223,0.2344444444444445,-0.7033333333333334,0.125,-2.1875,42.375
1589551811.3605428,-0.75,-3.21,8.96,0.5422222222222223,0.2344444444444445,-0.7033333333333334,0.625,-1.6875,39.5625
1589551811.3708966,-0.8,-3.25,9.03,0.5422222222222223,0.2344444444444445,-0.7033333333333334,0.4375,-1.5625,36.8125
1589551811.382558,-0.85,-3.23,9.05,0.5422222222222223,0.2344444444444445,-0.7033333333333334,0.3125,-1.375,33.9375
1589551811.3939753,-0.87,-3.24,9.08,0.5277777777777778,0.21444444444444444,-0.7155555555555555,0.25,-1.5,31.0625
1589551811.3998632,-0.88,-3.25,9.13,0.5277777777777778,0.21444444444444444,-0.7155555555555555,0.125,-1.3125,28.375
1589551811.4127586,-0.89,-3.26,8.98,0.5277777777777778,0.21444444444444444,-0.7155555555555555,0.3125,-0.9375,25.8125
1589551811.4201894,-0.85,-3.2,8.95,0.5277777777777778,0.21444444444444444,-0.7155555555555555,0.6875,-0.375,23.125
1589551811.4322689,-0.91,-3.29,9.2,0.5277777777777778,0.21444444444444444,-0.7155555555555555,0.0625,-1.0,20.125
1589551811.4398124,-0.93,-3.29,9.16,0.56,0.20777777777777776,-0.7377777777777778,-0.0625,-0.9375,16.75
1589551811.4511993,-0.78,-3.08,8.9,0.56,0.20777777777777776,-0.7377777777777778,0.4375,0.125,13.8125
1589551811.4616961,-0.81,-3.1,9.01,0.56,0.20777777777777776,-0.7377777777777778,0.5,0.0,10.0625
1589551811.4710836,-0.83,-3.13,9.12,0.56,0.20777777777777776,-0.7377777777777778,-0.4375,-0.875,6.0
1589551811.4863384,-0.89,-3.21,9.05,0.56,0.20777777777777776,-0.7377777777777778,0.125,0.25,2.4375
1589551811.4918807,-0.94,-3.29,8.96,0.5077777777777778,0.20777777777777776,-0.7444444444444445,0.25,0.625,-1.5
1589551811.500438,-0.98,-3.35,9.2,0.5077777777777778,0.20777777777777776,-0.7444444444444445,-0.5,0.125,-4.75
1589551811.5113,-1.04,-3.45,9.07,0.5077777777777778,0.20777777777777776,-0.7444444444444445,-0.5,-0.125,-7.8125
1589551811.5234473,-0.98,-3.37,9.08,0.5077777777777778,0.20777777777777776,-0.7444444444444445,0.0625,0.875,-10.375
1589551811.5327485,-0.98,-3.37,9.11,0.5077777777777778,0.20777777777777776,-0.7444444444444445,-0.375,0.3125,-12.9375
1589551811.5433435,-0.92,-3.21,9.23,0.52,0.22,-0.7655555555555555,-0.75,0.4375,-15.375
1589551811.5504596,-0.85,-3.08,8.84,0.52,0.22,-0.7655555555555555,-0.5,1.125,-17.5
1589551811.565192,-0.85,-3.03,9.24,0.52,0.22,-0.7655555555555555,-1.625,-0.25,-19.8125
1589551811.5718892,-0.78,-2.86,9.14,0.52,0.22,-0.7655555555555555,-2.1875,-0.5625,-21.375
1589551811.5826876,-0.74,-2.84,8.99,0.52,0.22,-0.7655555555555555,-0.125,1.9375,-22.125
1589551811.5895965,-0.84,-3.15,8.95,0.5255555555555556,0.20555555555555555,-0.8,0.5625,2.4375,-23.25
1589551811.6043186,-0.86,-3.26,9.25,0.5255555555555556,0.20555555555555555,-0.8,-0.75,1.625,-24.5625
1589551811.6105154,-0.87,-3.33,9.02,0.5255555555555556,0.20555555555555555,-0.8,-1.3125,1.0625,-25.875
1589551811.6222768,-0.91,-3.33,8.83,0.5255555555555556,0.20555555555555555,-0.8,-0.125,2.9375,-26.8125
1589551811.6369321,-0.84,-3.24,9.14,0.5255555555555556,0.20555555555555555,-0.8,-0.9375,1.8125,-28.0625
1589551811.644036,-0.87,-3.35,9.08,0.5522222222222222,0.16,-0.8211111111111111,-1.125,1.8125,-28.8125
1589551811.6516404,-0.88,-3.36,9.08,0.5522222222222222,0.16,-0.8211111111111111,-0.75,2.875,-29.3125
1589551811.6633615,-0.85,-3.3,8.81,0.5522222222222222,0.16,-0.8211111111111111,-1.0625,2.9375,-29.4375
1589551811.6716864,-0.91,-3.5,9.11,0.5522222222222222,0.16,-0.8211111111111111,-0.9375,2.25,-29.625
1589551811.6834006,-0.9,-3.45,8.89,0.5522222222222222,0.16,-0.8211111111111111,-1.4375,1.125,-29.8125
1589551811.6955721,-0.97,-3.61,9.2,0.5577777777777778,0.15444444444444444,-0.8,-2.0,1.1875,-27.5625
1589551811.70156,-1.03,-3.69,9.02,0.5577777777777778,0.15444444444444444,-0.8,-1.25,2.0,-25.4375
1589551811.7153993,-1.05,-3.77,8.87,0.5577777777777778,0.15444444444444444,-0.8,-2.0,1.75,-22.9375
1589551811.7218142,-1.03,-3.74,9.03,0.5577777777777778,0.15444444444444444,-0.8,-1.9375,0.875,-20.0625
1589551811.7361825,-1.04,-3.81,9.15,0.5577777777777778,0.15444444444444444,-0.8,-1.375,1.8125,-16.75
1589551811.7417178,-1.02,-3.91,9.05,0.5466666666666666,0.15444444444444444,-0.8211111111111111,-1.125,1.1875,-12.9375
1589551811.7527199,-0.9,-3.7,9.0,0.5466666666666666,0.15444444444444444,-0.8211111111111111,-1.6875,0.4375,-9.375
1589551811.761513,-0.97,-3.79,8.85,0.5466666666666666,0.15444444444444444,-0.8211111111111111,-2.25,-0.8125,-6.1875
1589551811.7751572,-1.01,-3.84,8.93,0.5466666666666666,0.15444444444444444,-0.8211111111111111,-1.875,-0.3125,-2.0
1589551811.7841294,-1.0,-3.88,8.99,0.5466666666666666,0.15444444444444444,-0.8211111111111111,-1.3125,-0.625,1.8125
1589551811.7924366,-0.93,-3.88,9.07,0.54,0.06666666666666668,-0.7588888888888888,-1.3125,-0.6875,4.625
1589551811.8015125,-0.93,-3.84,9.06,0.54,0.06666666666666668,-0.7588888888888888,-1.1875,-0.75,6.3125
1589551811.8124347,-0.96,-3.82,8.95,0.54,0.06666666666666668,-0.7588888888888888,-0.4375,-0.375,7.3125
1589551811.822822,-0.95,-3.78,8.99,0.54,0.06666666666666668,-0.7588888888888888,-0.5625,-0.5625,8.1875
1589551811.8342776,-0.99,-3.79,9.07,0.54,0.06666666666666668,-0.7588888888888888,-0.375,-0.75,8.8125
1589551811.8478026,-1.03,-3.72,9.01,0.5133333333333333,0.08333333333333333,-0.6944444444444444,0.0,-0.375,10.3125
1589551811.8535035,-1.08,-3.82,9.1,0.5133333333333333,0.08333333333333333,-0.6944444444444444,-0.3125,-0.875,11.875
1589551811.8679574,-1.12,-3.8,8.94,0.5133333333333333,0.08333333333333333,-0.6944444444444444,-0.1875,-0.6875,14.5
1589551811.8745468,-1.13,-3.73,9.0,0.5133333333333333,0.08333333333333333,-0.6944444444444444,0.25,-0.6875,18.0
1589551811.887868,-1.16,-3.71,8.81,0.5133333333333333,0.08333333333333333,-0.6944444444444444,0.3125,-0.5625,22.3125
1589551811.893703,-1.2,-3.76,9.15,0.4988888888888889,0.1288888888888889,-0.6733333333333333,-0.3125,-2.4375,26.3125
1589551811.9041693,-1.3,-3.81,9.09,0.4988888888888889,0.1288888888888889,-0.6733333333333333,-0.5,-2.1875,31.25
1589551811.9131453,-1.28,-3.8,8.97,0.4988888888888889,0.1288888888888889,-0.6733333333333333,0.4375,-1.875,36.375
1589551811.9267163,-1.25,-3.77,8.96,0.4988888888888889,0.1288888888888889,-0.6733333333333333,0.3125,-2.0625,40.5625
1589551811.9349597,-1.29,-3.86,9.17,0.4988888888888889,0.1288888888888889,-0.6733333333333333,-0.0625,-2.8125,44.1875
1589551811.946158,-1.31,-3.72,8.98,0.5133333333333333,0.18222222222222226,-0.6444444444444445,0.3125,-2.75,47.875
1589551811.9527972,-1.32,-3.73,9.09,0.5133333333333333,0.18222222222222226,-0.6444444444444445,0.0,-3.125,51.625
1589551811.963226,-1.34,-3.71,8.97,0.5133333333333333,0.18222222222222226,-0.6444444444444445,0.3125,-3.0625,55.625
1589551811.9721513,-1.16,-3.38,8.94,0.5133333333333333,0.18222222222222226,-0.6444444444444445,0.5625,-3.1875,59.5
1589551811.9840677,-1.12,-3.35,9.13,0.5133333333333333,0.18222222222222226,-0.6444444444444445,0.75,-3.3125,62.625
1589551811.9918056,-1.1,-3.31,9.01,0.5255555555555556,0.18777777777777774,-0.6311111111111111,0.9375,-3.25,65.0625
1589551812.0030787,-1.03,-3.23,9.13,0.5255555555555556,0.18777777777777774,-0.6311111111111111,0.8125,-3.625,67.125
1589551812.012722,-1.02,-3.22,8.89,0.5255555555555556,0.18777777777777774,-0.6311111111111111,0.5,-4.125,68.625
1589551812.0257092,-1.24,-3.53,8.98,0.5255555555555556,0.18777777777777774,-0.6311111111111111,1.1875,-3.0625,70.4375
1589551812.0393364,-0.98,-3.28,8.82,0.5255555555555556,0.18777777777777774,-0.6311111111111111,2.6875,-2.375,71.6875
1589551812.0460956,-1.04,-3.29,9.14,0.5455555555555556,0.1688888888888889,-0.6377777777777778,0.875,-4.875,70.25
1589551812.0565104,-1.01,-3.22,9.2,0.5455555555555556,0.1688888888888889,-0.6377777777777778,0.375,-4.4375,68.5625
1589551812.0632913,-1.11,-3.32,8.89,0.5455555555555556,0.1688888888888889,-0.6377777777777778,1.75,-3.1875,66.8125
1589551812.0777054,-1.15,-3.29,9.01,0.5455555555555556,0.1688888888888889,-0.6377777777777778,0.9375,-3.6875,64.3125
1589551812.0858278,-1.19,-3.35,9.2,0.5455555555555556,0.1688888888888889,-0.6377777777777778,1.0,-3.5625,61.75
1589551812.096634,-1.24,-3.22,9.04,0.5455555555555556,0.15555555555555556,-0.6588888888888889,1.4375,-2.75,59.5625
1589551812.103506,-1.23,-3.19,9.06,0.5455555555555556,0.15555555555555556,-0.6588888888888889,1.0625,-3.0,57.0
1589551812.1148605,-1.31,-3.24,8.99,0.5455555555555556,0.15555555555555556,-0.6588888888888889,0.8125,-3.0,53.6875
1589551812.1237965,-1.36,-3.29,9.12,0.5455555555555556,0.15555555555555556,-0.6588888888888889,1.125,-2.25,51.1875
1589551812.1359768,-1.26,-3.07,9.11,0.5455555555555556,0.15555555555555556,-0.6588888888888889,1.25,-2.375,48.1875
1589551812.1437054,-1.35,-3.13,9.15,0.5633333333333334,0.12222222222222222,-0.6733333333333333,0.3125,-2.8125,44.9375
1589551812.1540642,-1.43,-3.24,9.19,0.5633333333333334,0.12222222222222222,-0.6733333333333333,0.875,-2.1875,41.6875
1589551812.1638925,-1.45,-3.18,8.97,0.5633333333333334,0.12222222222222222,-0.6733333333333333,1.1875,-1.75,38.75
1589551812.1765509,-1.32,-3.02,9.14,0.5633333333333334,0.12222222222222222,-0.6733333333333333,0.3125,-2.3125,35.25
1589551812.1916704,-1.43,-3.09,9.02,0.5633333333333334,0.12222222222222222,-0.6733333333333333,0.5,-2.0625,31.4375
1589551812.1974795,-1.82,-3.66,9.37,0.57,0.09555555555555556,-0.6733333333333333,1.0,-1.125,32.3125
1589551812.2070818,-1.25,-3.65,9.11,0.57,0.09555555555555556,-0.6733333333333333,1.5,-0.9375,35.375
1589551812.213938,-0.79,-3.09,8.46,0.57,0.09555555555555556,-0.6733333333333333,1.75,-0.9375,32.875
1589551812.228239,-1.14,-2.99,9.43,0.57,0.09555555555555556,-0.6733333333333333,-3.3125,-5.5,19.5625
1589551812.2356062,-1.41,-2.83,9.51,0.57,0.09555555555555556,-0.6733333333333333,0.1875,-0.5625,11.1875
1589551812.2478206,-1.09,-3.08,8.75,0.5811111111111111,0.05666666666666665,-0.6877777777777778,3.4375,2.3125,5.75
1589551812.2543366,-0.96,-3.04,9.26,0.5811111111111111,0.05666666666666665,-0.6877777777777778,-1.4375,-1.5,-6.125
1589551812.2677867,-0.93,-3.03,9.16,0.5811111111111111,0.05666666666666665,-0.6877777777777778,-0.3125,0.4375,-19.5
1589551812.2736928,-1.33,-2.92,8.85,0.5811111111111111,0.05666666666666665,-0.6877777777777778,1.6875,3.0625,-32.25
1589551812.2854662,-1.49,-3.0,9.05,0.5811111111111111,0.05666666666666665,-0.6877777777777778,-1.625,1.0,-40.75
1589551812.292797,-1.53,-2.87,9.4,0.6533333333333333,-0.03555555555555556,-0.68,-2.4375,-0.1875,-44.375
1589551812.2995713,-1.53,-2.87,9.4,0.6533333333333333,-0.03555555555555556,-0.68,-2.4375,-0.1875,-44.375
1589551812.3143563,-1.5,-3.09,8.94,0.6533333333333333,-0.03555555555555556,-0.68,0.3125,2.5,-43.0625
1589551812.3241706,-1.54,-3.1,9.16,0.6533333333333333,-0.03555555555555556,-0.68,-1.25,0.875,-43.375
1589551812.3368688,-1.65,-3.29,9.3,0.6533333333333333,-0.03555555555555556,-0.68,-0.5,1.9375,-43.125
1589551812.348138,-1.31,-3.14,9.01,0.9333333333333332,-0.29444444444444445,-0.5611111111111111,0.25,2.9375,-41.75
1589551812.355865,-1.44,-3.4,9.24,0.9333333333333332,-0.29444444444444445,-0.5611111111111111,-0.75,0.8125,-42.125
1589551812.3653402,-1.16,-3.15,9.0,0.9333333333333332,-0.29444444444444445,-0.5611111111111111,-0.9375,1.6875,-43.375
1589551812.3739753,-1.3,-3.28,8.97,0.9333333333333332,-0.29444444444444445,-0.5611111111111111,-0.1875,2.375,-46.125
1589551812.3862154,-1.41,-3.46,9.16,0.9333333333333332,-0.29444444444444445,-0.5611111111111111,-0.375,2.25,-47.5
1589551812.400375,-1.22,-3.29,8.95,1.5444444444444445,-0.21666666666666667,-0.4133333333333333,0.1875,3.1875,-47.75
1589551812.407156,-1.22,-3.35,9.03,1.5444444444444445,-0.21666666666666667,-0.4133333333333333,-0.1875,2.1875,-48.8125
1589551812.416415,-1.15,-3.33,9.09,1.5444444444444445,-0.21666666666666667,-0.4133333333333333,-1.25,1.375,-50.625
1589551812.4252253,-1.12,-3.25,9.14,1.5444444444444445,-0.21666666666666667,-0.4133333333333333,-0.5,1.5,-53.5
1589551812.4382336,-1.15,-3.27,9.13,1.5444444444444445,-0.21666666666666667,-0.4133333333333333,-0.9375,1.1875,-55.5625
1589551812.4448895,-1.16,-3.28,9.1,0.8744444444444445,0.06555555555555556,-0.7033333333333334,-0.9375,1.9375,-56.1875
1589551812.4561875,-1.21,-3.47,9.05,0.8744444444444445,0.06555555555555556,-0.7033333333333334,-0.4375,2.125,-56.5625
1589551812.4655714,-1.24,-3.57,8.97,0.8744444444444445,0.06555555555555556,-0.7033333333333334,-0.25,2.5,-56.9375
1589551812.4760818,-1.0,-3.37,9.0,0.8744444444444445,0.06555555555555556,-0.7033333333333334,-0.0625,2.375,-57.5625
1589551812.487621,-1.03,-3.42,9.14,0.8744444444444445,0.06555555555555556,-0.7033333333333334,-0.4375,2.4375,-59.0625
1589551812.4990492,-0.88,-3.32,8.97,0.6433333333333333,0.18444444444444444,-0.7322222222222222,-0.375,2.625,-60.875
1589551812.5073414,-0.96,-3.52,9.3,0.6433333333333333,0.18444444444444444,-0.7322222222222222,-0.6875,1.875,-62.5625
1589551812.5159805,-0.93,-3.6,8.8,0.6433333333333333,0.18444444444444444,-0.7322222222222222,-0.125,3.8125,-63.5
1589551812.5306828,-0.81,-3.49,9.17,0.6433333333333333,0.18444444444444444,-0.7322222222222222,-0.3125,2.5,-65.125
1589551812.538045,-0.88,-3.65,9.13,0.6433333333333333,0.18444444444444444,-0.7322222222222222,-0.875,2.1875,-67.125
1589551812.5509946,-0.86,-3.61,8.93,0.5911111111111111,0.2288888888888889,-0.75,-0.4375,3.1875,-68.5625
1589551812.557609,-0.74,-3.43,9.07,0.5911111111111111,0.2288888888888889,-0.75,-0.6875,2.125,-70.5625
1589551812.5661294,-0.73,-3.33,9.07,0.5911111111111111,0.2288888888888889,-0.75,-0.875,2.1875,-72.6875
1589551812.5770874,-0.69,-3.23,9.22,0.5911111111111111,0.2288888888888889,-0.75,-0.375,3.375,-74.1875
1589551812.5869555,-0.5,-2.91,8.9,0.5911111111111111,0.2288888888888889,-0.75,0.875,5.1875,-74.125
1589551812.5952249,-0.64,-3.25,9.37,0.5866666666666667,0.2766666666666667,-0.75,-0.3125,3.125,-74.8125
1589551812.6093562,-0.64,-3.37,9.25,0.5866666666666667,0.2766666666666667,-0.75,-2.5625,0.6875,-76.4375
1589551812.6167722,-0.51,-3.38,8.77,0.5866666666666667,0.2766666666666667,-0.75,0.0,4.125,-75.375
1589551812.6286767,-0.48,-3.39,8.93,0.5866666666666667,0.2766666666666667,-0.75,-0.1875,3.4375,-77.625
1589551812.6373193,-0.7,-3.63,9.08,0.5866666666666667,0.2766666666666667,-0.75,-1.375,2.5625,-79.0625
1589551812.6481152,-0.83,-3.87,9.04,0.5555555555555556,0.2888888888888889,-0.7444444444444445,0.1875,3.75,-77.4375
1589551812.6560907,-0.95,-3.92,9.13,0.5555555555555556,0.2888888888888889,-0.7444444444444445,-0.4375,3.375,-73.0
1589551812.6654727,-0.97,-4.01,8.97,0.5555555555555556,0.2888888888888889,-0.7444444444444445,-0.25,3.3125,-64.4375
1589551812.675704,-0.96,-4.46,9.12,0.5555555555555556,0.2888888888888889,-0.7444444444444445,0.75,3.125,-51.875
1589551812.6874852,-0.53,-3.62,8.62,0.5555555555555556,0.2888888888888889,-0.7444444444444445,1.375,3.875,-39.4375
1589551812.6955953,-0.31,-3.59,9.47,0.5222222222222223,0.3111111111111111,-0.7588888888888888,0.6875,1.9375,-31.5625
1589551812.7067447,-24.35,-30.74,4.31,0.5222222222222223,0.3111111111111111,-0.7588888888888888,1.5625,3.5,-28.6875
1589551812.7160807,2.04,3.45,3.94,0.5222222222222223,0.3111111111111111,-0.7588888888888888,-62.25,30.6875,-180.875
1589551812.7290478,-1.31,-5.14,7.57,0.5222222222222223,0.3111111111111111,-0.7588888888888888,-177.125,-89.9375,-648.625
1589551812.742532,-14.17,-17.56,3.49,0.5222222222222223,0.3111111111111111,-0.7588888888888888,-109.5625,59.1875,-543.625
1589551812.7488172,0.7,0.89,1.35,0.4977777777777778,0.3655555555555556,-0.7088888888888889,-79.0,111.4375,-345.9375
1589551812.7611465,0.96,-1.11,9.23,0.4977777777777778,0.3655555555555556,-0.7088888888888889,16.0625,-2.6875,-227.625
1589551812.7684903,0.06,-1.38,11.41,0.4977777777777778,0.3655555555555556,-0.7088888888888889,75.0,41.8125,-213.4375
1589551812.7798324,2.08,-9.01,19.77,0.4977777777777778,0.3655555555555556,-0.7088888888888889,151.6875,38.6875,-200.75
1589551812.7880766,-1.57,3.83,1.29,0.4977777777777778,0.3655555555555556,-0.7088888888888889,170.9375,46.0625,-161.4375
1589551812.800094,-0.71,-0.86,6.12,0.3944444444444444,0.5433333333333333,-0.7022222222222222,-21.0,16.6875,-77.875
1589551812.80624,3.56,-0.61,16.13,0.3944444444444444,0.5433333333333333,-0.7022222222222222,-31.8125,-37.75,-40.0
1589551812.8201392,3.34,-6.83,6.15,0.3944444444444444,0.5433333333333333,-0.7022222222222222,23.6875,20.3125,-35.1875
1589551812.8269362,1.01,-0.71,8.13,0.3944444444444444,0.5433333333333333,-0.7022222222222222,3.375,9.625,-12.875
1589551812.8382034,2.89,-1.86,11.43,0.3944444444444444,0.5433333333333333,-0.7022222222222222,-8.0,-14.375,13.0
1589551812.8460686,2.96,-4.2,8.65,0.3422222222222222,0.54,-0.7233333333333334,-1.125,-1.3125,26.875
1589551812.8607068,1.87,-3.5,8.82,0.3422222222222222,0.54,-0.7233333333333334,2.625,2.5,34.375
1589551812.866425,1.65,-3.92,9.05,0.3422222222222222,0.54,-0.7233333333333334,1.6875,-0.625,34.5
1589551812.876321,1.07,-3.91,9.0,0.3422222222222222,0.54,-0.7233333333333334,-0.375,-1.25,31.6875
1589551812.8818333,1.07,-3.91,9.0,0.3422222222222222,0.54,-0.7233333333333334,-0.375,-1.25,31.6875
1589551812.8935766,1.26,-4.21,9.15,0.3422222222222222,0.54,-0.7233333333333334,-0.4375,-1.25,34.0625
1589551812.8991525,1.08,-3.95,8.69,0.33555555555555555,0.5422222222222223,-0.7355555555555555,1.0625,-1.375,36.625
1589551812.9121287,0.85,-4.03,9.11,0.33555555555555555,0.5422222222222223,-0.7355555555555555,0.5,-0.9375,35.4375
1589551812.9185607,0.99,-3.82,8.92,0.33555555555555555,0.5422222222222223,-0.7355555555555555,1.3125,-1.875,36.5625
1589551812.926627,1.03,-3.82,8.88,0.33555555555555555,0.5422222222222223,-0.7355555555555555,-0.375,-1.6875,35.625
1589551812.938774,1.01,-4.2,8.87,0.33555555555555555,0.5422222222222223,-0.7355555555555555,0.5,-1.0,34.25
1589551812.9490864,0.73,-4.01,9.02,0.3622222222222222,0.5244444444444445,-0.7088888888888889,0.0625,-1.3125,32.3125
1589551812.9577553,0.85,-4.13,8.87,0.3622222222222222,0.5244444444444445,-0.7088888888888889,0.625,-1.3125,33.1875
1589551812.9717257,0.73,-3.84,8.95,0.3622222222222222,0.5244444444444445,-0.7088888888888889,0.625,-0.875,33.1875
1589551812.9776187,0.96,-4.11,8.9,0.3622222222222222,0.5244444444444445,-0.7088888888888889,0.8125,-1.4375,33.6875
1589551812.9912028,0.78,-4.19,8.92,0.3622222222222222,0.5244444444444445,-0.7088888888888889,0.0,-1.125,33.625
1589551812.997247,0.79,-4.15,9.13,0.38222222222222224,0.5244444444444445,-0.7144444444444444,-0.1875,-2.25,34.6875
1589551813.0086699,0.79,-3.91,8.99,0.38222222222222224,0.5244444444444445,-0.7144444444444444,-0.1875,-2.5625,36.0625
1589551813.0182602,0.63,-4.03,8.98,0.38222222222222224,0.5244444444444445,-0.7144444444444444,0.6875,-1.5625,37.3125
1589551813.0278485,0.65,-3.92,8.95,0.38222222222222224,0.5244444444444445,-0.7144444444444444,0.875,-1.0,38.625
1589551813.0404167,0.7,-4.22,8.98,0.38222222222222224,0.5244444444444445,-0.7144444444444444,0.0,-2.0625,41.5625
1589551813.0500438,0.57,-4.01,9.07,0.4011111111111111,0.5044444444444445,-0.7155555555555555,-0.5625,-2.1875,42.5
1589551813.063582,0.36,-3.91,8.91,0.4011111111111111,0.5044444444444445,-0.7155555555555555,0.25,-2.0,44.1875
1589551813.0702252,0.44,-4.02,8.92,0.4011111111111111,0.5044444444444445,-0.7155555555555555,0.5625,-2.1875,46.125
1589551813.0774686,0.37,-4.0,8.95,0.4011111111111111,0.5044444444444445,-0.7155555555555555,0.6875,-1.75,48.875
1589551813.0895045,0.35,-4.08,8.92,0.4011111111111111,0.5044444444444445,-0.7155555555555555,0.5,-1.75,51.4375
1589551813.1029618,0.25,-3.91,8.98,0.4133333333333333,0.51,-0.7144444444444444,-0.1875,-2.6875,53.8125
1589551813.1088974,0.39,-3.97,8.89,0.4133333333333333,0.51,-0.7144444444444444,-0.125,-3.125,57.0
1589551813.1226578,0.27,-4.05,8.92,0.4133333333333333,0.51,-0.7144444444444444,0.6875,-2.125,59.8125
1589551813.1292648,0.24,-3.98,8.98,0.4133333333333333,0.51,-0.7144444444444444,0.8125,-2.6875,62.3125
1589551813.1407876,0.15,-3.95,9.12,0.4133333333333333,0.51,-0.7144444444444444,0.1875,-3.0625,65.75
1589551813.1484313,0.13,-4.01,8.94,0.4133333333333333,0.4977777777777778,-0.73,0.0,-3.5,69.75
1589551813.1610215,0.13,-4.02,8.94,0.4133333333333333,0.4977777777777778,-0.73,0.1875,-3.3125,73.75
1589551813.1687667,0.19,-3.99,8.98,0.4133333333333333,0.4977777777777778,-0.73,0.25,-3.9375,77.6875
