time,acc_x,acc_y,acc_z,mag_x,mag_y,mag_z,gyr_x,gyr_y,gyr_z
1589552678.6544616,0.16,-4.22,8.86,0.4933333333333334,0.4222222222222222,-0.6088888888888889,1.0,-3.4375,-2.375
1589552678.6661766,0.14,-4.15,8.88,0.4933333333333334,0.4222222222222222,-0.6088888888888889,5.5,-3.8125,5.25
1589552678.6779716,0.18,-4.13,8.9,0.5188888888888888,0.43,-0.6177777777777778,1.5,-8.5,-2.75
1589552678.6838865,0.21,-4.16,8.9,0.5188888888888888,0.43,-0.6177777777777778,-0.5,-1.1875,8.3125
1589552678.6997054,0.17,-4.23,8.75,0.5188888888888888,0.43,-0.6177777777777778,-1.625,-2.3125,-2.25
1589552678.706497,0.14,-4.22,8.8,0.5188888888888888,0.43,-0.6177777777777778,-9.3125,-0.6875,-3.25
1589552678.7197356,0.13,-4.24,8.84,0.5188888888888888,0.43,-0.6177777777777778,-2.125,-8.75,-2.625
1589552678.7257533,0.11,-4.26,8.85,0.5133333333333333,0.4155555555555556,-0.6255555555555555,-3.75,-0.4375,4.375
1589552678.7361324,0.12,-4.24,8.86,0.5133333333333333,0.4155555555555556,-0.6255555555555555,-0.5,1.4375,7.4375
1589552678.7451894,0.12,-4.26,8.82,0.5133333333333333,0.4155555555555556,-0.6255555555555555,-3.0,-3.9375,5.5
1589552678.7582967,0.13,-4.27,8.85,0.5133333333333333,0.4155555555555556,-0.6255555555555555,6.5,-0.6875,-9.3125
1589552678.7684698,0.15,-4.25,8.92,0.5133333333333333,0.4155555555555556,-0.6255555555555555,-4.5,-7.125,4.5
1589552678.777713,0.16,-4.24,8.92,0.5333333333333333,0.3955555555555556,-0.6177777777777778,-6.125,-1.3125,6.375
1589552678.7848682,0.16,-4.23,8.86,0.5333333333333333,0.3955555555555556,-0.6177777777777778,1.625,-5.3125,0.75
1589552678.7946837,0.16,-4.24,8.8,0.5333333333333333,0.3955555555555556,-0.6177777777777778,1.625,-2.5625,-0.625
1589552678.8048403,0.16,-4.21,8.81,0.5333333333333333,0.3955555555555556,-0.6177777777777778,-4.5,0.0625,6.625
1589552678.8173287,0.19,-4.21,8.9,0.5333333333333333,0.3955555555555556,-0.6177777777777778,-2.875,3.9375,8.0625
1589552678.8240626,0.16,-4.23,8.9,0.5333333333333333,0.4088888888888889,-0.6111111111111112,-2.125,5.1875,2.25
1589552678.8368602,0.15,-4.22,8.9,0.5333333333333333,0.4088888888888889,-0.6111111111111112,3.125,4.0625,-10.6875
1589552678.8501914,0.14,-4.25,8.78,0.5333333333333333,0.4088888888888889,-0.6111111111111112,6.0,-2.0625,6.125
1589552678.8561256,0.13,-4.24,8.8,0.5333333333333333,0.4088888888888889,-0.6111111111111112,0.625,-4.1875,-0.25
1589552678.8711493,0.14,-4.26,8.87,0.5333333333333333,0.4088888888888889,-0.6111111111111112,8.8125,4.3125,-9.8125
1589552678.8767035,0.15,-4.23,8.93,0.5133333333333333,0.4222222222222222,-0.6177777777777778,0.75,-3.6875,0.0
1589552678.8892708,0.16,-4.24,8.87,0.5133333333333333,0.4222222222222222,-0.6177777777777778,-3.75,4.9375,-3.75
1589552678.895866,0.15,-4.26,8.81,0.5133333333333333,0.4222222222222222,-0.6177777777777778,-3.625,-2.3125,3.25
1589552678.9092882,0.15,-4.23,8.78,0.5133333333333333,0.4222222222222222,-0.6177777777777778,-6.125,1.3125,-3.0
1589552678.9172153,0.15,-4.23,8.89,0.5133333333333333,0.4222222222222222,-0.6177777777777778,6.375,7.5,2.375
1589552678.9282017,0.16,-4.2,8.93,0.5188888888888888,0.4088888888888889,-0.6322222222222222,1.0,3.4375,2.0
1589552678.9360387,0.14,-4.2,8.92,0.5188888888888888,0.4088888888888889,-0.6322222222222222,-5.5,0.0625,-1.0
1589552678.9457436,0.15,-4.23,8.77,0.5188888888888888,0.4088888888888889,-0.6322222222222222,1.5,-0.1875,-6.625
1589552678.955519,0.14,-4.25,8.82,0.5188888888888888,0.4088888888888889,-0.6322222222222222,0.625,-3.9375,2.375
1589552678.9676132,0.15,-4.22,8.83,0.5188888888888888,0.4088888888888889,-0.6322222222222222,-2.875,9.5,-6.375
1589552678.9755182,0.15,-4.21,8.89,0.5255555555555556,0.4155555555555556,-0.6177777777777778,-5.0,-3.1875,8.5625
1589552678.9870553,0.16,-4.21,8.87,0.5255555555555556,0.4155555555555556,-0.6177777777777778,-3.5,1.9375,-4.75
1589552678.9957814,0.16,-4.22,8.79,0.5255555555555556,0.4155555555555556,-0.6177777777777778,3.25,3.5625,5.25
1589552679.0079644,0.15,-4.24,8.85,0.5255555555555556,0.4155555555555556,-0.6177777777777778,2.625,1.4375,3.25
1589552679.023196,0.21,-4.24,8.96,0.5255555555555556,0.4155555555555556,-0.6177777777777778,0.25,-1.4375,1.625
1589552679.0295026,0.2,-4.2,8.93,0.54,0.4155555555555556,-0.6044444444444445,3.75,1.5625,-4.75
1589552679.040723,0.11,-4.12,8.75,0.54,0.4155555555555556,-0.6044444444444445,-1.0,1.9375,4.0
1589552679.0468323,0.16,-4.16,8.78,0.54,0.4155555555555556,-0.6044444444444445,0.375,1.3125,-3.625
1589552679.0603974,0.14,-4.22,8.85,0.54,0.4155555555555556,-0.6044444444444445,-2.75,0.0625,-6.375
1589552679.0679238,0.11,-4.2,8.84,0.54,0.4155555555555556,-0.6044444444444445,-3.5,-0.0625,3.375
1589552679.0786846,0.12,-4.25,8.9,0.5133333333333333,0.4033333333333333,-0.6177777777777778,-6.0,-1.4375,-0.5
1589552679.0859802,0.11,-4.3,8.88,0.5133333333333333,0.4033333333333333,-0.6177777777777778,4.125,2.9375,6.5
1589552679.0963962,0.12,-4.22,8.8,0.5133333333333333,0.4033333333333333,-0.6177777777777778,-5.375,-6.8125,10.4375
1589552679.1065285,0.12,-4.22,8.85,0.5133333333333333,0.4033333333333333,-0.6177777777777778,-3.25,1.3125,3.125
1589552679.1184607,0.12,-4.21,8.88,0.5133333333333333,0.4033333333333333,-0.6177777777777778,-3.25,3.3125,2.75
1589552679.1256206,0.15,-4.23,8.93,0.5255555555555556,0.4088888888888889,-0.6111111111111112,-0.625,4.4375,-1.5
1589552679.1385515,0.12,-4.2,8.86,0.5255555555555556,0.4088888888888889,-0.6111111111111112,-2.5,0.8125,0.875
1589552679.1468642,0.13,-4.2,8.77,0.5255555555555556,0.4088888888888889,-0.6111111111111112,0.5,-6.0625,2.5
1589552679.156503,0.14,-4.22,8.82,0.5255555555555556,0.4088888888888889,-0.6111111111111112,7.8125,-0.1875,-5.25
1589552679.1744554,0.13,-4.22,8.86,0.5255555555555556,0.4088888888888889,-0.6111111111111112,0.25,0.0625,0.75
1589552679.1802785,0.14,-4.23,8.89,0.5188888888888888,0.4033333333333333,-0.6177777777777778,2.0,0.5625,0.5
1589552679.1879926,0.14,-4.21,8.89,0.5188888888888888,0.4033333333333333,-0.6177777777777778,2.0,-1.0625,-0.375
1589552679.1985285,0.16,-4.21,8.83,0.5188888888888888,0.4033333333333333,-0.6177777777777778,4.625,-3.3125,2.5
1589552679.2114894,0.15,-4.22,8.86,0.5188888888888888,0.4033333333333333,-0.6177777777777778,-8.0625,0.1875,2.5
1589552679.21883,0.14,-4.19,8.89,0.5188888888888888,0.4033333333333333,-0.6177777777777778,0.25,-10.25,-4.125
1589552679.2312822,0.13,-4.19,8.87,0.5255555555555556,0.4088888888888889,-0.6177777777777778,2.875,0.5625,-7.5625
1589552679.2379394,0.15,-4.19,8.92,0.5255555555555556,0.4088888888888889,-0.6177777777777778,2.25,1.1875,2.125
1589552679.2511475,0.15,-4.18,8.81,0.5255555555555556,0.4088888888888889,-0.6177777777777778,-3.875,-4.4375,-0.5
1589552679.2572055,0.17,-4.17,8.84,0.5255555555555556,0.4088888888888889,-0.6177777777777778,1.75,3.3125,-4.5
1589552679.2689047,0.15,-4.19,8.91,0.5255555555555556,0.4088888888888889,-0.6177777777777778,-2.125,-4.8125,-2.875
1589552679.2760859,0.17,-4.19,8.87,0.5011111111111111,0.4033333333333333,-0.6111111111111112,0.875,-2.8125,-0.75
1589552679.290621,0.18,-4.13,8.91,0.5011111111111111,0.4033333333333333,-0.6111111111111112,-3.25,-0.8125,-1.5
1589552679.297198,0.18,-4.1,8.79,0.5011111111111111,0.4033333333333333,-0.6111111111111112,-2.125,3.1875,-1.75
1589552679.3072374,0.16,-4.19,8.84,0.5011111111111111,0.4033333333333333,-0.6111111111111112,-0.5,-1.0625,0.875
1589552679.3191175,0.14,-4.26,8.88,0.5011111111111111,0.4033333333333333,-0.6111111111111112,0.25,-5.9375,-0.25
1589552679.3301404,0.15,-4.31,8.87,0.5255555555555556,0.4155555555555556,-0.64,2.75,1.0625,-3.75
1589552679.3384528,0.15,-4.27,8.9,0.5255555555555556,0.4155555555555556,-0.64,5.0,3.1875,-0.875
1589552679.347107,0.18,-4.22,8.81,0.5255555555555556,0.4155555555555556,-0.64,-2.875,-2.0625,4.0
1589552679.35753,0.16,-4.19,8.85,0.5255555555555556,0.4155555555555556,-0.64,4.0,-3.1875,-1.625
1589552679.3691072,0.15,-4.25,8.88,0.5255555555555556,0.4155555555555556,-0.64,-5.625,-5.4375,5.0
1589552679.3766112,0.17,-4.2,8.91,0.5255555555555556,0.4222222222222222,-0.6255555555555555,0.125,-4.0625,2.875
1589552679.3876565,0.14,-4.31,8.86,0.5255555555555556,0.4222222222222222,-0.6255555555555555,3.125,-4.6875,-0.375
1589552679.3974686,0.16,-4.28,8.81,0.5255555555555556,0.4222222222222222,-0.6255555555555555,1.125,3.8125,5.125
1589552679.408624,0.17,-4.28,8.8,0.5255555555555556,0.4222222222222222,-0.6255555555555555,8.1875,2.5625,-0.625
1589552679.420186,0.16,-4.23,8.87,0.5255555555555556,0.4222222222222222,-0.6255555555555555,-3.875,-4.1875,4.75
1589552679.4276233,0.16,-4.21,8.9,0.5255555555555556,0.4155555555555556,-0.59,3.375,1.6875,-5.25
1589552679.4422293,0.13,-4.19,8.87,0.5255555555555556,0.4155555555555556,-0.59,-4.375,-3.6875,4.25
1589552679.4480743,0.17,-4.19,8.78,0.5255555555555556,0.4155555555555556,-0.59,-6.75,-0.8125,10.1875
1589552679.4606855,0.15,-4.2,8.87,0.5255555555555556,0.4155555555555556,-0.59,-0.625,-3.0625,0.375
1589552679.4699516,0.17,-4.22,8.85,0.5255555555555556,0.4155555555555556,-0.59,5.75,-4.4375,-7.5625
1589552679.4776,0.14,-4.2,8.85,0.5077777777777778,0.4155555555555556,-0.6044444444444445,-6.0,5.0625,2.25
1589552679.4889526,0.16,-4.19,8.87,0.5077777777777778,0.4155555555555556,-0.6044444444444445,-1.375,-9.0,-4.0
1589552679.4991682,0.16,-4.2,8.78,0.5077777777777778,0.4155555555555556,-0.6044444444444445,5.0,2.5625,-1.25
1589552679.5082855,0.16,-4.16,8.84,0.5077777777777778,0.4155555555555556,-0.6044444444444445,-0.75,0.0625,-2.5
1589552679.5201087,0.19,-4.14,8.89,0.5077777777777778,0.4155555555555556,-0.6044444444444445,1.0,2.4375,-9.3125
1589552679.5277247,0.2,-4.11,8.91,0.5133333333333333,0.4088888888888889,-0.6111111111111112,1.75,-0.6875,-8.3125
1589552679.5393472,0.17,-4.17,8.88,0.5133333333333333,0.4088888888888889,-0.6111111111111112,-3.0,2.8125,8.3125
1589552679.548172,0.17,-4.15,8.79,0.5133333333333333,0.4088888888888889,-0.6111111111111112,-1.125,-0.4375,4.875
1589552679.5588632,0.18,-4.15,8.9,0.5133333333333333,0.4088888888888889,-0.6111111111111112,-1.375,5.8125,-6.5
1589552679.5705614,0.19,-4.15,8.91,0.5133333333333333,0.4088888888888889,-0.6111111111111112,0.875,2.0625,1.75
1589552679.5775928,0.17,-4.15,8.88,0.5188888888888888,0.4088888888888889,-0.6111111111111112,-0.125,5.8125,-6.25
1589552679.5839994,0.17,-4.15,8.88,0.5188888888888888,0.4088888888888889,-0.6111111111111112,-0.125,5.8125,-6.25
1589552679.5985107,0.11,-4.22,8.75,0.5188888888888888,0.4088888888888889,-0.6111111111111112,-1.625,-0.3125,-5.25
1589552679.6113956,0.12,-4.14,8.8,0.5188888888888888,0.4088888888888889,-0.6111111111111112,-2.875,3.4375,-8.8125
1589552679.6204672,-0.17,-3.5,8.72,0.5188888888888888,0.4088888888888889,-0.6111111111111112,2.75,2.5625,-8.9375
1589552679.6307125,0.01,-3.31,9.06,0.5133333333333333,0.4222222222222222,-0.6111111111111112,-2.75,-4.3125,-4.375
1589552679.6385055,0.09,-3.23,8.8,0.5133333333333333,0.4222222222222222,-0.6111111111111112,-5.625,0.9375,-2.625
1589552679.6517415,0.3,-2.64,9.18,0.5133333333333333,0.4222222222222222,-0.6111111111111112,2.75,1.1875,9.6875
1589552679.6588998,0.2,-2.58,8.66,0.5133333333333333,0.4222222222222222,-0.6111111111111112,3.375,-2.0625,-1.5
1589552679.670549,0.16,-2.89,8.95,0.5133333333333333,0.4222222222222222,-0.6111111111111112,8.8125,-2.3125,11.9375
1589552679.6774864,0.11,-2.93,8.83,0.5077777777777778,0.4155555555555556,-0.6044444444444445,-4.0,3.8125,11.6875
1589552679.6877954,0.11,-2.93,8.83,0.5077777777777778,0.4155555555555556,-0.6044444444444445,-4.0,3.8125,11.6875
1589552679.6940439,0.09,-3.01,8.94,0.5077777777777778,0.4155555555555556,-0.6044444444444445,0.125,-0.0625,21.8125
1589552679.7009802,0.03,-2.99,8.8,0.5077777777777778,0.4155555555555556,-0.6044444444444445,3.375,-0.1875,20.5
1589552679.7110515,0.05,-2.98,8.86,0.5077777777777778,0.4155555555555556,-0.6044444444444445,-1.75,-2.6875,27.6875
1589552679.7226148,0.03,-3.05,8.9,0.5077777777777778,0.4155555555555556,-0.6044444444444445,3.875,6.1875,23.8125
1589552679.7312858,0.08,-3.12,9.12,0.5188888888888888,0.4155555555555556,-0.5966666666666667,-4.0,-4.8125,29.875
1589552679.7422712,-0.03,-3.06,8.84,0.5188888888888888,0.4155555555555556,-0.5966666666666667,-4.625,-4.8125,35.8125
1589552679.749597,0.04,-3.2,8.94,0.5188888888888888,0.4155555555555556,-0.5966666666666667,1.5,-0.1875,31.25
1589552679.7652204,-0.04,-3.18,8.94,0.5188888888888888,0.4155555555555556,-0.5966666666666667,5.375,3.8125,31.75
1589552679.7723885,0.02,-3.21,8.7,0.5188888888888888,0.4155555555555556,-0.5966666666666667,-1.25,-0.0625,44.75
1589552679.7832727,-0.15,-3.21,9.01,0.5255555555555556,0.4088888888888889,-0.6255555555555555,-0.375,-3.9375,43.375
1589552679.7895458,-0.2,-3.24,9.15,0.5255555555555556,0.4088888888888889,-0.6255555555555555,6.875,-2.6875,33.5
1589552679.8011382,-0.03,-3.24,8.49,0.5255555555555556,0.4088888888888889,-0.6255555555555555,1.875,-0.5625,46.125
1589552679.8099372,-0.13,-3.3,8.86,0.5255555555555556,0.4088888888888889,-0.6255555555555555,-0.625,-3.6875,52.3125
1589552679.8227973,-0.21,-3.31,8.82,0.5255555555555556,0.4088888888888889,-0.6255555555555555,-1.375,-1.4375,58.125
1589552679.8296013,-0.26,-3.35,9.02,0.5133333333333333,0.4033333333333333,-0.6111111111111112,5.125,-4.3125,58.875
1589552679.8414145,-0.24,-3.26,9.03,0.5133333333333333,0.4033333333333333,-0.6111111111111112,3.75,-3.9375,58.25
1589552679.8501785,-0.18,-3.28,8.84,0.5133333333333333,0.4033333333333333,-0.6111111111111112,-3.5,-3.5625,60.875
1589552679.860438,-0.24,-3.25,8.91,0.5133333333333333,0.4033333333333333,-0.6111111111111112,5.5,-5.6875,64.1875
1589552679.8724082,-0.23,-3.25,8.94,0.5133333333333333,0.4033333333333333,-0.6111111111111112,3.125,-6.4375,67.6875
1589552679.8825552,-0.3,-3.24,9.01,0.54,0.38222222222222224,-0.6255555555555555,2.875,-1.0625,62.25
1589552679.8953006,-0.32,-3.2,8.85,0.54,0.38222222222222224,-0.6255555555555555,7.1875,-5.6875,61.125
1589552679.9014835,-0.43,-3.28,8.92,0.54,0.38222222222222224,-0.6255555555555555,-2.875,-13.875,72.0
1589552679.9155087,-0.46,-3.22,8.91,0.54,0.38222222222222224,-0.6255555555555555,5.0,-9.75,73.5
1589552679.922854,-0.48,-3.26,8.93,0.54,0.38222222222222224,-0.6255555555555555,-2.375,-4.6875,77.6875
1589552679.9306068,-0.53,-3.26,8.97,0.5522222222222222,0.3622222222222222,-0.6322222222222222,-1.875,-5.0625,76.625
1589552679.939754,-0.53,-3.23,8.93,0.5522222222222222,0.3622222222222222,-0.6322222222222222,-1.625,1.5625,87.375
1589552679.9516404,-0.65,-3.29,8.85,0.5522222222222222,0.3622222222222222,-0.6322222222222222,2.125,0.0625,90.75
1589552679.9606864,-0.58,-3.34,8.94,0.5522222222222222,0.3622222222222222,-0.6322222222222222,-3.75,-7.25,87.25
1589552679.9752345,-0.67,-3.3,8.94,0.5522222222222222,0.3622222222222222,-0.6322222222222222,-4.75,-6.8125,93.9375
1589552679.9812047,-0.67,-3.33,9.07,0.56,0.3377777777777778,-0.64,4.375,-2.3125,90.625
1589552679.9922357,-0.69,-3.29,8.96,0.56,0.3377777777777778,-0.64,0.75,-8.125,92.8125
1589552680.0008588,-0.69,-3.26,8.83,0.56,0.3377777777777778,-0.64,8.9375,2.4375,89.25
1589552680.010773,-0.69,-3.35,8.9,0.56,0.3377777777777778,-0.64,-3.75,-4.0625,91.4375
1589552680.0240386,-0.76,-3.4,8.92,0.56,0.3377777777777778,-0.64,7.8125,0.1875,100.25
1589552680.0331285,-0.81,-3.36,8.96,0.5911111111111111,0.3088888888888889,-0.6677777777777778,4.375,4.4375,92.1875
1589552680.0416446,-0.88,-3.36,8.95,0.5911111111111111,0.3088888888888889,-0.6677777777777778,4.75,-0.6875,93.6875
1589552680.0536456,-0.9,-3.27,8.84,0.5911111111111111,0.3088888888888889,-0.6677777777777778,5.25,-5.6875,97.1875
1589552680.0611567,-1.01,-3.35,8.99,0.5911111111111111,0.3088888888888889,-0.6677777777777778,1.625,0.5625,93.1875
1589552680.0735009,-1.0,-3.29,8.96,0.5911111111111111,0.3088888888888889,-0.6677777777777778,-1.75,-4.3125,96.5625
1589552680.0811322,-0.94,-3.24,9.07,0.5955555555555555,0.25555555555555554,-0.6755555555555556,0.125,-1.0625,97.6875
1589552680.0927913,-1.0,-3.28,9.01,0.5955555555555555,0.25555555555555554,-0.6755555555555556,3.25,-10.75,98.625
1589552680.1062965,-1.03,-3.17,8.89,0.5955555555555555,0.25555555555555554,-0.6755555555555556,-1.875,1.3125,102.125
1589552680.1129274,-1.08,-3.2,8.89,0.5955555555555555,0.25555555555555554,-0.6755555555555556,2.875,-5.5625,96.9375
1589552680.1240208,-1.19,-3.24,8.84,0.5955555555555555,0.25555555555555554,-0.6755555555555556,2.375,-5.4375,100.375
1589552680.13136,-1.31,-3.34,9.05,0.5877777777777777,0.2411111111111111,-0.68,2.875,0.0625,90.75
1589552680.1438901,-1.34,-3.32,8.81,0.5877777777777777,0.2411111111111111,-0.68,0.25,-8.75,100.375
1589552680.1514142,-1.3,-3.24,8.87,0.5877777777777777,0.2411111111111111,-0.68,2.25,-5.9375,87.625
1589552680.1616814,-1.35,-3.19,8.92,0.5877777777777777,0.2411111111111111,-0.68,-3.25,-1.6875,87.125
1589552680.1739984,-1.41,-3.19,8.98,0.5877777777777777,0.2411111111111111,-0.68,-4.0,-3.9375,95.9375
1589552680.181712,-1.48,-3.1,9.0,0.5911111111111111,0.17888888888888888,-0.7244444444444444,4.75,3.5625,86.375
1589552680.1960151,-1.45,-3.09,9.02,0.5911111111111111,0.17888888888888888,-0.7244444444444444,0.25,-2.5625,76.625
1589552680.2025466,-1.49,-3.05,8.95,0.5911111111111111,0.17888888888888888,-0.7244444444444444,5.0,0.8125,79.1875
1589552680.2179012,-1.64,-3.1,8.88,0.5911111111111111,0.17888888888888888,-0.7244444444444444,-1.75,-3.9375,80.4375
1589552680.2241213,-1.52,-2.96,8.93,0.5911111111111111,0.17888888888888888,-0.7244444444444444,-1.125,-1.8125,73.0
1589552680.2320256,-1.5,-2.85,9.11,0.5844444444444444,0.16444444444444445,-0.7322222222222222,-0.375,2.5625,77.8125
1589552680.2431571,-1.53,-2.72,8.63,0.5844444444444444,0.16444444444444445,-0.7322222222222222,3.125,-7.125,68.8125
1589552680.254076,-1.56,-2.76,9.07,0.5844444444444444,0.16444444444444445,-0.7322222222222222,-9.0625,-3.0625,70.0
1589552680.261513,-1.69,-2.85,9.08,0.5844444444444444,0.16444444444444445,-0.7322222222222222,7.5625,-11.75,60.875
1589552680.2768226,-1.69,-2.77,9.03,0.5844444444444444,0.16444444444444445,-0.7322222222222222,1.75,-3.1875,64.9375
1589552680.2823074,-1.69,-2.74,9.1,0.56,0.12222222222222222,-0.7466666666666667,-3.5,3.1875,62.625
1589552680.2954507,-1.67,-2.72,8.95,0.56,0.12222222222222222,-0.7466666666666667,-3.125,2.8125,60.5
1589552680.3023868,-1.68,-2.73,9.05,0.56,0.12222222222222222,-0.7466666666666667,-1.5,-10.25,52.8125
1589552680.3127027,-1.64,-2.63,8.97,0.56,0.12222222222222222,-0.7466666666666667,4.5,-2.4375,36.9375
1589552680.325352,-1.77,-2.72,9.12,0.56,0.12222222222222222,-0.7466666666666667,4.0,0.6875,44.875
1589552680.335266,-1.77,-2.7,8.87,0.5844444444444444,0.06,-0.76,-3.25,3.0625,41.1875
1589552680.3429205,-1.77,-2.71,8.91,0.5844444444444444,0.06,-0.76,-2.375,0.8125,52.9375
1589552680.353851,-1.76,-2.64,8.65,0.5844444444444444,0.06,-0.76,-3.625,-3.8125,36.5625
1589552680.3634145,-1.85,-2.77,9.01,0.5844444444444444,0.06,-0.76,-8.1875,-2.3125,42.625
1589552680.3765955,-1.79,-2.71,9.16,0.5844444444444444,0.06,-0.76,-5.5,-5.9375,33.75
1589552680.3839188,-1.95,-2.77,8.99,0.5633333333333334,-0.021111111111111112,-0.7466666666666667,-1.0,8.75,21.9375
1589552680.3955982,-1.84,-2.71,9.09,0.5633333333333334,-0.021111111111111112,-0.7466666666666667,-1.875,-1.0625,20.375
1589552680.4085202,-1.97,-2.78,9.02,0.5633333333333334,-0.021111111111111112,-0.7466666666666667,-6.125,-0.4375,25.9375
1589552680.4151485,-1.94,-2.7,8.8,0.5633333333333334,-0.021111111111111112,-0.7466666666666667,3.375,-2.5625,20.875
1589552680.4299586,-1.99,-2.69,9.13,0.5633333333333334,-0.021111111111111112,-0.7466666666666667,4.0,-0.3125,7.4375
1589552680.4358275,-2.0,-2.66,9.02,0.56,-0.048888888888888885,-0.7377777777777778,-7.8125,-1.5625,24.5625
1589552680.4474206,-2.12,-2.71,9.0,0.56,-0.048888888888888885,-0.7377777777777778,0.125,8.0,17.875
1589552680.453469,-1.96,-2.54,8.79,0.56,-0.048888888888888885,-0.7377777777777778,-0.625,3.8125,7.9375
1589552680.4645092,-2.3,-2.75,9.0,0.56,-0.048888888888888885,-0.7377777777777778,1.0,1.3125,1.375
1589552680.4754176,-2.19,-2.63,9.02,0.56,-0.048888888888888885,-0.7377777777777778,0.25,-6.6875,7.3125
1589552680.4872735,-2.01,-2.48,8.86,0.5488888888888889,-0.09333333333333334,-0.7733333333333333,-2.875,-4.0625,0.125
1589552680.4931474,-2.22,-2.69,9.17,0.5488888888888889,-0.09333333333333334,-0.7733333333333333,-4.375,1.5625,4.5
1589552680.5064375,-2.29,-2.68,8.9,0.5488888888888889,-0.09333333333333334,-0.7733333333333333,3.375,-1.9375,-0.875
1589552680.5134208,-2.27,-2.67,8.94,0.5488888888888889,-0.09333333333333334,-0.7733333333333333,0.0,3.1875,4.875
1589552680.5259528,-2.19,-2.69,8.92,0.5488888888888889,-0.09333333333333334,-0.7733333333333333,1.5,0.4375,-1.625
1589552680.5327456,-2.35,-2.81,9.18,0.48,-0.1288888888888889,-0.6733333333333333,6.125,0.0625,-4.75
1589552680.5441413,-2.26,-2.65,8.8,0.48,-0.1288888888888889,-0.6733333333333333,2.25,3.0625,-0.625
1589552680.5542376,-2.22,-2.66,8.94,0.48,-0.1288888888888889,-0.6733333333333333,2.5,-3.3125,-5.75
1589552680.5636394,-2.26,-2.72,9.04,0.48,-0.1288888888888889,-0.6733333333333333,-1.375,2.1875,13.1875
1589552680.5801427,-2.33,-2.72,9.22,0.48,-0.1288888888888889,-0.6733333333333333,9.3125,6.5625,11.6875
1589552680.5861359,-2.33,-2.72,8.82,0.5044444444444445,-0.08,-0.6377777777777778,-0.125,0.6875,2.75
1589552680.5991454,-2.35,-2.74,8.86,0.5044444444444445,-0.08,-0.6377777777777778,1.0,-4.5625,9.8125
1589552680.6051393,-2.26,-2.7,8.83,0.5044444444444445,-0.08,-0.6377777777777778,0.0,-2.9375,7.8125
1589552680.6146786,-2.28,-2.71,8.8,0.5044444444444445,-0.08,-0.6377777777777778,-0.25,0.6875,1.75
1589552680.6266356,-2.1,-2.58,9.13,0.5044444444444445,-0.08,-0.6377777777777778,-5.625,3.5625,3.125
1589552680.6347241,-2.25,-2.63,9.04,0.5244444444444445,-0.06222222222222223,-0.6166666666666667,7.0625,-1.3125,6.625
1589552680.644658,-2.19,-2.53,8.71,0.5244444444444445,-0.06222222222222223,-0.6166666666666667,3.125,-3.0625,13.8125
1589552680.658638,-2.2,-2.62,9.03,0.5244444444444445,-0.06222222222222223,-0.6166666666666667,-6.75,-1.5625,3.0
1589552680.6645422,-2.31,-2.76,9.35,0.5244444444444445,-0.06222222222222223,-0.6166666666666667,-5.25,3.8125,12.9375
1589552680.6751606,-2.09,-2.64,9.08,0.5244444444444445,-0.06222222222222223,-0.6166666666666667,-1.5,-1.1875,6.875
1589552680.6826205,-2.33,-2.85,9.43,0.5511111111111111,-0.027777777777777776,-0.6233333333333333,-2.875,2.5625,4.25
1589552680.6885355,-2.33,-2.85,9.43,0.5511111111111111,-0.027777777777777776,-0.6233333333333333,-2.875,2.5625,4.25
1589552680.704325,-1.97,-2.61,8.94,0.5511111111111111,-0.027777777777777776,-0.6233333333333333,5.0,-3.8125,-3.0
1589552680.7147539,-2.03,-2.64,9.23,0.5511111111111111,-0.027777777777777776,-0.6233333333333333,2.25,-3.5625,-3.5
1589552680.7288902,-2.13,-2.68,8.9,0.5511111111111111,-0.027777777777777776,-0.6233333333333333,5.625,-3.5625,-14.5
1589552680.7349286,-2.11,-2.63,9.1,0.5688888888888889,-0.0011111111111111113,-0.6233333333333333,-1.375,3.0625,-24.0625
1589552680.7439644,-1.93,-2.54,8.62,0.5688888888888889,-0.0011111111111111113,-0.6233333333333333,-2.125,-3.3125,-25.8125
1589552680.7559426,-1.99,-2.72,9.34,0.5688888888888889,-0.0011111111111111113,-0.6233333333333333,0.25,-2.1875,-28.375
1589552680.7651634,-1.99,-2.65,9.12,0.5688888888888889,-0.0011111111111111113,-0.6233333333333333,1.875,3.9375,-23.3125
1589552680.776833,-1.95,-2.68,8.75,0.5688888888888889,-0.0011111111111111113,-0.6233333333333333,-9.3125,-2.5625,-26.0625
1589552680.788897,-2.17,-2.81,8.73,0.5755555555555556,0.01,-0.6044444444444445,-6.875,-2.3125,-34.125
1589552680.7952552,-1.82,-2.65,9.12,0.5755555555555556,0.01,-0.6044444444444445,0.75,4.6875,-36.8125
1589552680.8084486,-1.75,-2.63,9.5,0.5755555555555556,0.01,-0.6044444444444445,6.875,7.625,-52.4375
1589552680.8151677,-1.33,-2.29,7.71,0.5755555555555556,0.01,-0.6044444444444445,-4.375,-5.3125,-51.8125
1589552680.8292508,-1.07,-2.18,8.12,0.5755555555555556,0.01,-0.6044444444444445,0.875,-4.5625,-56.625
1589552680.8349447,-1.81,-3.06,11.06,0.6,0.03,-0.6322222222222222,0.125,3.4375,-65.0625
1589552680.846414,-1.88,-2.85,8.75,0.6,0.03,-0.6322222222222222,-9.0625,0.5625,-60.0
1589552680.8549776,-1.29,-3.5,9.18,0.6,0.03,-0.6322222222222222,2.875,6.5625,-77.0625
1589552680.8647964,-1.95,-4.31,9.4,0.6,0.03,-0.6322222222222222,1.25,4.8125,-91.3125
1589552680.8769186,-1.36,-3.88,8.03,0.6,0.03,-0.6322222222222222,-5.625,-5.1875,-90.9375
1589552680.8890936,-1.15,-3.77,9.52,0.62,0.024444444444444446,-0.6466666666666666,-0.375,5.8125,-96.4375
1589552680.895296,-1.48,-4.01,9.17,0.62,0.024444444444444446,-0.6466666666666666,0.875,11.875,-101.625
1589552680.907414,-1.72,-4.2,8.65,0.62,0.024444444444444446,-0.6466666666666666,-1.25,7.625,-117.875
1589552680.916126,-1.57,-3.7,8.72,0.62,0.024444444444444446,-0.6466666666666666,-4.25,1.3125,-127.625
1589552680.9266114,-1.39,-3.41,8.81,0.62,0.024444444444444446,-0.6466666666666666,-6.375,7.0,-139.4375
1589552680.9406276,-1.48,-3.39,9.4,0.64,0.054444444444444434,-0.6533333333333333,0.875,12.125,-143.25
1589552680.9480436,-1.8,-3.63,8.82,0.64,0.054444444444444434,-0.6533333333333333,3.625,4.9375,-150.0625
1589552680.9600015,-1.92,-4.04,8.88,0.64,0.054444444444444434,-0.6533333333333333,1.75,3.8125,-136.4375
1589552680.966765,-1.62,-3.83,8.78,0.64,0.054444444444444434,-0.6533333333333333,-5.5,2.4375,-149.5625
1589552680.981015,-1.37,-3.47,8.95,0.64,0.054444444444444434,-0.6533333333333333,3.625,8.375,-137.5625
1589552680.9868832,-1.71,-3.79,9.18,0.7644444444444445,0.0011111111111111113,-0.6322222222222222,-10.0625,4.3125,-136.3125
1589552680.9994242,-1.68,-3.98,8.94,0.7644444444444445,0.0011111111111111113,-0.6322222222222222,-4.375,4.4375,-126.5
1589552681.0063822,-1.49,-3.98,8.93,0.7644444444444445,0.0011111111111111113,-0.6322222222222222,-2.0,6.6875,-117.25
1589552681.0159144,-1.42,-3.89,8.98,0.7644444444444445,0.0011111111111111113,-0.6322222222222222,-7.9375,-3.8125,-117.0
1589552681.0272481,-1.37,-3.86,8.34,0.7644444444444445,0.0011111111111111113,-0.6322222222222222,2.375,12.25,-106.5625
1589552681.0378509,-1.46,-4.04,9.13,1.2133333333333334,-0.12,-0.6044444444444445,5.75,3.6875,-91.9375
1589552681.0465114,-1.36,-3.88,8.78,1.2133333333333334,-0.12,-0.6044444444444445,-2.125,0.4375,-94.6875
1589552681.05783,-1.32,-4.05,8.9,1.2133333333333334,-0.12,-0.6044444444444445,2.5,8.75,-90.375
1589552681.0663085,-1.15,-3.88,8.87,1.2133333333333334,-0.12,-0.6044444444444445,-4.125,7.25,-79.3125
1589552681.0784695,-1.26,-4.0,9.22,1.2133333333333334,-0.12,-0.6044444444444445,5.5,5.5625,-81.4375
1589552681.0902948,-1.16,-3.95,8.84,1.4855555555555555,-0.10444444444444444,-0.8066666666666666,-3.625,2.5625,-73.875
1589552681.0961552,-1.09,-4.01,8.68,1.4855555555555555,-0.10444444444444444,-0.8066666666666666,-5.25,3.0625,-67.0625
1589552681.1116474,-1.28,-4.31,8.92,1.4855555555555555,-0.10444444444444444,-0.8066666666666666,5.875,3.0625,-61.0
1589552681.117861,-1.32,-4.33,8.73,1.4855555555555555,-0.10444444444444444,-0.8066666666666666,1.5,-5.4375,-48.75
1589552681.1318874,-1.32,-4.49,9.0,1.4855555555555555,-0.10444444444444444,-0.8066666666666666,-1.875,-4.4375,-40.0625
1589552681.1384575,-1.01,-4.39,8.98,0.8044444444444444,0.11555555555555555,-0.7233333333333334,-3.875,-3.9375,-30.5
1589552681.1510355,-0.89,-4.26,8.89,0.8044444444444444,0.11555555555555555,-0.7233333333333334,-2.25,7.5,-29.625
1589552681.1571314,-0.87,-4.27,8.89,0.8044444444444444,0.11555555555555555,-0.7233333333333334,-1.375,-1.4375,-27.0625
1589552681.1701381,-0.77,-4.16,8.83,0.8044444444444444,0.11555555555555555,-0.7233333333333334,2.5,0.0625,-24.1875
1589552681.1778202,-0.67,-4.0,8.85,0.8044444444444444,0.11555555555555555,-0.7233333333333334,-3.5,3.4375,-22.1875
1589552681.1890926,-0.55,-3.91,8.92,0.6,0.2288888888888889,-0.6877777777777778,-3.875,1.6875,-17.625
1589552681.1960526,-0.54,-3.83,8.96,0.6,0.2288888888888889,-0.6877777777777778,-3.625,1.5625,-28.125
1589552681.2097163,-0.63,-3.94,8.73,0.6,0.2288888888888889,-0.6877777777777778,-3.125,-5.1875,-22.6875
1589552681.2162714,-0.63,-4.15,8.83,0.6,0.2288888888888889,-0.6877777777777778,-6.25,4.4375,-26.1875
1589552681.229216,-0.64,-4.09,9.07,0.6,0.2288888888888889,-0.6877777777777778,-1.625,11.25,-26.5625
1589552681.238368,-0.64,-4.15,8.76,0.5344444444444445,0.3088888888888889,-0.6944444444444444,3.25,5.0625,-32.75
1589552681.24765,-0.54,-4.0,9.14,0.5344444444444445,0.3088888888888889,-0.6944444444444444,1.75,2.5625,-25.0625
1589552681.2600453,-0.56,-4.14,8.78,0.5344444444444445,0.3088888888888889,-0.6944444444444444,-1.375,3.1875,-22.0625
1589552681.2675273,-0.47,-4.19,8.71,0.5344444444444445,0.3088888888888889,-0.6944444444444444,-5.0,3.8125,-24.6875
1589552681.2843418,-0.39,-4.12,8.9,0.5344444444444445,0.3088888888888889,-0.6944444444444444,-2.125,-0.9375,-28.375
1589552681.290552,-0.46,-4.17,8.93,0.5488888888888889,0.3233333333333333,-0.7088888888888889,-0.625,-3.6875,-25.6875
1589552681.2985759,-0.55,-4.4,8.93,0.5488888888888889,0.3233333333333333,-0.7088888888888889,1.0,0.3125,-30.0
1589552681.307395,-0.52,-4.41,8.79,0.5488888888888889,0.3233333333333333,-0.7088888888888889,-2.75,-7.5,-17.125
1589552681.3221033,-0.38,-4.14,8.79,0.5488888888888889,0.3233333333333333,-0.7088888888888889,-2.75,6.8125,-15.25
1589552681.3287823,-0.39,-4.14,8.82,0.5488888888888889,0.3233333333333333,-0.7088888888888889,-3.5,2.4375,-23.0625
1589552681.3415506,-0.56,-4.35,9.56,0.5722222222222222,0.33555555555555555,-0.7444444444444445,3.125,1.5625,-23.6875
1589552681.3475394,-0.7,-4.29,8.51,0.5722222222222222,0.33555555555555555,-0.7444444444444445,-1.25,8.375,-29.5
1589552681.358054,-0.57,-4.01,8.72,0.5722222222222222,0.33555555555555555,-0.7444444444444445,1.5,-0.3125,-15.0
1589552681.3671696,-0.59,-3.86,9.1,0.5722222222222222,0.33555555555555555,-0.7444444444444445,6.0,-2.1875,-12.3125
1589552681.3793232,-0.49,-3.79,8.73,0.5722222222222222,0.33555555555555555,-0.7444444444444445,0.625,1.6875,-12.0625
1589552681.3862677,-0.39,-3.91,9.04,0.5366666666666666,0.3244444444444444,-0.7233333333333334,1.0,-3.5625,-9.4375
1589552681.3974574,-0.39,-3.91,9.04,0.5366666666666666,0.3244444444444444,-0.7233333333333334,1.0,-3.5625,-9.4375
1589552681.4077652,-0.19,-3.57,8.54,0.5366666666666666,0.3244444444444444,-0.7233333333333334,-9.8125,4.0625,-11.6875
1589552681.4183419,-0.17,-3.67,9.16,0.5366666666666666,0.3244444444444444,-0.7233333333333334,-0.625,2.1875,-29.625
1589552681.4355142,-0.88,-6.76,9.05,0.5366666666666666,0.3244444444444444,-0.7233333333333334,-137.1875,138.625,1.375
1589552681.441005,-18.01,-31.89,6.52,0.5111111111111111,0.3422222222222222,-0.6944444444444444,-208.6875,-224.3125,-603.375
1589552681.4478345,-0.01,1.41,11.85,0.5111111111111111,0.3422222222222222,-0.6944444444444444,-102.375,54.375,-424.75
1589552681.4606473,-1.14,-3.57,2.98,0.5111111111111111,0.3422222222222222,-0.6944444444444444,-94.0625,169.3125,-190.9375
1589552681.4726965,-1.59,-0.43,12.07,0.5111111111111111,0.3422222222222222,-0.6944444444444444,46.375,-18.3125,-170.75
1589552681.4800007,1.33,-0.85,8.06,0.5111111111111111,0.3422222222222222,-0.6944444444444444,95.0625,55.875,-153.1875
1589552681.487109,-0.07,-4.29,7.81,0.4666666666666667,0.4444444444444444,-0.6788888888888889,174.125,-11.25,-90.9375
1589552681.499507,0.93,-2.85,11.06,0.4666666666666667,0.4444444444444444,-0.6788888888888889,148.3125,143.9375,-55.3125
1589552681.512263,0.54,4.31,10.15,0.4666666666666667,0.4444444444444444,-0.6788888888888889,-78.6875,-30.4375,-8.4375
1589552681.5188253,-0.46,-0.04,1.82,0.4666666666666667,0.4444444444444444,-0.6788888888888889,-12.9375,-48.3125,17.875
1589552681.5303614,1.34,-1.41,12.39,0.4666666666666667,0.4444444444444444,-0.6788888888888889,36.1875,15.1875,34.0
1589552681.5378337,0.79,-4.14,4.81,0.4044444444444445,0.5133333333333333,-0.6711111111111111,-15.5,-22.875,66.9375
1589552681.5521958,1.53,-1.91,8.53,0.4044444444444445,0.5133333333333333,-0.6711111111111111,-9.0625,-1.5625,73.125
1589552681.558954,1.8,-3.9,10.96,0.4044444444444445,0.5133333333333333,-0.6711111111111111,1.625,-2.8125,79.3125
1589552681.569658,1.0,-4.46,8.98,0.4044444444444445,0.5133333333333333,-0.6711111111111111,4.25,3.1875,80.4375
1589552681.5799992,0.83,-3.63,9.08,0.4044444444444445,0.5133333333333333,-0.6711111111111111,0.0,-0.1875,89.25
1589552681.5917096,0.39,-4.05,8.56,0.4155555555555556,0.5066666666666667,-0.6844444444444444,-1.125,-3.0625,85.875
1589552681.5995154,0.45,-4.0,8.96,0.4155555555555556,0.5066666666666667,-0.6844444444444444,-0.75,-3.3125,97.3125
1589552681.608399,0.24,-4.31,8.98,0.4155555555555556,0.5066666666666667,-0.6844444444444444,9.4375,3.4375,109.9375
1589552681.624949,0.36,-3.51,8.46,0.4155555555555556,0.5066666666666667,-0.6844444444444444,-2.5,-11.75,107.8125
1589552681.630316,0.17,-4.56,9.14,0.4155555555555556,0.5066666666666667,-0.6844444444444444,0.875,-2.3125,107.3125
1589552681.6388092,0.11,-4.27,8.71,0.4155555555555556,0.4811111111111111,-0.6844444444444444,-2.25,-10.25,116.625
1589552681.6503193,0.27,-4.84,9.16,0.4155555555555556,0.4811111111111111,-0.6844444444444444,6.75,2.0625,115.375
1589552681.6583464,10.25,-16.01,6.9,0.4155555555555556,0.4811111111111111,-0.6844444444444444,-8.5625,19.6875,24.3125
1589552681.6688967,-0.33,0.1,10.1,0.4155555555555556,0.4811111111111111,-0.6844444444444444,9.4375,2.5625,16.5
1589552681.680925,-1.08,-3.36,7.75,0.4155555555555556,0.4811111111111111,-0.6844444444444444,-0.875,1.0625,-0.875
1589552681.687956,-0.12,-3.98,9.03,0.4844444444444445,0.4566666666666666,-0.6888888888888889,-4.25,-5.4375,5.75
1589552681.6941571,-0.12,-3.98,9.03,0.4844444444444445,0.4566666666666666,-0.6888888888888889,-4.25,-5.4375,5.75
1589552681.7049372,0.28,-4.5,9.24,0.4844444444444445,0.4566666666666666,-0.6888888888888889,4.375,3.8125,2.0
1589552681.7118082,0.12,-4.27,8.9,0.4844444444444445,0.4566666666666666,-0.6888888888888889,1.25,7.375,0.5
1589552681.7221885,0.04,-4.16,8.7,0.4844444444444445,0.4566666666666666,-0.6888888888888889,2.625,4.6875,-9.8125
1589552681.7309856,0.12,-4.37,8.96,0.4844444444444445,0.4566666666666666,-0.6888888888888889,4.625,3.3125,-3.375
1589552681.7427788,0.05,-4.14,8.76,0.49,0.43,-0.6677777777777778,5.75,4.6875,-2.375
1589552681.7493148,0.06,-4.15,8.8,0.49,0.43,-0.6677777777777778,0.125,-2.5625,-2.25
1589552681.7598882,0.09,-4.27,8.78,0.49,0.43,-0.6677777777777778,-7.5625,-2.0625,1.375
1589552681.7743108,0.09,-4.24,8.85,0.49,0.43,-0.6677777777777778,2.5,1.8125,-8.5625
1589552681.7822564,0.05,-4.21,8.81,0.49,0.43,-0.6677777777777778,3.375,-4.6875,-1.375
1589552681.7948525,0.06,-4.25,8.86,0.4844444444444445,0.4244444444444445,-0.6533333333333333,5.125,2.8125,2.75
1589552681.8008685,0.09,-4.2,8.88,0.4844444444444445,0.4244444444444445,-0.6533333333333333,0.375,0.5625,-3.75
1589552681.814323,0.09,-4.26,8.82,0.4844444444444445,0.4244444444444445,-0.6533333333333333,1.75,5.4375,-2.375
1589552681.8203578,0.09,-4.29,8.88,0.4844444444444445,0.4244444444444445,-0.6533333333333333,-3.375,1.6875,6.5
1589552681.832293,0.06,-4.23,8.8,0.4844444444444445,0.4244444444444445,-0.6533333333333333,1.5,-1.0625,-2.75
1589552681.8400776,0.09,-4.25,8.9,0.4777777777777778,0.4311111111111111,-0.6733333333333333,1.75,-0.1875,-9.8125
1589552681.8517144,0.09,-4.22,8.93,0.4777777777777778,0.4311111111111111,-0.6733333333333333,-3.375,8.125,2.25
1589552681.8604085,0.09,-4.22,8.83,0.4777777777777778,0.4311111111111111,-0.6733333333333333,-6.625,1.5625,-1.125
1589552681.8734038,0.07,-4.23,8.82,0.4777777777777778,0.4311111111111111,-0.6733333333333333,7.5625,9.25,-9.9375
1589552681.882567,0.08,-4.24,8.84,0.4777777777777778,0.4311111111111111,-0.6733333333333333,-5.625,1.1875,-4.125
1589552681.892513,0.06,-4.24,8.83,0.4511111111111111,0.4388888888888889,-0.68,0.0,2.3125,-0.25
1589552681.9006193,0.11,-4.24,8.9,0.4511111111111111,0.4388888888888889,-0.68,1.75,0.6875,6.25
1589552681.9107275,0.07,-4.2,8.79,0.4511111111111111,0.4388888888888889,-0.68,1.875,1.1875,-4.25
1589552681.9227335,0.09,-4.23,8.82,0.4511111111111111,0.4388888888888889,-0.68,1.875,4.0625,10.8125
1589552681.9330258,0.09,-4.24,8.85,0.4511111111111111,0.4388888888888889,-0.68,0.25,-5.1875,4.375
1589552681.9404476,0.09,-4.25,8.92,0.4922222222222222,0.4388888888888889,-0.6944444444444444,-7.5625,7.25,-3.375
1589552681.95121,0.08,-4.23,8.86,0.4922222222222222,0.4388888888888889,-0.6944444444444444,4.625,2.5625,-0.375
1589552681.961866,0.09,-4.23,8.81,0.4922222222222222,0.4388888888888889,-0.6944444444444444,2.0,-1.0625,2.0
1589552681.9737446,0.09,-4.23,8.83,0.4922222222222222,0.4388888888888889,-0.6944444444444444,-1.625,3.8125,-0.375
1589552681.9865785,0.09,-4.27,8.89,0.4922222222222222,0.4388888888888889,-0.6944444444444444,4.625,-3.8125,5.625
1589552681.9922905,0.08,-4.22,8.86,0.4866666666666667,0.4311111111111111,-0.68,2.75,-0.3125,-2.375
1589552682.005171,0.09,-4.24,8.83,0.4866666666666667,0.4311111111111111,-0.68,7.6875,-1.4375,-5.75
1589552682.0118198,0.09,-4.21,8.78,0.4866666666666667,0.4311111111111111,-0.68,3.5,3.8125,-8.6875
1589552682.025927,0.09,-4.24,8.85,0.4866666666666667,0.4311111111111111,-0.68,5.5,2.5625,-1.625
1589552682.0334446,0.08,-4.24,8.83,0.4866666666666667,0.4311111111111111,-0.68,-5.125,-4.4375,-8.6875
1589552682.0437655,0.11,-4.23,8.89,0.4866666666666667,0.4311111111111111,-0.6711111111111111,5.25,6.1875,1.375
