time,acc_x,acc_y,acc_z,mag_x,mag_y,mag_z,gyr_x,gyr_y,gyr_z
1589551830.3160243,-0.19,-4.13,8.96,0.4577777777777778,0.3333333333333333,-0.6711111111111111,0.25,0.25,-0.125
1589551830.3216574,-0.17,-4.13,9.0,0.4577777777777778,0.3333333333333333,-0.6711111111111111,0.0625,0.0625,-0.0625
1589551830.3356538,-0.28,-4.03,8.78,0.4577777777777778,0.3333333333333333,-0.6711111111111111,-0.125,-0.0625,-0.0625
1589551830.341366,0.02,-4.24,9.38,0.4577777777777778,0.3411111111111111,-0.6711111111111111,-0.5625,-1.0,0.1875
1589551830.3528962,-0.26,-4.05,8.8,0.4577777777777778,0.3411111111111111,-0.6711111111111111,0.4375,0.75,0.0625
1589551830.3593333,-0.09,-4.17,9.06,0.4577777777777778,0.3411111111111111,-0.6711111111111111,-0.0625,-0.0625,0.0625
1589551830.3722475,-0.2,-4.11,9.02,0.4577777777777778,0.3411111111111111,-0.6711111111111111,0.4375,0.4375,0.0
1589551830.3797195,-0.18,-4.12,9.06,0.4577777777777778,0.3411111111111111,-0.6711111111111111,0.1875,0.375,-0.125
1589551830.392037,-0.18,-4.1,9.07,0.4722222222222222,0.3411111111111111,-0.6644444444444444,0.1875,0.125,-0.0625
1589551830.3986278,-0.13,-4.12,9.02,0.4722222222222222,0.3411111111111111,-0.6644444444444444,0.1875,0.0625,-0.0625
1589551830.4115713,-0.17,-4.09,8.96,0.4722222222222222,0.3411111111111111,-0.6644444444444444,0.125,0.0,-0.0625
1589551830.4176602,-0.2,-4.08,8.85,0.4722222222222222,0.3411111111111111,-0.6644444444444444,-0.1875,-0.6875,0.0
1589551830.4321306,-0.09,-4.17,9.28,0.4722222222222222,0.3411111111111111,-0.6644444444444444,0.0,-0.25,-0.0625
1589551830.4382794,-0.1,-4.15,9.17,0.4722222222222222,0.3411111111111111,-0.6433333333333333,-0.1875,-0.125,-0.0625
1589551830.4508808,-0.18,-4.08,8.98,0.4722222222222222,0.3411111111111111,-0.6433333333333333,0.0,0.125,0.0625
1589551830.4580126,-0.17,-4.11,8.96,0.4722222222222222,0.3411111111111111,-0.6433333333333333,0.0625,0.125,0.125
1589551830.4676812,-0.2,-4.08,8.92,0.4722222222222222,0.3411111111111111,-0.6433333333333333,-0.0625,0.0625,-0.0625
1589551830.4804552,-0.12,-4.16,9.1,0.4722222222222222,0.3411111111111111,-0.6433333333333333,-0.375,-0.625,0.0
1589551830.4912884,-0.15,-4.12,9.17,0.4455555555555555,0.3411111111111111,-0.6577777777777778,-0.25,-0.4375,-0.25
1589551830.4981613,-0.19,-4.1,8.94,0.4455555555555555,0.3411111111111111,-0.6577777777777778,-0.125,0.1875,-0.125
1589551830.5088494,-0.15,-4.09,8.9,0.4455555555555555,0.3411111111111111,-0.6577777777777778,0.125,-0.0625,0.0
1589551830.5188735,-0.17,-4.12,9.0,0.4455555555555555,0.3411111111111111,-0.6577777777777778,0.125,0.0625,-0.0625
1589551830.531038,-0.15,-4.09,9.04,0.4455555555555555,0.3411111111111111,-0.6577777777777778,0.1875,-0.0625,-0.0625
1589551830.537777,-0.18,-4.09,9.03,0.4511111111111111,0.3411111111111111,-0.65,0.0625,0.0625,-0.125
1589551830.5496633,-0.16,-4.12,9.01,0.4511111111111111,0.3411111111111111,-0.65,0.0625,0.0625,0.0
1589551830.5626373,-0.13,-4.11,8.93,0.4511111111111111,0.3411111111111111,-0.65,0.0625,0.1875,0.0625
1589551830.5693064,-0.15,-4.1,8.99,0.4511111111111111,0.3411111111111111,-0.65,0.125,0.1875,0.0625
1589551830.5812807,-0.16,-4.09,9.03,0.4511111111111111,0.3411111111111111,-0.65,0.25,0.125,0.0625
1589551830.5879884,-0.16,-4.11,9.08,0.4511111111111111,0.3411111111111111,-0.6577777777777778,0.125,0.0,-0.125
1589551830.601562,-0.16,-4.11,9.06,0.4511111111111111,0.3411111111111111,-0.6577777777777778,0.0625,-0.125,0.0
1589551830.607995,-0.17,-4.1,9.0,0.4511111111111111,0.3411111111111111,-0.6577777777777778,0.125,0.125,0.0
1589551830.6184714,-0.14,-4.12,9.02,0.4511111111111111,0.3411111111111111,-0.6577777777777778,0.0,-0.0625,0.0625
1589551830.6310096,-0.17,-4.11,9.03,0.4511111111111111,0.3411111111111111,-0.6577777777777778,0.0,0.0,0.0
1589551830.6382813,-0.16,-4.13,9.01,0.4577777777777778,0.3411111111111111,-0.65,0.0625,0.0,-0.0625
1589551830.6491587,-0.15,-4.11,8.99,0.4577777777777778,0.3411111111111111,-0.65,0.0625,0.0,0.0625
1589551830.660785,-0.16,-4.1,8.93,0.4577777777777778,0.3411111111111111,-0.65,0.125,0.125,-0.125
1589551830.668809,-0.17,-4.13,8.98,0.4577777777777778,0.3411111111111111,-0.65,0.125,0.1875,-0.0625
1589551830.6808422,-0.15,-4.11,9.0,0.4577777777777778,0.3411111111111111,-0.65,0.125,0.3125,0.125
1589551830.6888266,-0.14,-4.11,9.06,0.4655555555555556,0.3333333333333333,-0.6433333333333333,0.0625,0.375,0.0
1589551830.6989975,-0.15,-4.1,9.04,0.4655555555555556,0.3333333333333333,-0.6433333333333333,0.1875,0.0,0.0625
1589551830.7087505,-0.16,-4.11,8.97,0.4655555555555556,0.3333333333333333,-0.6433333333333333,0.0625,0.0,-0.0625
1589551830.720423,-0.17,-4.1,9.01,0.4655555555555556,0.3333333333333333,-0.6433333333333333,-0.0625,0.125,0.0625
1589551830.7319481,-0.16,-4.12,9.05,0.4655555555555556,0.3333333333333333,-0.6433333333333333,-0.0625,0.125,0.0625
1589551830.738477,-0.16,-4.13,9.01,0.4722222222222222,0.3333333333333333,-0.6288888888888889,0.0625,0.3125,-0.125
1589551830.7537014,-0.16,-4.13,9.05,0.4722222222222222,0.3333333333333333,-0.6288888888888889,0.0,0.3125,0.0
1589551830.7604024,-0.16,-4.11,8.92,0.4722222222222222,0.3333333333333333,-0.6288888888888889,0.0,0.25,-0.125
1589551830.7727153,-0.17,-4.1,8.99,0.4722222222222222,0.3333333333333333,-0.6288888888888889,-0.0625,0.0625,-0.125
1589551830.7814019,-0.16,-4.09,9.03,0.4722222222222222,0.3333333333333333,-0.6288888888888889,0.0625,0.1875,-0.0625
1589551830.793002,-0.19,-4.13,9.02,0.4655555555555556,0.3411111111111111,-0.6288888888888889,-0.1875,-0.0625,-0.0625
1589551830.7993972,0.01,-4.22,9.44,0.4655555555555556,0.3411111111111111,-0.6288888888888889,-0.5,-0.9375,-0.0625
1589551830.8124616,-0.28,-4.02,8.64,0.4655555555555556,0.3411111111111111,-0.6288888888888889,0.25,0.25,-0.125
1589551830.819493,-0.06,-4.19,9.14,0.4655555555555556,0.3411111111111111,-0.6288888888888889,-0.1875,-0.125,0.0625
1589551830.8319454,-0.16,-4.11,9.05,0.4655555555555556,0.3411111111111111,-0.6288888888888889,0.0,0.1875,-0.0625
1589551830.8389196,-0.18,-4.12,9.04,0.4722222222222222,0.3411111111111111,-0.6288888888888889,-0.125,0.0625,-0.125
1589551830.8492718,-0.19,-4.1,9.05,0.4722222222222222,0.3411111111111111,-0.6288888888888889,0.0625,-0.0625,-0.0625
1589551830.859972,-0.17,-4.13,8.93,0.4722222222222222,0.3411111111111111,-0.6288888888888889,0.0,0.0625,-0.0625
1589551830.8725412,-0.15,-4.12,8.98,0.4722222222222222,0.3411111111111111,-0.6288888888888889,-0.0625,0.25,-0.125
1589551830.8826752,-0.16,-4.12,9.0,0.4722222222222222,0.3411111111111111,-0.6288888888888889,-0.0625,0.0625,0.1875
1589551830.8922465,-0.17,-4.13,9.03,0.4511111111111111,0.3477777777777778,-0.65,0.0,0.0,-0.0625
1589551830.9045966,-0.17,-4.13,8.98,0.4511111111111111,0.3477777777777778,-0.65,0.0625,0.0625,-0.0625
1589551830.9112976,-0.17,-4.11,8.95,0.4511111111111111,0.3477777777777778,-0.65,0.0625,0.0,-0.0625
1589551830.9244401,-0.17,-4.12,9.01,0.4511111111111111,0.3477777777777778,-0.65,0.125,0.1875,-0.1875
1589551830.932594,-0.15,-4.08,9.05,0.4511111111111111,0.3477777777777778,-0.65,-0.0625,0.125,0.0
1589551830.9431586,-0.15,-4.11,9.04,0.4577777777777778,0.3411111111111111,-0.6355555555555555,-0.0625,0.0,0.0
1589551830.9501376,-0.16,-4.11,9.03,0.4577777777777778,0.3411111111111111,-0.6355555555555555,0.0,-0.0625,0.0625
1589551830.9603086,-0.17,-4.12,8.95,0.4577777777777778,0.3411111111111111,-0.6355555555555555,0.0625,0.0625,-0.0625
1589551830.9694335,-0.16,-4.12,9.0,0.4577777777777778,0.3411111111111111,-0.6355555555555555,-0.0625,-0.0625,-0.125
1589551830.9821017,-0.17,-4.11,9.03,0.4577777777777778,0.3411111111111111,-0.6355555555555555,-0.0625,0.0625,-0.0625
1589551830.989841,-0.18,-4.12,9.05,0.4577777777777778,0.3411111111111111,-0.6644444444444444,0.0625,0.0,0.0
1589551831.0000002,-0.16,-4.1,9.04,0.4577777777777778,0.3411111111111111,-0.6644444444444444,0.0625,0.125,0.0
1589551831.0100546,-0.17,-4.11,8.96,0.4577777777777778,0.3411111111111111,-0.6644444444444444,0.0,0.0625,-0.0625
1589551831.0200346,-0.18,-4.11,9.0,0.4577777777777778,0.3411111111111111,-0.6644444444444444,0.0625,-0.0625,0.125
1589551831.0347517,-0.17,-4.12,9.05,0.4577777777777778,0.3411111111111111,-0.6644444444444444,-0.125,-0.0625,-0.0625
1589551831.0414367,-0.15,-4.1,9.09,0.4455555555555555,0.3288888888888889,-0.6433333333333333,-0.1875,-0.0625,0.0
1589551831.0506046,-0.16,-4.1,9.01,0.4455555555555555,0.3288888888888889,-0.6433333333333333,-0.0625,-0.0625,-0.0625
1589551831.060091,-0.14,-4.14,8.92,0.4455555555555555,0.3288888888888889,-0.6433333333333333,0.0625,-0.0625,-0.0625
1589551831.0701606,-0.19,-4.11,8.96,0.4455555555555555,0.3288888888888889,-0.6433333333333333,0.0625,-0.0625,0.0625
1589551831.0829036,-0.17,-4.11,9.03,0.4455555555555555,0.3288888888888889,-0.6433333333333333,0.0,0.0625,-0.25
1589551831.0949357,-0.17,-4.12,9.07,0.4655555555555556,0.3477777777777778,-0.6433333333333333,-0.0625,0.0,-0.125
1589551831.1009288,-0.15,-4.12,9.05,0.4655555555555556,0.3477777777777778,-0.6433333333333333,-0.1875,0.0,0.0
1589551831.1144278,-0.17,-4.13,8.94,0.4655555555555556,0.3477777777777778,-0.6433333333333333,0.125,-0.0625,0.0625
1589551831.121056,-0.17,-4.1,9.01,0.4655555555555556,0.3477777777777778,-0.6433333333333333,-0.0625,-0.0625,0.0
1589551831.1362202,-0.17,-4.1,9.05,0.4655555555555556,0.3477777777777778,-0.6433333333333333,-0.0625,-0.1875,0.0625
1589551831.1427255,-0.18,-4.1,9.03,0.4455555555555555,0.3477777777777778,-0.6644444444444444,-0.1875,-0.0625,-0.0625
1589551831.1524026,-0.17,-4.11,8.97,0.4455555555555555,0.3477777777777778,-0.6644444444444444,-0.25,-0.25,-0.0625
1589551831.1605325,-0.17,-4.13,8.94,0.4455555555555555,0.3477777777777778,-0.6644444444444444,-0.25,-0.3125,-0.1875
1589551831.1712658,-0.17,-4.12,8.98,0.4455555555555555,0.3477777777777778,-0.6644444444444444,-0.3125,-0.3125,0.0625
1589551831.183541,-0.16,-4.12,9.0,0.4455555555555555,0.3477777777777778,-0.6644444444444444,-0.1875,-0.25,-0.125
1589551831.1938179,-0.17,-4.11,9.03,0.4777777777777778,0.3411111111111111,-0.6355555555555555,-0.25,-0.6875,0.0
1589551831.2009313,-0.14,-4.13,9.06,0.4777777777777778,0.3411111111111111,-0.6355555555555555,-0.375,-0.6875,0.0625
1589551831.2123315,-0.15,-4.12,8.96,0.4777777777777778,0.3411111111111111,-0.6355555555555555,-0.375,-0.6875,0.0625
1589551831.2210765,-0.15,-4.13,9.02,0.4777777777777778,0.3411111111111111,-0.6355555555555555,-0.25,-0.25,-0.25
1589551831.2342055,-0.17,-4.12,9.04,0.4777777777777778,0.3411111111111111,-0.6355555555555555,-0.25,-0.375,-0.0625
1589551831.2436721,-0.15,-4.11,9.05,0.4655555555555556,0.3411111111111111,-0.6577777777777778,-0.1875,-0.25,-0.0625
1589551831.251036,-0.16,-4.1,9.05,0.4655555555555556,0.3411111111111111,-0.6577777777777778,-0.1875,-0.375,-0.0625
1589551831.2658982,-0.14,-4.04,8.94,0.4655555555555556,0.3411111111111111,-0.6577777777777778,-0.25,-0.5625,-0.1875
1589551831.2725365,-0.14,-4.02,9.01,0.4655555555555556,0.3411111111111111,-0.6577777777777778,-0.1875,-0.625,-0.5
1589551831.2837505,-0.17,-4.07,9.01,0.4655555555555556,0.3411111111111111,-0.6577777777777778,0.0625,-0.25,-1.4375
1589551831.2915187,-0.13,-4.12,9.08,0.4844444444444445,0.3411111111111111,-0.6711111111111111,0.0625,0.125,-2.4375
1589551831.3056655,-0.13,-4.15,9.02,0.4844444444444445,0.3411111111111111,-0.6711111111111111,0.125,0.25,-2.8125
1589551831.311566,-0.12,-4.15,8.95,0.4844444444444445,0.3411111111111111,-0.6711111111111111,-0.1875,0.375,-2.625
1589551831.322552,-0.15,-4.11,8.95,0.4844444444444445,0.3411111111111111,-0.6711111111111111,-0.0625,0.3125,-2.0
1589551831.3337092,-0.14,-4.11,9.02,0.4844444444444445,0.3411111111111111,-0.6711111111111111,-0.125,0.3125,-1.625
1589551831.3449304,-0.13,-4.06,9.05,0.4577777777777778,0.3477777777777778,-0.6433333333333333,-0.25,0.3125,-1.4375
1589551831.3518064,-0.16,-4.06,9.07,0.4577777777777778,0.3477777777777778,-0.6433333333333333,-0.375,-0.25,-1.3125
1589551831.3620107,-0.17,-4.08,8.92,0.4577777777777778,0.3477777777777778,-0.6433333333333333,-0.625,-0.5625,-1.4375
1589551831.3722599,0.07,-4.15,9.44,0.4577777777777778,0.3477777777777778,-0.6433333333333333,-1.1875,-1.1875,-1.5625
1589551831.3866212,-0.18,-4.21,8.77,0.4577777777777778,0.3477777777777778,-0.6433333333333333,-1.125,-1.3125,-2.375
1589551831.392996,-0.18,-4.15,9.0,0.4722222222222222,0.3288888888888889,-0.6288888888888889,0.375,1.0,-2.875
1589551831.4020314,-0.15,-4.11,8.84,0.4722222222222222,0.3288888888888889,-0.6288888888888889,-1.0,-1.125,-2.5
1589551831.4117794,-0.19,-4.09,8.86,0.4722222222222222,0.3288888888888889,-0.6288888888888889,0.375,0.6875,-2.4375
1589551831.4233966,-0.12,-4.05,9.03,0.4722222222222222,0.3288888888888889,-0.6288888888888889,0.25,0.1875,-2.5
1589551831.4390109,-0.19,-4.06,8.94,0.4722222222222222,0.3288888888888889,-0.6288888888888889,0.0,0.0625,-2.8125
1589551831.444191,-0.17,-3.98,9.05,0.4577777777777778,0.3477777777777778,-0.6522222222222223,-0.0625,0.0625,-3.1875
1589551831.4567642,-0.16,-3.89,9.07,0.4577777777777778,0.3477777777777778,-0.6522222222222223,-0.625,-0.5625,-3.25
1589551831.4635592,-0.22,-3.78,8.99,0.4577777777777778,0.3477777777777778,-0.6522222222222223,-1.0625,-0.8125,-3.625
1589551831.4755495,-0.48,-3.47,8.92,0.4577777777777778,0.3477777777777778,-0.6522222222222223,-1.3125,-0.8125,-4.25
1589551831.4842653,-0.44,-3.31,9.15,0.4577777777777778,0.3477777777777778,-0.6522222222222223,-1.875,-1.5,-3.9375
1589551831.4947548,-0.48,-2.83,8.97,0.4655555555555556,0.3333333333333333,-0.6588888888888889,-1.5625,-0.6875,-1.9375
1589551831.5029054,-0.45,-2.68,9.21,0.4655555555555556,0.3333333333333333,-0.6588888888888889,-1.625,-0.75,0.6875
1589551831.5126538,-0.27,-3.05,8.85,0.4655555555555556,0.3333333333333333,-0.6588888888888889,-2.3125,-1.5,4.1875
1589551831.5229552,-0.24,-2.84,9.35,0.4655555555555556,0.3333333333333333,-0.6588888888888889,-1.5,-0.9375,5.25
1589551831.5343854,-0.22,-2.56,8.64,0.4655555555555556,0.3333333333333333,-0.6588888888888889,-1.0625,-0.1875,7.5625
1589551831.5436544,-0.19,-2.81,9.2,0.4511111111111111,0.3555555555555556,-0.6433333333333333,0.5,-1.625,33.0625
1589551831.5534976,-0.09,-2.83,8.87,0.4511111111111111,0.3555555555555556,-0.6433333333333333,0.5,-1.625,33.0625
1589551831.5677488,-0.1,-2.96,9.14,0.4511111111111111,0.3555555555555556,-0.6433333333333333,0.375,-2.5,48.0
1589551831.573805,0.0,-2.9,9.0,0.4511111111111111,0.3555555555555556,-0.6433333333333333,0.6875,-1.625,51.9375
1589551831.5906312,0.0,-3.07,9.39,0.4511111111111111,0.3555555555555556,-0.6433333333333333,0.0,-3.0625,53.1875
1589551831.5967104,0.0,-2.99,8.9,0.4577777777777778,0.3333333333333333,-0.6666666666666666,0.625,-1.6875,53.375
1589551831.6044974,0.0,-3.06,9.21,0.4577777777777778,0.3333333333333333,-0.6666666666666666,0.25,-2.6875,52.375
1589551831.6158607,-0.08,-3.08,9.01,0.4577777777777778,0.3333333333333333,-0.6666666666666666,0.5625,-1.875,51.125
1589551831.624642,-0.14,-3.16,9.05,0.4577777777777778,0.3333333333333333,-0.6666666666666666,-0.0625,-2.625,50.4375
1589551831.6361976,-0.17,-3.16,9.06,0.4577777777777778,0.3333333333333333,-0.6666666666666666,0.25,-2.5,49.375
1589551831.648292,-0.14,-3.06,8.9,0.4655555555555556,0.3144444444444445,-0.6577777777777778,0.625,-2.125,48.0625
1589551831.654276,-0.17,-3.12,8.87,0.4655555555555556,0.3144444444444445,-0.6577777777777778,0.3125,-2.0625,46.0
1589551831.6641445,-0.22,-3.22,9.05,0.4655555555555556,0.3144444444444445,-0.6577777777777778,0.25,-2.3125,43.875
1589551831.6741574,-0.22,-3.18,9.05,0.4655555555555556,0.3144444444444445,-0.6577777777777778,0.25,-2.0,41.5
1589551831.6865554,-0.26,-3.3,9.08,0.4655555555555556,0.3144444444444445,-0.6577777777777778,0.3125,-1.8125,39.0625
1589551831.6952515,-0.26,-3.15,9.02,0.4722222222222222,0.31222222222222223,-0.6433333333333333,0.625,-1.125,36.5625
1589551831.7042592,-0.33,-3.31,9.14,0.4722222222222222,0.31222222222222223,-0.6433333333333333,0.375,-1.5625,33.8125
1589551831.7189114,-0.33,-3.26,9.07,0.4722222222222222,0.31222222222222223,-0.6433333333333333,0.3125,-0.875,31.5
1589551831.7251313,-0.31,-3.2,8.84,0.4722222222222222,0.31222222222222223,-0.6433333333333333,0.5625,-0.9375,29.25
1589551831.7410517,-0.33,-3.2,8.94,0.4722222222222222,0.31222222222222223,-0.6433333333333333,0.3125,-0.625,26.875
1589551831.7471788,-0.36,-3.17,8.93,0.4844444444444445,0.28,-0.6788888888888889,0.0,-1.5,24.9375
1589551831.7538974,-0.42,-3.24,9.24,0.4844444444444445,0.28,-0.6788888888888889,-0.4375,-1.8125,23.5625
1589551831.765592,-0.42,-3.22,8.84,0.4844444444444445,0.28,-0.6788888888888889,0.5,-0.875,23.0625
1589551831.7768912,-0.44,-3.26,9.37,0.4844444444444445,0.28,-0.6788888888888889,0.0625,-1.25,21.9375
1589551831.7873585,-0.44,-3.14,8.76,0.4844444444444445,0.28,-0.6788888888888889,0.375,-0.3125,20.8125
1589551831.7987466,-0.48,-3.22,9.24,0.4988888888888889,0.28,-0.6644444444444444,-0.125,-1.375,20.0
1589551831.804741,-0.47,-3.19,9.21,0.4988888888888889,0.28,-0.6644444444444444,-0.1875,-1.3125,19.0
1589551831.8178706,-0.46,-3.16,8.96,0.4988888888888889,0.28,-0.6644444444444444,0.5625,-0.625,18.375
1589551831.8255248,-0.45,-3.17,9.02,0.4988888888888889,0.28,-0.6644444444444444,0.125,-0.625,16.6875
1589551831.838069,-0.45,-3.05,9.1,0.4988888888888889,0.28,-0.6644444444444444,-0.4375,-1.4375,14.75
1589551831.8453093,-0.46,-3.14,9.1,0.5044444444444445,0.28,-0.6933333333333334,0.125,-0.875,12.9375
1589551831.855467,-0.49,-3.16,9.01,0.5044444444444445,0.28,-0.6933333333333334,0.0,-0.875,11.0625
1589551831.8661685,-0.53,-3.19,9.13,0.5044444444444445,0.28,-0.6933333333333334,0.5,-0.125,9.4375
1589551831.8778045,-0.49,-3.23,8.92,0.5044444444444445,0.28,-0.6933333333333334,0.375,0.0625,7.75
1589551831.8867698,-0.49,-3.16,9.19,0.5044444444444445,0.28,-0.6933333333333334,-0.375,-1.125,5.75
1589551831.898161,-0.54,-3.21,9.15,0.5044444444444445,0.2733333333333333,-0.6933333333333334,0.125,0.125,4.75
1589551831.9049554,-0.56,-3.25,8.98,0.5044444444444445,0.2733333333333333,-0.6933333333333334,0.5625,0.25,4.1875
1589551831.917051,-0.53,-3.11,8.93,0.5044444444444445,0.2733333333333333,-0.6933333333333334,0.0,-0.1875,3.4375
1589551831.9311063,-0.6,-3.23,9.13,0.5044444444444445,0.2733333333333333,-0.6933333333333334,-0.125,-0.4375,3.0625
1589551831.9364045,-0.59,-3.24,9.31,0.5044444444444445,0.2733333333333333,-0.6933333333333334,0.875,1.5,3.375
1589551831.9497795,-0.6,-3.36,9.49,0.5244444444444445,0.2877777777777778,-0.72,0.6875,-0.0625,3.5
1589551831.9555,-0.5,-2.99,8.94,0.5244444444444445,0.2877777777777778,-0.72,0.3125,0.6875,3.8125
1589551831.97085,-0.51,-3.05,8.57,0.5244444444444445,0.2877777777777778,-0.72,-0.4375,-0.75,3.875
1589551831.9776833,-0.6,-3.25,9.36,0.5244444444444445,0.2877777777777778,-0.72,-1.375,-2.4375,4.0
1589551831.9871993,-0.53,-3.07,8.88,0.5244444444444445,0.2877777777777778,-0.72,0.5625,0.9375,5.0
1589551831.9938226,-0.58,-3.13,9.02,0.5044444444444445,0.2877777777777778,-0.7288888888888889,0.5625,0.0625,5.5
1589551832.001325,-0.58,-3.13,9.02,0.5044444444444445,0.2877777777777778,-0.7288888888888889,0.5625,0.0625,5.5
1589551832.0156016,-0.61,-3.36,8.95,0.5044444444444445,0.2877777777777778,-0.7288888888888889,-0.125,-0.5,5.8125
1589551832.0258858,-0.58,-3.32,9.13,0.5044444444444445,0.2877777777777778,-0.7288888888888889,-0.5625,-0.5,5.5625
1589551832.0369868,-0.64,-3.41,8.94,0.5044444444444445,0.2877777777777778,-0.7288888888888889,0.25,0.125,5.375
1589551832.0487525,-0.7,-3.61,9.19,0.4988888888888889,0.29444444444444445,-0.7477777777777778,0.5,0.1875,5.4375
1589551832.0558245,-0.6,-3.35,8.97,0.4988888888888889,0.29444444444444445,-0.7477777777777778,-0.25,0.3125,4.8125
1589551832.0655515,-0.58,-3.38,8.91,0.4988888888888889,0.29444444444444445,-0.7477777777777778,0.0625,-0.0625,4.0625
1589551832.0758047,-0.54,-3.32,9.08,0.4988888888888889,0.29444444444444445,-0.7477777777777778,0.1875,-0.125,2.9375
1589551832.088768,-0.63,-3.47,9.04,0.4988888888888889,0.29444444444444445,-0.7477777777777778,-0.5,0.125,1.9375
1589551832.10114,-0.61,-3.47,9.26,0.4833333333333333,0.28,-0.7644444444444445,-0.375,-0.1875,0.375
1589551832.1069965,-0.53,-3.35,8.87,0.4833333333333333,0.28,-0.7644444444444445,0.125,1.1875,-0.75
1589551832.1212304,-0.58,-3.4,8.92,0.4833333333333333,0.28,-0.7644444444444445,-0.875,-0.0625,-3.0
1589551832.1273205,-0.57,-3.46,9.05,0.4833333333333333,0.28,-0.7644444444444445,-0.0625,-0.125,-4.75
1589551832.1422567,-0.61,-3.55,9.15,0.4833333333333333,0.28,-0.7644444444444445,-0.375,0.375,-6.8125
1589551832.1478188,-0.58,-3.42,8.98,0.4977777777777778,0.2733333333333333,-0.7911111111111111,-0.8125,0.5,-9.0
1589551832.1587489,-0.64,-3.56,9.15,0.4977777777777778,0.2733333333333333,-0.7911111111111111,-0.5625,0.625,-11.0625
1589551832.1669533,-0.6,-3.24,8.9,0.4977777777777778,0.2733333333333333,-0.7911111111111111,-1.0,0.6875,-12.6875
1589551832.1770074,-0.66,-3.36,9.02,0.4977777777777778,0.2733333333333333,-0.7911111111111111,-1.0,0.3125,-13.375
1589551832.1892455,-0.68,-3.49,9.23,0.4977777777777778,0.2733333333333333,-0.7911111111111111,-1.25,0.5625,-13.3125
1589551832.2004526,-0.6,-3.44,8.7,0.5022222222222222,0.2411111111111111,-0.7977777777777778,0.25,2.5,-13.0625
1589551832.2069724,-0.66,-3.58,9.31,0.5022222222222222,0.2411111111111111,-0.7977777777777778,-1.3125,0.375,-14.625
1589551832.2167795,-0.7,-3.61,8.97,0.5022222222222222,0.2411111111111111,-0.7977777777777778,-1.3125,1.1875,-15.375
1589551832.227028,-0.71,-3.69,8.85,0.5022222222222222,0.2411111111111111,-0.7977777777777778,-0.8125,1.4375,-15.4375
1589551832.2389612,-0.56,-3.34,9.01,0.5022222222222222,0.2411111111111111,-0.7977777777777778,-0.875,1.375,-15.6875
1589551832.2471282,-0.56,-3.36,9.01,0.5244444444444445,0.20777777777777776,-0.7766666666666666,-1.4375,1.5625,-16.0625
1589551832.2565875,-0.63,-3.52,9.17,0.5244444444444445,0.20777777777777776,-0.7766666666666666,-1.5,1.1875,-16.0625
1589551832.2728634,-0.52,-3.31,8.72,0.5244444444444445,0.20777777777777776,-0.7766666666666666,-1.6875,2.0,-16.125
1589551832.2795935,-0.62,-3.44,9.1,0.5244444444444445,0.20777777777777776,-0.7766666666666666,-2.1875,0.3125,-16.4375
1589551832.293772,-0.69,-3.66,9.17,0.5244444444444445,0.20777777777777776,-0.7766666666666666,-1.625,0.5,-16.25
1589551832.2990482,-0.66,-3.58,8.88,0.5311111111111111,0.21444444444444444,-0.7833333333333333,-1.75,1.5625,-15.5625
1589551832.3112721,-0.61,-3.61,9.06,0.5311111111111111,0.21444444444444444,-0.7833333333333333,-1.8125,0.5625,-15.125
1589551832.3180985,-0.69,-3.7,8.95,0.5311111111111111,0.21444444444444444,-0.7833333333333333,-1.5625,0.625,-14.625
1589551832.3316474,-0.63,-3.66,9.0,0.5311111111111111,0.21444444444444444,-0.7833333333333333,-1.5625,0.625,-13.625
1589551832.339691,-0.64,-3.69,9.11,0.5311111111111111,0.21444444444444444,-0.7833333333333333,-1.5,0.3125,-12.625
1589551832.3509526,-0.61,-3.57,8.98,0.5244444444444445,0.1288888888888889,-0.7644444444444445,-1.375,0.625,-11.625
1589551832.357567,-0.62,-3.52,9.0,0.5244444444444445,0.1288888888888889,-0.7644444444444445,-1.3125,0.5,-10.625
1589551832.367598,-0.69,-3.67,9.02,0.5244444444444445,0.1288888888888889,-0.7644444444444445,-1.0625,-0.125,-9.3125
1589551832.3775606,-0.66,-3.71,9.02,0.5244444444444445,0.1288888888888889,-0.7644444444444445,-0.8125,0.25,-7.3125
1589551832.3898325,-0.59,-3.51,8.98,0.5244444444444445,0.1288888888888889,-0.7644444444444445,-0.875,0.375,-5.4375
1589551832.3970575,-0.62,-3.49,8.91,0.4988888888888889,0.13666666666666666,-0.6933333333333334,-0.9375,0.0,-3.4375
1589551832.4076748,-0.67,-3.63,9.17,0.4988888888888889,0.13666666666666666,-0.6933333333333334,-0.5625,-0.875,-1.375
1589551832.417543,-0.69,-3.68,9.01,0.4988888888888889,0.13666666666666666,-0.6933333333333334,-0.5,-0.5625,1.0
1589551832.429155,-0.7,-3.67,8.94,0.4988888888888889,0.13666666666666666,-0.6933333333333334,-0.75,-0.5625,3.625
1589551832.4445152,-0.71,-3.79,9.07,0.4988888888888889,0.13666666666666666,-0.6933333333333334,-0.5,-0.75,6.25
1589551832.4512045,-0.72,-3.81,9.08,0.4833333333333333,0.17777777777777778,-0.6766666666666666,-0.5,-0.6875,9.0625
1589551832.4634018,-0.66,-3.77,8.96,0.4833333333333333,0.17777777777777778,-0.6766666666666666,-0.1875,-0.625,11.5625
1589551832.4694135,-0.73,-3.84,8.98,0.4833333333333333,0.17777777777777778,-0.6766666666666666,-0.1875,-1.3125,13.4375
1589551832.482941,-0.81,-3.93,9.06,0.4833333333333333,0.17777777777777778,-0.6766666666666666,0.0,-1.125,15.875
1589551832.49045,-0.71,-3.81,8.78,0.4833333333333333,0.17777777777777778,-0.6766666666666666,0.625,-0.3125,18.875
1589551832.5025582,-0.73,-3.94,9.03,0.4755555555555556,0.2288888888888889,-0.6355555555555555,0.25,-1.1875,21.1875
1589551832.5082195,-0.73,-3.86,9.14,0.4755555555555556,0.2288888888888889,-0.6355555555555555,-0.875,-2.9375,22.6875
1589551832.5190694,-0.71,-3.84,8.87,0.4755555555555556,0.2288888888888889,-0.6355555555555555,0.0,-1.875,24.75
1589551832.5282385,-0.79,-3.9,9.0,0.4755555555555556,0.2288888888888889,-0.6355555555555555,0.5,-1.4375,26.375
1589551832.5404508,-0.81,-3.84,9.09,0.4755555555555556,0.2288888888888889,-0.6355555555555555,0.3125,-1.75,27.5625
1589551832.548057,-0.89,-3.86,9.09,0.49,0.26222222222222225,-0.6433333333333333,0.5,-1.5625,29.9375
1589551832.5602033,-0.86,-3.88,9.0,0.49,0.26222222222222225,-0.6433333333333333,0.6875,-1.75,33.3125
1589551832.5692644,-0.86,-3.97,8.97,0.49,0.26222222222222225,-0.6433333333333333,0.5625,-2.0625,36.9375
1589551832.5805404,-0.85,-3.84,8.99,0.49,0.26222222222222225,-0.6433333333333333,0.375,-2.5625,39.375
1589551832.5956998,-0.98,-4.03,9.06,0.49,0.26222222222222225,-0.6433333333333333,1.3125,-2.1875,41.5
1589551832.6016607,-1.02,-4.08,9.06,0.49,0.26222222222222225,-0.6433333333333333,1.25,-2.25,44.125
1589551832.613971,-0.99,-3.92,9.07,0.49,0.26222222222222225,-0.6433333333333333,1.0625,-2.5625,46.9375
1589551832.619937,-1.02,-3.92,8.91,0.49,0.26222222222222225,-0.6433333333333333,1.1875,-2.4375,50.0625
1589551832.6331933,-1.03,-3.84,9.05,0.49,0.26222222222222225,-0.6433333333333333,1.0625,-2.625,52.6875
1589551832.6415505,-1.02,-3.78,9.05,0.49,0.26222222222222225,-0.6433333333333333,1.3125,-2.625,55.4375
1589551832.6537066,-1.13,-3.92,9.46,0.49,0.25555555555555554,-0.65,2.125,-2.0,58.4375
1589551832.6598186,-1.16,-3.91,8.6,0.49,0.25555555555555554,-0.65,3.6875,0.5,61.875
1589551832.672134,-0.85,-3.33,8.58,0.49,0.25555555555555554,-0.65,1.625,-2.4375,64.0625
1589551832.6784148,-0.9,-3.51,9.48,0.49,0.25555555555555554,-0.65,-0.25,-5.625,64.5625
1589551832.6935332,-0.97,-3.4,8.93,0.49,0.25555555555555554,-0.65,-0.0625,-4.8125,64.875
1589551832.6990173,-1.22,-3.72,9.19,0.5222222222222223,0.23555555555555555,-0.6644444444444444,1.0625,-3.9375,66.0
1589551832.7092733,-1.26,-3.67,9.06,0.5222222222222223,0.23555555555555555,-0.6644444444444444,0.625,-4.0625,67.0
1589551832.7187054,-1.3,-3.68,8.99,0.5222222222222223,0.23555555555555555,-0.6644444444444444,0.875,-3.5625,68.3125
1589551832.7285438,-1.33,-3.73,9.05,0.5222222222222223,0.23555555555555555,-0.6644444444444444,1.125,-3.5,69.5
1589551832.740541,-1.31,-3.58,8.97,0.5222222222222223,0.23555555555555555,-0.6644444444444444,1.5,-2.8125,70.9375
1589551832.750912,-1.31,-3.59,9.02,0.5755555555555556,0.20444444444444448,-0.6644444444444444,1.5,-3.1875,71.8125
1589551832.7598894,-1.26,-3.55,9.14,0.5755555555555556,0.20444444444444448,-0.6644444444444444,0.5,-4.5625,71.8125
1589551832.7714765,-1.4,-3.54,9.04,0.5755555555555556,0.20444444444444448,-0.6644444444444444,0.5625,-4.1875,71.25
1589551832.7857347,-1.41,-3.53,9.06,0.5755555555555556,0.20444444444444448,-0.6644444444444444,0.75,-3.9375,70.1875
1589551832.7917647,-1.65,-3.91,9.14,0.5755555555555556,0.20444444444444448,-0.6644444444444444,1.1875,-3.1875,69.3125
1589551832.799219,-1.25,-3.27,8.97,0.5811111111111111,0.16333333333333333,-0.6577777777777778,1.25,-2.9375,69.75
1589551832.8099232,-1.15,-3.21,9.3,0.5811111111111111,0.16333333333333333,-0.6577777777777778,0.875,-3.875,68.6875
1589551832.8214142,-1.54,-3.38,9.08,0.5811111111111111,0.16333333333333333,-0.6577777777777778,-0.25,-4.25,61.4375
1589551832.8290973,-1.49,-3.32,8.81,0.5811111111111111,0.16333333333333333,-0.6577777777777778,1.5,-1.5625,56.3125
1589551832.8413165,-1.53,-3.21,9.2,0.5811111111111111,0.16333333333333333,-0.6577777777777778,1.3125,-2.0625,54.3125
1589551832.8505168,-1.57,-3.21,9.19,0.6133333333333333,0.08444444444444445,-0.6788888888888889,-0.4375,-3.4375,51.4375
1589551832.8613427,-1.6,-3.13,9.13,0.6133333333333333,0.08444444444444445,-0.6788888888888889,0.5,-2.5,49.9375
1589551832.8702881,-1.62,-3.13,8.93,0.6133333333333333,0.08444444444444445,-0.6788888888888889,1.0625,-1.75,48.5
1589551832.8800511,-1.64,-3.01,9.15,0.6133333333333333,0.08444444444444445,-0.6788888888888889,-0.5,-2.9375,46.9375
1589551832.892193,-1.58,-2.93,9.18,0.6133333333333333,0.08444444444444445,-0.6788888888888889,0.125,-2.8125,46.875
1589551832.9037294,-1.56,-2.92,8.92,0.7388888888888889,-0.09777777777777777,-0.65,1.5,-1.625,48.1875
1589551832.9104395,-1.83,-3.12,9.2,0.7388888888888889,-0.09777777777777777,-0.65,0.0625,-2.5625,48.6875
1589551832.920575,-1.63,-2.87,9.13,0.7388888888888889,-0.09777777777777777,-0.65,0.1875,-2.6875,50.25
1589551832.9313338,-1.75,-2.91,8.73,0.7388888888888889,-0.09777777777777777,-0.65,1.5,-1.0,52.5625
1589551832.942375,-1.61,-2.81,9.08,0.7388888888888889,-0.09777777777777777,-0.65,-0.5,-2.5625,54.0625
1589551832.9497662,-1.8,-3.0,9.28,1.13,-0.5333333333333333,-0.3688888888888889,-0.75,-4.5625,55.4375
1589551832.9599152,-1.8,-2.89,8.99,1.13,-0.5333333333333333,-0.3688888888888889,1.0625,-2.5625,56.5625
1589551832.9711525,-1.57,-2.65,8.95,1.13,-0.5333333333333333,-0.3688888888888889,0.875,-2.0,56.625
1589551832.9834228,-1.65,-2.7,9.28,1.13,-0.5333333333333333,-0.3688888888888889,-0.3125,-3.3125,54.6875
1589551832.997087,-1.67,-2.72,9.21,1.13,-0.5333333333333333,-0.3688888888888889,0.0,-2.5,52.9375
1589551833.0029302,-1.84,-2.7,9.29,1.318888888888889,-0.15444444444444444,-0.6,-0.1875,-3.25,50.3125
1589551833.0152118,-1.69,-2.58,9.01,1.318888888888889,-0.15444444444444444,-0.6,1.0,-1.9375,47.25
1589551833.0210512,-1.65,-2.56,9.22,1.318888888888889,-0.15444444444444444,-0.6,0.8125,-1.875,45.8125
1589551833.0314224,-1.57,-2.44,8.97,1.318888888888889,-0.15444444444444444,-0.6,0.0,-3.0,44.5
1589551833.0437527,-1.53,-2.43,9.17,1.318888888888889,-0.15444444444444444,-0.6,0.25,-2.0625,43.0
1589551833.055738,-1.57,-2.42,9.11,0.8033333333333333,0.012222222222222223,-0.7144444444444444,-0.125,-2.625,40.0625
1589551833.0625198,-1.48,-2.35,9.16,0.8033333333333333,0.012222222222222223,-0.7144444444444444,0.125,-2.25,36.875
1589551833.074178,-1.42,-2.32,9.05,0.8033333333333333,0.012222222222222223,-0.7144444444444444,0.1875,-2.0,35.25
1589551833.081229,-1.48,-2.44,8.99,0.8033333333333333,0.012222222222222223,-0.7144444444444444,0.4375,-1.5,32.5
1589551833.0939775,-1.43,-2.44,8.93,0.8033333333333333,0.012222222222222223,-0.7144444444444444,0.375,-1.625,29.1875
1589551833.1011474,-1.48,-2.58,9.29,0.6288888888888889,0.06555555555555556,-0.7288888888888889,-0.25,-1.375,26.125
1589551833.1131787,-1.37,-2.52,9.15,0.6288888888888889,0.06555555555555556,-0.7288888888888889,-0.125,-2.0625,22.5
1589551833.1215127,-1.32,-2.44,8.94,0.6288888888888889,0.06555555555555556,-0.7288888888888889,0.5,-0.5625,18.125
1589551833.1321769,-1.35,-2.61,9.27,0.6288888888888889,0.06555555555555556,-0.7288888888888889,-0.375,-1.4375,12.75
1589551833.1462073,-1.24,-2.63,9.07,0.6288888888888889,0.06555555555555556,-0.7288888888888889,-0.3125,-1.0,7.625
1589551833.1523502,-1.03,-2.55,9.03,0.5988888888888889,0.08444444444444445,-0.7422222222222222,0.6875,0.4375,1.375
1589551833.165733,-1.07,-2.74,9.24,0.5988888888888889,0.08444444444444445,-0.7422222222222222,-0.25,-0.1875,-7.4375
1589551833.1719506,-1.09,-2.76,9.05,0.5988888888888889,0.08444444444444445,-0.7422222222222222,-0.5,0.375,-18.125
1589551833.1845467,-1.1,-2.66,8.97,0.5988888888888889,0.08444444444444445,-0.7422222222222222,0.0625,1.375,-28.75
1589551833.192937,-1.15,-2.76,9.19,0.5988888888888889,0.08444444444444445,-0.7422222222222222,0.375,1.8125,-38.6875
1589551833.204384,-1.36,-3.16,8.94,0.5755555555555556,0.08,-0.7644444444444445,0.3125,3.75,-56.3125
1589551833.2116866,-1.14,-3.15,9.14,0.5755555555555556,0.08,-0.7644444444444445,0.3125,3.75,-56.3125
1589551833.2216005,-1.14,-3.23,8.82,0.5755555555555556,0.08,-0.7644444444444445,0.3125,3.875,-65.25
1589551833.2335856,-1.24,-3.26,9.22,0.5755555555555556,0.08,-0.7644444444444445,-0.625,3.25,-83.1875
1589551833.2447257,-1.22,-3.23,9.03,0.5755555555555556,0.08,-0.7644444444444445,0.3125,4.75,-89.5
1589551833.2510614,-1.06,-3.11,9.0,0.5877777777777777,0.06333333333333334,-0.7477777777777778,-1.0,4.0625,-95.8125
1589551833.26547,-1.38,-3.2,9.04,0.5877777777777777,0.06333333333333334,-0.7477777777777778,-1.9375,2.875,-101.375
1589551833.271393,-1.55,-3.55,9.72,0.5877777777777777,0.06333333333333334,-0.7477777777777778,0.625,6.25,-102.375
1589551833.2814364,-9.22,-10.51,11.89,0.5877777777777777,0.06333333333333334,-0.7477777777777778,3.9375,12.3125,-94.5
1589551833.2954426,-31.75,-21.48,7.51,0.5877777777777777,0.06333333333333334,-0.7477777777777778,8.375,81.625,-2.3125
1589551833.3015726,3.33,0.92,-0.49,0.5522222222222222,0.13444444444444445,-0.7333333333333333,-65.625,-28.5625,-123.125
1589551833.3116436,1.57,-0.34,9.02,0.5522222222222222,0.13444444444444445,-0.7333333333333333,-28.3125,-47.0,-8.1875
1589551833.3232286,4.43,0.35,16.95,0.5522222222222222,0.13444444444444445,-0.7333333333333333,64.875,-23.75,-12.3125
1589551833.332735,-0.51,3.27,4.79,0.5522222222222222,0.13444444444444445,-0.7333333333333333,60.8125,54.625,-22.6875
1589551833.3443696,0.01,1.98,4.75,0.5522222222222222,0.13444444444444445,-0.7333333333333333,-39.6875,-33.8125,-7.125
1589551833.3539715,1.92,0.17,9.25,0.5522222222222222,0.17333333333333334,-0.7211111111111111,-2.5625,-1.9375,-2.75
1589551833.3625214,-0.72,-1.19,6.72,0.5522222222222222,0.17333333333333334,-0.7211111111111111,12.0,9.125,-5.0625
1589551833.375907,-1.04,-2.04,10.28,0.5522222222222222,0.17333333333333334,-0.7211111111111111,-8.75,-6.5625,-0.875
1589551833.3823798,-0.63,-1.96,9.18,0.5522222222222222,0.17333333333333334,-0.7211111111111111,0.8125,1.0625,-3.0
1589551833.396576,-1.18,-2.15,9.14,0.5522222222222222,0.17333333333333334,-0.7211111111111111,5.5625,2.625,-7.875
1589551833.4024622,-1.36,-2.34,9.37,0.5466666666666666,0.17888888888888888,-0.7,-2.25,0.1875,-7.875
1589551833.412691,-1.1,-2.2,9.0,0.5466666666666666,0.17888888888888888,-0.7,-2.0,1.0,-6.3125
1589551833.4227133,-1.17,-2.29,9.12,0.5466666666666666,0.17888888888888888,-0.7,1.4375,0.875,-7.375
1589551833.4328785,-1.24,-2.33,8.75,0.5466666666666666,0.17888888888888888,-0.7,0.625,0.5,-7.75
1589551833.4443047,-1.27,-2.45,9.48,0.5466666666666666,0.17888888888888888,-0.7,0.1875,-0.8125,-6.875
1589551833.454549,-1.05,-2.17,9.43,0.5466666666666666,0.18666666666666668,-0.7288888888888889,0.1875,-0.0625,-5.875
1589551833.4623349,-1.64,-2.73,9.23,0.5466666666666666,0.18666666666666668,-0.7288888888888889,-0.8125,0.3125,-6.75
1589551833.4741511,-17.88,-27.94,9.02,0.5466666666666666,0.18666666666666668,-0.7288888888888889,-0.75,-2.125,-8.0625
1589551833.4832404,-1.69,-5.28,6.0,0.5466666666666666,0.18666666666666668,-0.7288888888888889,-6.1875,-6.375,-35.1875
1589551833.4943314,-0.35,-0.22,8.67,0.5466666666666666,0.18666666666666668,-0.7288888888888889,9.375,9.625,-36.25
1589551833.5075948,-1.68,-1.65,8.25,0.5488888888888889,0.17888888888888888,-0.7288888888888889,1.625,4.8125,-19.375
1589551833.5137134,-1.06,-1.91,9.74,0.5488888888888889,0.17888888888888888,-0.7288888888888889,-7.25,-5.4375,-6.5
1589551833.526027,-2.43,-4.41,9.73,0.5488888888888889,0.17888888888888888,-0.7288888888888889,0.75,1.9375,-1.5625
1589551833.5325313,-1.32,-2.95,8.79,0.5488888888888889,0.17888888888888888,-0.7288888888888889,-0.875,-1.4375,-5.0
1589551833.5464716,-1.4,-2.86,9.95,0.5488888888888889,0.17888888888888888,-0.7288888888888889,1.4375,-1.125,-6.8125
1589551833.5527606,-2.14,-3.73,8.75,0.5488888888888889,0.2,-0.7066666666666667,1.0625,1.8125,-0.6875
1589551833.5628238,-1.76,-3.7,9.37,0.5488888888888889,0.2,-0.7066666666666667,-1.4375,-1.125,-0.25
1589551833.5697634,-1.76,-3.7,9.37,0.5488888888888889,0.2,-0.7066666666666667,-1.4375,-1.125,-0.25
1589551833.576079,-1.91,-3.53,8.79,0.5488888888888889,0.2,-0.7066666666666667,-0.125,0.8125,0.125
1589551833.5869071,-1.91,-3.6,8.92,0.5488888888888889,0.2,-0.7066666666666667,-0.0625,-0.0625,0.0
1589551833.5949185,-1.81,-3.58,9.11,0.5488888888888889,0.2,-0.7066666666666667,0.4375,-0.375,0.0
1589551833.6049724,-1.86,-3.52,9.17,0.5422222222222223,0.19333333333333333,-0.7211111111111111,0.9375,-0.0625,0.0625
1589551833.6144285,-1.84,-3.53,9.19,0.5422222222222223,0.19333333333333333,-0.7211111111111111,0.0625,0.0625,-0.125
1589551833.6257887,-1.89,-3.58,9.01,0.5422222222222223,0.19333333333333333,-0.7211111111111111,-1.0,0.25,-0.0625
1589551833.6338756,-1.83,-3.61,9.04,0.5422222222222223,0.19333333333333333,-0.7211111111111111,-0.75,-0.125,-0.0625
1589551833.6469038,-1.9,-3.6,9.01,0.5422222222222223,0.19333333333333333,-0.7211111111111111,0.125,-0.125,0.0
1589551833.654594,-1.8,-3.54,9.25,0.5555555555555556,0.20555555555555555,-0.7211111111111111,0.5,-0.375,0.0
1589551833.6666794,-1.87,-3.55,9.15,0.5555555555555556,0.20555555555555555,-0.7211111111111111,0.0625,0.0,-0.125
1589551833.6790695,-1.84,-3.57,9.03,0.5555555555555556,0.20555555555555555,-0.7211111111111111,-0.4375,0.0625,0.0625
1589551833.6855366,-1.91,-3.62,8.92,0.5555555555555556,0.20555555555555555,-0.7211111111111111,-0.5625,0.25,-0.125
1589551833.6975007,-1.83,-3.62,9.11,0.5555555555555556,0.20555555555555555,-0.7211111111111111,0.1875,-0.1875,-0.0625
1589551833.70462,-1.86,-3.56,9.2,0.5488888888888889,0.19333333333333333,-0.7144444444444444,0.875,-0.125,-0.0625
1589551833.7142448,-1.83,-3.53,9.15,0.5488888888888889,0.19333333333333333,-0.7144444444444444,0.375,-0.0625,-0.0625
1589551833.7243593,-1.87,-3.58,9.01,0.5488888888888889,0.19333333333333333,-0.7144444444444444,-0.375,0.25,-0.0625
1589551833.7349033,-1.86,-3.58,9.03,0.5488888888888889,0.19333333333333333,-0.7144444444444444,-0.5625,0.375,0.0
1589551833.7468905,-1.86,-3.61,9.06,0.5488888888888889,0.19333333333333333,-0.7144444444444444,-0.1875,0.0625,-0.125
1589551833.7580705,-1.85,-3.56,9.14,0.5422222222222223,0.18666666666666668,-0.7288888888888889,0.625,0.0,-0.0625
1589551833.7644928,-1.85,-3.53,9.17,0.5422222222222223,0.18666666666666668,-0.7288888888888889,0.6875,0.125,-0.0625
1589551833.7762134,-1.87,-3.56,9.01,0.5422222222222223,0.18666666666666668,-0.7288888888888889,-0.0625,0.1875,-0.125
1589551833.785443,-1.88,-3.6,9.02,0.5422222222222223,0.18666666666666668,-0.7288888888888889,-0.3125,0.3125,0.0
1589551833.7972882,-1.87,-3.62,9.03,0.5422222222222223,0.18666666666666668,-0.7288888888888889,-0.0625,0.3125,-0.0625
1589551833.8047574,-1.86,-3.59,9.05,0.5422222222222223,0.19333333333333333,-0.7288888888888889,0.3125,-0.125,0.0625
1589551833.8165815,-1.86,-3.53,9.1,0.5422222222222223,0.19333333333333333,-0.7288888888888889,0.625,-0.0625,-0.0625
1589551833.8286624,-1.85,-3.55,9.07,0.5422222222222223,0.19333333333333333,-0.7288888888888889,0.0625,0.0,-0.125
1589551833.835825,-1.86,-3.58,9.03,0.5422222222222223,0.19333333333333333,-0.7288888888888889,-0.5625,0.0625,0.0625
1589551833.850491,-1.87,-3.59,9.01,0.5422222222222223,0.19333333333333333,-0.7288888888888889,-0.625,0.125,-0.0625
1589551833.8570151,-1.88,-3.6,9.09,0.5366666666666666,0.20555555555555555,-0.7422222222222222,0.0625,-0.1875,0.0625
1589551833.8709085,-1.86,-3.57,9.14,0.5366666666666666,0.20555555555555555,-0.7422222222222222,0.5625,-0.1875,-0.125
1589551833.8775265,-1.85,-3.54,9.06,0.5366666666666666,0.20555555555555555,-0.7422222222222222,0.25,-0.0625,-0.1875
1589551833.8892164,-1.85,-3.58,9.05,0.5366666666666666,0.20555555555555555,-0.7422222222222222,-0.1875,0.25,-0.0625
