time,acc_x,acc_y,acc_z,mag_x,mag_y,mag_z,gyr_x,gyr_y,gyr_z
1589551907.8723626,-0.15,-4.22,8.85,0.44222222222222224,0.3,-0.62,0.5,-0.8125,3.25
1589551907.8782687,-0.13,-4.21,8.78,0.44222222222222224,0.3,-0.62,-0.5,3.3125,-7.8125
1589551907.8901908,-0.18,-4.21,8.87,0.4477777777777778,0.3,-0.6411111111111111,2.0,1.8125,-1.125
1589551907.8970401,-0.16,-4.22,8.9,0.4477777777777778,0.3,-0.6411111111111111,-7.1875,-3.0625,6.125
1589551907.904963,-0.21,-4.23,8.83,0.4477777777777778,0.3,-0.6411111111111111,-2.5,5.8125,8.5625
1589551907.9167485,-0.19,-4.21,8.97,0.4477777777777778,0.3,-0.6411111111111111,-1.125,-3.5625,-2.25
1589551907.9292893,-0.21,-4.19,8.97,0.4477777777777778,0.3,-0.6411111111111111,5.75,0.0625,1.75
1589551907.9353626,-0.21,-4.18,9.0,0.44222222222222224,0.3,-0.6133333333333333,1.5,6.1875,4.125
1589551907.9492214,-0.22,-4.14,8.99,0.44222222222222224,0.3,-0.6133333333333333,-0.75,6.5625,1.25
1589551907.9561508,-0.21,-4.18,8.87,0.44222222222222224,0.3,-0.6133333333333333,7.3125,5.1875,-1.625
1589551907.9689894,-0.21,-4.18,8.88,0.44222222222222224,0.3,-0.6133333333333333,0.125,-2.1875,-1.125
1589551907.9773042,-0.21,-4.18,8.92,0.44222222222222224,0.3,-0.6133333333333333,3.625,-2.3125,9.3125
1589551907.9875815,-0.17,-4.19,8.89,0.4544444444444444,0.3055555555555556,-0.6344444444444445,-0.125,-1.5625,0.0
1589551907.9944065,-0.17,-4.18,8.87,0.4544444444444444,0.3055555555555556,-0.6344444444444445,1.125,-2.3125,-0.25
1589551908.0048418,-0.2,-4.19,8.85,0.4544444444444444,0.3055555555555556,-0.6344444444444445,1.75,2.1875,1.375
1589551908.0156598,-0.21,-4.2,8.87,0.4544444444444444,0.3055555555555556,-0.6344444444444445,1.75,-4.3125,-5.75
1589551908.028039,-0.18,-4.19,8.98,0.4544444444444444,0.3055555555555556,-0.6344444444444445,-0.875,0.6875,-3.25
1589551908.034599,-0.2,-4.19,8.98,0.4211111111111111,0.3,-0.6344444444444445,6.125,10.25,8.4375
1589551908.0465074,-0.21,-4.19,8.99,0.4211111111111111,0.3,-0.6344444444444445,5.75,-1.3125,-2.5
1589551908.0563016,-0.21,-4.18,8.9,0.4211111111111111,0.3,-0.6344444444444445,-2.875,-4.6875,-1.5
1589551908.0683074,-0.21,-4.16,8.92,0.4211111111111111,0.3,-0.6344444444444445,5.5,2.0625,-7.4375
1589551908.0773628,-0.24,-4.17,8.91,0.4211111111111111,0.3,-0.6344444444444445,1.0,-5.8125,-5.5
1589551908.0848966,-0.21,-4.2,8.91,0.4355555555555555,0.3,-0.6266666666666667,2.25,-1.0625,-5.875
1589551908.1000946,-0.22,-4.19,8.86,0.4355555555555555,0.3,-0.6266666666666667,-0.5,2.5625,-3.875
1589551908.1060145,-0.21,-4.18,8.77,0.4355555555555555,0.3,-0.6266666666666667,3.875,-1.1875,5.625
1589551908.1201134,-0.19,-4.18,8.86,0.4355555555555555,0.3,-0.6266666666666667,8.3125,5.6875,-4.125
1589551908.1273565,-0.19,-4.19,8.96,0.4355555555555555,0.3,-0.6266666666666667,-3.0,2.4375,-0.5
1589551908.1355598,-0.24,-4.18,8.97,0.44222222222222224,0.2933333333333333,-0.6266666666666667,2.75,3.9375,1.75
1589551908.1460578,-0.23,-4.16,8.94,0.44222222222222224,0.2933333333333333,-0.6266666666666667,3.875,3.6875,-3.75
1589551908.1558,-0.19,-4.18,8.89,0.44222222222222224,0.2933333333333333,-0.6266666666666667,1.25,10.0,-4.625
1589551908.165491,-0.22,-4.18,8.91,0.44222222222222224,0.2933333333333333,-0.6266666666666667,-1.375,-5.9375,-0.125
1589551908.1781962,-0.19,-4.18,8.94,0.44222222222222224,0.2933333333333333,-0.6266666666666667,1.875,-0.3125,0.125
1589551908.185893,-0.18,-4.2,8.97,0.44222222222222224,0.3055555555555556,-0.6266666666666667,9.0625,4.9375,0.875
1589551908.1967087,-0.21,-4.18,8.91,0.44222222222222224,0.3055555555555556,-0.6266666666666667,0.625,-4.1875,4.75
1589551908.2063227,-0.22,-4.18,8.8,0.44222222222222224,0.3055555555555556,-0.6266666666666667,1.625,-2.1875,-0.625
1589551908.218562,-0.21,-4.2,8.87,0.44222222222222224,0.3055555555555556,-0.6266666666666667,0.375,-2.0625,-2.25
1589551908.234274,-0.21,-4.18,8.91,0.44222222222222224,0.3055555555555556,-0.6266666666666667,-1.75,-3.5625,4.375
1589551908.2399304,-0.22,-4.17,8.93,0.44222222222222224,0.3055555555555556,-0.6266666666666667,2.375,1.9375,-1.875
1589551908.2502244,-0.22,-4.21,8.96,0.44222222222222224,0.3055555555555556,-0.6266666666666667,10.0625,1.8125,2.0
1589551908.2565114,-0.21,-4.18,8.87,0.44222222222222224,0.3055555555555556,-0.6266666666666667,0.125,-3.1875,-2.0
1589551908.2713606,-0.2,-4.18,8.91,0.44222222222222224,0.3055555555555556,-0.6266666666666667,1.0,2.0625,-8.0625
1589551908.2782938,-0.21,-4.18,8.93,0.44222222222222224,0.3055555555555556,-0.6266666666666667,2.0,-3.8125,-5.0
1589551908.289781,-0.19,-4.18,8.96,0.4355555555555555,0.3055555555555556,-0.6266666666666667,5.625,1.6875,-5.625
1589551908.2964199,-0.19,-4.17,8.96,0.4355555555555555,0.3055555555555556,-0.6266666666666667,-0.75,6.8125,0.0
1589551908.3068323,-0.22,-4.2,8.81,0.4355555555555555,0.3055555555555556,-0.6266666666666667,3.25,1.8125,-1.0
1589551908.3170733,-0.19,-4.2,8.87,0.4355555555555555,0.3055555555555556,-0.6266666666666667,1.0,-2.3125,4.25
1589551908.3286026,-0.21,-4.19,8.92,0.4355555555555555,0.3055555555555556,-0.6266666666666667,2.375,0.4375,-8.0625
1589551908.335908,-0.18,-4.18,8.9,0.44222222222222224,0.3055555555555556,-0.6266666666666667,0.75,1.1875,-1.875
1589551908.347282,-0.21,-4.14,8.91,0.44222222222222224,0.3055555555555556,-0.6266666666666667,1.75,2.4375,-1.0
1589551908.357023,-0.27,-4.03,8.79,0.44222222222222224,0.3055555555555556,-0.6266666666666667,1.875,0.0625,-5.0
1589551908.368415,-0.25,-3.93,8.94,0.44222222222222224,0.3055555555555556,-0.6266666666666667,1.75,2.4375,-7.9375
1589551908.3782613,-0.26,-3.87,9.07,0.44222222222222224,0.3055555555555556,-0.6266666666666667,-2.25,1.5625,-11.0625
1589551908.3896515,-0.3,-3.81,9.02,0.4211111111111111,0.3,-0.6055555555555555,-7.5625,-2.4375,-1.625
1589551908.3963964,-0.3,-3.84,9.0,0.4211111111111111,0.3,-0.6055555555555555,-3.375,7.875,-7.4375
1589551908.4082036,-0.33,-3.85,8.88,0.4211111111111111,0.3,-0.6055555555555555,-3.0,-2.0625,-8.3125
1589551908.422432,-0.34,-3.89,8.8,0.4211111111111111,0.3,-0.6055555555555555,-0.625,-1.4375,-3.5
1589551908.4280472,-0.49,-3.48,8.95,0.4211111111111111,0.3,-0.6055555555555555,1.0,-0.9375,2.5
1589551908.435867,-0.63,-2.78,9.09,0.4155555555555556,0.32,-0.62,-5.25,1.1875,21.8125
1589551908.4474964,-0.55,-2.56,8.78,0.4155555555555556,0.32,-0.62,3.875,-0.5625,37.3125
1589551908.4606366,-0.29,-2.75,8.8,0.4155555555555556,0.32,-0.62,-0.25,-3.3125,46.25
1589551908.4664755,-0.25,-2.82,8.8,0.4155555555555556,0.32,-0.62,4.0,-0.9375,49.0625
1589551908.478591,-0.26,-2.87,9.16,0.4155555555555556,0.32,-0.62,3.5,-4.3125,55.6875
1589551908.4855368,-0.25,-2.91,9.07,0.44222222222222224,0.3,-0.6133333333333333,-0.625,-8.5,61.875
1589551908.4915152,-0.25,-2.91,9.07,0.44222222222222224,0.3,-0.6133333333333333,-0.625,-8.5,61.875
1589551908.5026352,-0.2,-3.02,9.16,0.44222222222222224,0.3,-0.6133333333333333,-2.125,-10.0,60.25
1589551908.5085132,-0.2,-2.99,8.86,0.44222222222222224,0.3,-0.6133333333333333,-2.875,-2.3125,68.6875
1589551908.5179806,-0.17,-2.97,8.88,0.44222222222222224,0.3,-0.6133333333333333,6.5,-3.3125,56.5
1589551908.5296216,-0.15,-3.06,8.98,0.44222222222222224,0.3,-0.6133333333333333,7.4375,3.8125,56.625
1589551908.5403438,-0.21,-3.07,8.88,0.4622222222222222,0.3,-0.6411111111111111,-2.0,-4.8125,66.4375
1589551908.552014,-0.17,-3.07,9.04,0.4622222222222222,0.3,-0.6411111111111111,-2.875,-2.0625,51.4375
1589551908.558157,-0.28,-3.08,8.84,0.4622222222222222,0.3,-0.6411111111111111,1.375,-3.4375,52.8125
1589551908.5739095,-0.32,-3.08,8.74,0.4622222222222222,0.3,-0.6411111111111111,4.0,6.5625,55.1875
1589551908.5802195,-0.33,-3.12,9.21,0.4622222222222222,0.3,-0.6411111111111111,-2.125,-3.5625,44.875
1589551908.5875494,-0.37,-3.14,8.86,0.4544444444444444,0.2677777777777778,-0.62,1.5,-5.5625,62.5
1589551908.5997498,-0.43,-3.23,9.04,0.4544444444444444,0.2677777777777778,-0.62,-5.125,-5.8125,53.0625
1589551908.612676,-0.45,-3.22,8.72,0.4544444444444444,0.2677777777777778,-0.62,6.0,-4.8125,53.8125
1589551908.619048,-0.43,-3.28,9.06,0.4544444444444444,0.2677777777777778,-0.62,4.75,-2.9375,55.3125
1589551908.630809,-0.5,-3.28,8.9,0.4544444444444444,0.2677777777777778,-0.62,0.625,-1.8125,48.625
1589551908.6382716,-0.58,-3.27,8.9,0.4544444444444444,0.2677777777777778,-0.6555555555555556,5.375,-6.6875,59.0
1589551908.6523106,-0.6,-3.23,8.96,0.4544444444444444,0.2677777777777778,-0.6555555555555556,1.75,-0.4375,52.0625
1589551908.6581955,-0.59,-3.18,8.83,0.4544444444444444,0.2677777777777778,-0.6555555555555556,3.5,-0.9375,56.5
1589551908.6703568,-0.68,-3.3,8.97,0.4544444444444444,0.2677777777777778,-0.6555555555555556,3.5,-0.3125,49.1875
1589551908.680176,-0.62,-3.24,9.0,0.4544444444444444,0.2677777777777778,-0.6555555555555556,-0.25,-3.5625,53.9375
1589551908.6882932,-0.54,-3.07,8.8,0.4866666666666667,0.2344444444444445,-0.6344444444444445,-0.125,-4.6875,47.75
1589551908.6977732,-0.56,-3.17,9.21,0.4866666666666667,0.2344444444444445,-0.6344444444444445,1.625,-3.5625,39.1875
1589551908.7122135,-0.51,-2.93,8.84,0.4866666666666667,0.2344444444444445,-0.6344444444444445,0.75,3.1875,49.0625
1589551908.7183785,-0.55,-2.97,8.88,0.4866666666666667,0.2344444444444445,-0.6344444444444445,-2.875,-3.8125,45.875
1589551908.730608,-0.52,-2.97,8.89,0.4866666666666667,0.2344444444444445,-0.6344444444444445,-1.0,3.1875,47.625
1589551908.7381456,-0.59,-2.94,9.14,0.48,0.21444444444444444,-0.6622222222222223,5.75,0.4375,41.5625
1589551908.748465,-0.54,-2.82,8.93,0.48,0.21444444444444444,-0.6622222222222223,-3.125,2.1875,42.0
1589551908.760657,-0.63,-2.9,8.86,0.48,0.21444444444444444,-0.6622222222222223,3.375,-8.5,30.75
1589551908.7687676,-0.66,-2.97,8.92,0.48,0.21444444444444444,-0.6622222222222223,9.9375,0.3125,34.875
1589551908.7810016,-0.73,-2.99,8.96,0.48,0.21444444444444444,-0.6622222222222223,-4.375,-9.75,48.0
1589551908.7885575,-0.75,-3.01,8.98,0.5066666666666667,0.19333333333333333,-0.6766666666666666,-4.125,-1.1875,33.75
1589551908.804268,-0.79,-3.12,9.06,0.5066666666666667,0.19333333333333333,-0.6766666666666666,3.75,-0.0625,30.75
1589551908.810949,-0.77,-3.0,9.01,0.5066666666666667,0.19333333333333333,-0.6766666666666666,-3.5,1.8125,30.125
1589551908.8221962,-0.81,-2.91,8.94,0.5066666666666667,0.19333333333333333,-0.6766666666666666,9.6875,-7.0,27.3125
1589551908.8308985,-0.77,-2.96,9.03,0.5066666666666667,0.19333333333333333,-0.6766666666666666,-2.125,-4.1875,28.875
1589551908.8388126,-0.75,-2.91,8.91,0.4988888888888889,0.1811111111111111,-0.6911111111111111,-1.5,-7.25,23.5625
1589551908.8494554,-0.82,-2.94,8.98,0.4988888888888889,0.1811111111111111,-0.6911111111111111,2.0,8.75,23.0625
1589551908.8610818,-0.92,-3.13,8.81,0.4988888888888889,0.1811111111111111,-0.6911111111111111,4.75,-3.8125,21.9375
1589551908.869442,-0.84,-3.04,8.81,0.4988888888888889,0.1811111111111111,-0.6911111111111111,-0.875,1.0625,25.3125
1589551908.8814461,-0.86,-3.03,9.07,0.4988888888888889,0.1811111111111111,-0.6911111111111111,2.25,0.3125,29.375
1589551908.8876905,-0.89,-2.93,9.04,0.5111111111111111,0.1811111111111111,-0.7122222222222222,-3.75,7.625,26.6875
1589551908.8988273,-0.89,-2.93,9.04,0.5111111111111111,0.1811111111111111,-0.7122222222222222,-3.75,7.625,26.6875
1589551908.9086163,-0.98,-3.07,8.49,0.5111111111111111,0.1811111111111111,-0.7122222222222222,0.375,-4.0625,17.5
1589551908.9195518,-1.0,-3.2,8.92,0.5111111111111111,0.1811111111111111,-0.7122222222222222,-3.75,-3.5625,21.0625
1589551908.936007,-0.98,-3.12,8.84,0.5111111111111111,0.1811111111111111,-0.7122222222222222,-6.5,-1.1875,26.8125
1589551908.942678,-0.93,-2.99,8.96,0.4988888888888889,0.18777777777777774,-0.7177777777777777,4.75,8.0,19.0
1589551908.9565012,-0.86,-2.9,9.03,0.4988888888888889,0.18777777777777774,-0.7177777777777777,0.75,-8.0,24.0625
1589551908.9636025,-0.96,-2.98,8.85,0.4988888888888889,0.18777777777777774,-0.7177777777777777,1.0,6.0625,11.5625
1589551908.9744394,-0.97,-2.93,8.86,0.4988888888888889,0.18777777777777774,-0.7177777777777777,-5.375,-3.4375,23.1875
1589551908.9827867,-1.04,-3.01,9.11,0.4988888888888889,0.18777777777777774,-0.7177777777777777,8.1875,2.1875,20.0
1589551908.9933648,-1.02,-3.0,9.07,0.5044444444444445,0.1688888888888889,-0.7266666666666667,-5.25,-4.1875,17.125
1589551909.000062,-0.99,-2.98,8.98,0.5044444444444445,0.1688888888888889,-0.7266666666666667,2.5,-2.0625,2.75
1589551909.0140624,-0.99,-2.94,8.87,0.5044444444444445,0.1688888888888889,-0.7266666666666667,1.75,-0.4375,-1.5
1589551909.0199704,-1.07,-3.04,9.03,0.5044444444444445,0.1688888888888889,-0.7266666666666667,2.625,3.6875,6.625
1589551909.0320544,-1.04,-2.97,8.95,0.5044444444444445,0.1688888888888889,-0.7266666666666667,-0.375,2.8125,5.5
1589551909.0403025,-1.04,-2.98,9.03,0.4711111111111111,0.15444444444444444,-0.76,-1.375,6.1875,8.8125
1589551909.0515785,-1.09,-3.05,9.0,0.4711111111111111,0.15444444444444444,-0.76,-0.875,0.6875,10.3125
1589551909.0609686,-1.06,-2.94,8.95,0.4711111111111111,0.15444444444444444,-0.76,-3.5,-3.5625,4.25
1589551909.070199,-1.09,-2.92,8.95,0.4711111111111111,0.15444444444444444,-0.76,5.375,-0.6875,-3.25
1589551909.0851994,-0.99,-2.82,9.32,0.4711111111111111,0.15444444444444444,-0.76,-2.375,8.75,3.375
1589551909.0919032,-0.85,-2.54,8.95,0.4711111111111111,0.12222222222222222,-0.7822222222222223,-4.75,6.6875,-2.5
1589551909.1005824,-1.02,-2.84,8.93,0.4711111111111111,0.12222222222222222,-0.7822222222222223,-8.1875,0.1875,4.25
1589551909.1107616,-1.01,-2.68,8.53,0.4711111111111111,0.12222222222222222,-0.7822222222222223,-5.875,-6.6875,-3.375
1589551909.1209,-0.99,-2.62,8.98,0.4711111111111111,0.12222222222222222,-0.7822222222222223,-3.875,1.9375,6.625
1589551909.1326811,-1.0,-2.61,9.13,0.4711111111111111,0.12222222222222222,-0.7822222222222223,-0.125,8.625,13.5625
1589551909.1448162,-1.13,-2.72,9.14,0.48,0.08666666666666667,-0.7477777777777778,8.8125,-0.8125,19.375
1589551909.1506972,-1.1,-2.74,8.87,0.48,0.08666666666666667,-0.7477777777777778,0.25,2.6875,18.875
1589551909.1640005,-1.06,-2.79,8.59,0.48,0.08666666666666667,-0.7477777777777778,-3.5,-3.9375,22.5625
1589551909.1703494,-0.89,-2.47,8.34,0.48,0.08666666666666667,-0.7477777777777778,-6.5,-1.9375,14.75
1589551909.1857939,-1.29,-2.97,9.12,0.48,0.08666666666666667,-0.7477777777777778,-2.375,-1.0625,16.125
1589551909.1918054,-1.27,-2.93,8.85,0.4922222222222222,0.06,-0.76,-2.375,-4.9375,29.125
1589551909.2011368,-1.31,-3.01,9.21,0.4922222222222222,0.06,-0.76,0.5,-6.1875,23.4375
1589551909.2101092,-1.25,-2.88,8.74,0.4922222222222222,0.06,-0.76,-3.625,1.3125,25.0625
1589551909.2238233,-1.29,-2.98,9.81,0.4922222222222222,0.06,-0.76,-1.625,9.125,35.6875
1589551909.2327995,-1.28,-2.85,8.57,0.4922222222222222,0.06,-0.76,-0.625,-1.0625,39.5625
1589551909.2407086,-1.16,-2.76,8.47,0.44222222222222224,-0.04444444444444445,-0.7477777777777778,-2.75,-7.375,32.125
1589551909.2519126,-1.17,-2.91,9.1,0.44222222222222224,-0.04444444444444445,-0.7477777777777778,-3.125,-2.1875,40.3125
1589551909.263232,-1.1,-2.8,8.98,0.44222222222222224,-0.04444444444444445,-0.7477777777777778,3.5,0.6875,45.875
1589551909.270457,-1.19,-2.79,8.98,0.44222222222222224,-0.04444444444444445,-0.7477777777777778,-5.0,-0.3125,53.4375
1589551909.2845972,-1.54,-3.05,8.55,0.44222222222222224,-0.04444444444444445,-0.7477777777777778,-8.8125,-6.4375,49.8125
1589551909.2966163,-1.39,-2.99,9.2,0.4488888888888889,-0.024444444444444446,-0.6622222222222223,7.1875,-5.4375,57.75
1589551909.3030007,-1.46,-3.02,9.47,0.4488888888888889,-0.024444444444444446,-0.6622222222222223,3.25,-4.1875,59.5
1589551909.314812,-1.66,-3.2,8.68,0.4488888888888889,-0.024444444444444446,-0.6622222222222223,3.75,2.5625,57.75
1589551909.3216758,-1.52,-2.97,8.96,0.4488888888888889,-0.024444444444444446,-0.6622222222222223,-4.375,-4.5625,68.9375
1589551909.338124,-1.49,-2.99,9.29,0.4488888888888889,-0.024444444444444446,-0.6622222222222223,6.5,0.6875,83.6875
1589551909.3442204,-1.5,-2.94,9.08,0.4755555555555556,0.008888888888888889,-0.6411111111111111,0.75,-3.5625,86.625
1589551909.3541672,-1.62,-3.05,8.75,0.4755555555555556,0.008888888888888889,-0.6411111111111111,-2.375,-4.5625,86.25
1589551909.3609414,-1.78,-3.25,9.6,0.4755555555555556,0.008888888888888889,-0.6411111111111111,0.125,-0.3125,97.5625
1589551909.3749466,-1.68,-3.08,9.03,0.4755555555555556,0.008888888888888889,-0.6411111111111111,-6.0,5.9375,89.5
1589551909.3841407,-1.61,-2.93,8.63,0.4755555555555556,0.008888888888888889,-0.6411111111111111,3.375,-14.6875,77.8125
1589551909.3952699,-1.73,-2.99,9.26,0.4777777777777778,0.027777777777777776,-0.6344444444444445,2.75,-1.0625,86.5
1589551909.4007962,-1.81,-3.08,9.59,0.4777777777777778,0.027777777777777776,-0.6344444444444445,2.375,5.4375,100.375
1589551909.4136965,-1.62,-2.79,8.35,0.4777777777777778,0.027777777777777776,-0.6344444444444445,2.5,-10.625,87.875
1589551909.4218507,-1.6,-2.79,8.64,0.4777777777777778,0.027777777777777776,-0.6344444444444445,2.5,-6.8125,90.375
1589551909.4332905,-1.68,-2.8,8.87,0.4777777777777778,0.027777777777777776,-0.6344444444444445,-5.375,-5.9375,86.5
1589551909.445627,-1.56,-2.66,8.94,0.4888888888888889,0.015555555555555557,-0.6555555555555556,1.0,-1.3125,84.375
1589551909.452065,-1.56,-2.6,9.06,0.4888888888888889,0.015555555555555557,-0.6555555555555556,2.875,-1.9375,86.25
1589551909.4659429,-1.97,-2.74,8.9,0.4888888888888889,0.015555555555555557,-0.6555555555555556,0.25,-4.0625,83.5625
1589551909.4744186,-1.85,-2.67,8.98,0.4888888888888889,0.015555555555555557,-0.6555555555555556,3.75,1.5625,78.5625
1589551909.4883175,-2.03,-2.83,9.27,0.4888888888888889,0.015555555555555557,-0.6555555555555556,5.625,0.8125,83.4375
1589551909.4939337,-1.63,-2.48,9.13,0.4811111111111111,-0.024444444444444446,-0.6555555555555556,1.5,-6.6875,67.5625
1589551909.5028095,-1.73,-2.41,9.22,0.4811111111111111,-0.024444444444444446,-0.6555555555555556,-3.75,-0.4375,54.8125
1589551909.5123088,-1.91,-2.43,9.49,0.4811111111111111,-0.024444444444444446,-0.6555555555555556,0.5,4.6875,72.5
1589551909.522616,-2.16,-2.46,9.18,0.4811111111111111,-0.024444444444444446,-0.6555555555555556,6.75,-4.8125,54.5625
1589551909.5338864,-2.27,-2.68,9.03,0.4811111111111111,-0.024444444444444446,-0.6555555555555556,0.375,-3.1875,56.25
1589551909.5457942,-2.35,-2.66,9.49,0.4922222222222222,-0.05666666666666665,-0.6411111111111111,-3.25,-3.9375,44.875
1589551909.5517945,-2.01,-2.31,8.63,0.4922222222222222,-0.05666666666666665,-0.6411111111111111,5.5,-1.8125,50.0625
1589551909.5671039,-2.2,-2.69,9.61,0.4922222222222222,-0.05666666666666665,-0.6411111111111111,4.25,8.0,41.8125
1589551909.5729167,-2.35,-2.47,8.47,0.4922222222222222,-0.05666666666666665,-0.6411111111111111,-0.75,-9.5,45.125
1589551909.585171,-2.31,-2.5,9.25,0.4922222222222222,-0.05666666666666665,-0.6411111111111111,-4.125,-1.1875,43.625
1589551909.591285,-2.24,-2.38,9.33,0.4844444444444445,-0.11,-0.6766666666666666,0.125,-1.9375,26.3125
1589551909.6022902,-2.24,-2.38,9.33,0.4844444444444445,-0.11,-0.6766666666666666,0.125,-1.9375,26.3125
1589551909.6122596,-2.22,-2.15,8.63,0.4844444444444445,-0.11,-0.6766666666666666,-5.75,-8.375,30.5
1589551909.6242714,-2.25,-2.16,8.97,0.4844444444444445,-0.11,-0.6766666666666666,4.5,2.9375,24.5625
1589551909.6343744,-2.31,-2.27,9.7,0.4844444444444445,-0.11,-0.6766666666666666,0.0,3.6875,19.25
1589551909.646303,-2.24,-2.18,8.97,0.5066666666666667,-0.22,-0.6622222222222223,1.0,2.4375,19.0
1589551909.657451,-2.83,-2.5,9.77,0.5066666666666667,-0.22,-0.6622222222222223,9.6875,8.0,15.125
1589551909.66328,-2.29,-2.22,9.01,0.5066666666666667,-0.22,-0.6622222222222223,-3.5,-7.25,8.8125
1589551909.6756024,-1.96,-1.86,7.45,0.5066666666666667,-0.22,-0.6622222222222223,1.875,-7.5,6.5
1589551909.6845725,-2.37,-2.37,10.21,0.5066666666666667,-0.22,-0.6622222222222223,9.9375,6.4375,-1.625
1589551909.6975071,-2.07,-2.03,8.7,0.5933333333333334,-0.6577777777777778,-0.4722222222222222,-2.0,3.8125,2.625
1589551909.7034626,-2.01,-2.07,9.01,0.5933333333333334,-0.6577777777777778,-0.4722222222222222,3.625,-9.5,-20.0
1589551909.71331,-1.92,-2.13,9.29,0.5933333333333334,-0.6577777777777778,-0.4722222222222222,4.75,-0.5625,-22.5625
1589551909.723355,-2.02,-2.15,9.01,0.5933333333333334,-0.6577777777777778,-0.4722222222222222,-5.875,0.0625,-16.5
1589551909.7348633,-1.86,-2.07,9.17,0.5933333333333334,-0.6577777777777778,-0.4722222222222222,-1.5,3.0625,-27.4375
1589551909.7436385,-1.83,-1.91,8.83,1.2366666666666666,-0.5422222222222223,-0.4655555555555556,3.25,5.3125,-20.625
1589551909.7537274,-2.28,-2.23,9.2,1.2366666666666666,-0.5422222222222223,-0.4655555555555556,-0.125,3.3125,-35.0625
1589551909.7635374,-2.4,-2.16,9.41,1.2366666666666666,-0.5422222222222223,-0.4655555555555556,2.125,10.0,-33.75
1589551909.7749038,-2.49,-2.15,8.34,1.2366666666666666,-0.5422222222222223,-0.4655555555555556,-8.4375,-4.6875,-30.5
1589551909.791109,-2.29,-2.18,8.86,1.2366666666666666,-0.5422222222222223,-0.4655555555555556,2.875,0.3125,-47.25
1589551909.7973368,-2.12,-2.59,9.6,0.6788888888888889,-0.17777777777777778,-0.7144444444444444,-3.25,7.75,-45.5
1589551909.8056126,-2.15,-2.68,8.92,0.6788888888888889,-0.17777777777777778,-0.7144444444444444,-0.75,3.3125,-46.0
1589551909.8159256,-1.7,-2.67,8.95,0.6788888888888889,-0.17777777777777778,-0.7144444444444444,-3.75,1.1875,-59.25
1589551909.8286984,-1.92,-2.92,9.45,0.6788888888888889,-0.17777777777777778,-0.7144444444444444,1.25,3.9375,-66.5625
1589551909.8352268,-1.72,-2.61,8.74,0.6788888888888889,-0.17777777777777778,-0.7144444444444444,2.375,-0.1875,-87.625
1589551909.849035,-1.74,-2.51,8.93,0.5522222222222222,-0.06555555555555556,-0.7055555555555556,-4.375,5.1875,-81.9375
1589551909.855162,-1.59,-2.36,9.0,0.5522222222222222,-0.06555555555555556,-0.7055555555555556,1.125,12.125,-94.6875
1589551909.8655553,-1.28,-2.36,8.54,0.5522222222222222,-0.06555555555555556,-0.7055555555555556,-1.625,-2.3125,-102.875
1589551909.8734086,-1.34,-2.54,8.84,0.5522222222222222,-0.06555555555555556,-0.7055555555555556,-10.1875,1.4375,-118.75
1589551909.8874185,-1.36,-2.7,9.34,0.5522222222222222,-0.06555555555555556,-0.7055555555555556,-1.875,0.0625,-122.0625
1589551909.892865,-1.47,-2.96,9.0,0.56,-0.01888888888888889,-0.7533333333333333,-2.875,2.4375,-131.625
1589551909.9054544,-1.47,-2.96,9.0,0.56,-0.01888888888888889,-0.7533333333333333,-2.875,2.4375,-131.625
1589551909.913806,-1.74,-3.25,9.03,0.56,-0.01888888888888889,-0.7533333333333333,-1.5,6.1875,-137.1875
1589551909.9256382,-1.79,-3.3,9.06,0.56,-0.01888888888888889,-0.7533333333333333,2.375,4.1875,-138.0625
1589551909.9361944,-1.29,-3.18,9.1,0.56,-0.01888888888888889,-0.7533333333333333,-5.875,3.8125,-144.75
1589551909.9475725,-1.3,-3.35,8.96,0.5522222222222222,0.01888888888888889,-0.7411111111111112,-7.4375,-1.0625,-150.8125
1589551909.9544947,-1.67,-3.81,9.27,0.5522222222222222,0.01888888888888889,-0.7411111111111112,-7.6875,12.75,-151.5625
1589551909.9645875,-5.56,-7.6,10.74,0.5522222222222222,0.01888888888888889,-0.7411111111111112,18.75,-33.9375,-133.6875
1589551909.9783778,-33.37,-20.21,8.58,0.5522222222222222,0.01888888888888889,-0.7411111111111112,-121.5625,-167.25,-319.5625
1589551909.9859214,3.13,-1.4,-1.06,0.5522222222222222,0.01888888888888889,-0.7411111111111112,-66.8125,16.3125,-24.6875
1589551909.9994252,-1.5,3.34,3.64,0.5344444444444445,0.09888888888888887,-0.7177777777777777,49.6875,-81.5,-31.75
1589551910.0062432,3.74,0.36,14.22,0.5344444444444445,0.09888888888888887,-0.7177777777777777,104.0,68.5,-65.1875
1589551910.0193615,0.07,2.33,5.07,0.5344444444444445,0.09888888888888887,-0.7177777777777777,-28.25,-40.375,-22.1875
1589551910.0264947,0.18,2.52,4.96,0.5344444444444445,0.09888888888888887,-0.7177777777777777,-16.125,-44.8125,-20.75
1589551910.036593,1.29,-0.17,13.05,0.5344444444444445,0.09888888888888887,-0.7177777777777777,31.125,17.9375,-26.8125
1589551910.0434072,0.76,0.32,6.51,0.5288888888888889,0.17333333333333334,-0.7055555555555556,-5.75,-6.1875,-13.8125
1589551910.0581946,0.21,-1.29,9.32,0.5288888888888889,0.17333333333333334,-0.7055555555555556,-2.5,5.4375,-3.875
1589551910.0645552,-0.63,-2.16,9.47,0.5288888888888889,0.17333333333333334,-0.7055555555555556,7.9375,-2.3125,-5.5
1589551910.0787385,-1.18,-2.13,9.55,0.5288888888888889,0.17333333333333334,-0.7055555555555556,-5.25,3.3125,4.0
1589551910.0862718,-1.16,-2.03,8.83,0.5288888888888889,0.17333333333333334,-0.7055555555555556,-10.4375,-3.8125,6.0
1589551910.095366,-0.92,-2.06,8.8,0.5311111111111111,0.1688888888888889,-0.7266666666666667,-5.125,-2.3125,16.75
1589551910.105338,-0.87,-2.19,9.59,0.5311111111111111,0.1688888888888889,-0.7266666666666667,7.9375,1.1875,9.6875
1589551910.114443,-0.9,-2.15,8.67,0.5311111111111111,0.1688888888888889,-0.7266666666666667,-4.5,4.1875,10.3125
1589551910.1295614,-0.88,-2.3,9.34,0.5311111111111111,0.1688888888888889,-0.7266666666666667,-2.125,-1.4375,-4.125
1589551910.1367393,-0.89,-2.25,9.03,0.5311111111111111,0.1688888888888889,-0.7266666666666667,4.625,5.8125,7.6875
1589551910.1444695,-0.87,-2.17,8.93,0.54,0.17555555555555555,-0.6966666666666667,5.0,-2.6875,18.125
1589551910.1565447,-0.91,-2.22,8.76,0.54,0.17555555555555555,-0.6966666666666667,0.75,2.1875,0.125
1589551910.1660929,-5.82,-8.38,10.27,0.54,0.17555555555555555,-0.6966666666666667,-17.625,-18.6875,-39.8125
1589551910.1786141,-15.3,-27.43,6.21,0.54,0.17555555555555555,-0.6966666666666667,-10.0625,25.125,-49.0625
1589551910.1907213,0.91,0.88,11.26,0.54,0.17555555555555555,-0.6966666666666667,0.125,12.0,-22.0625
1589551910.1969564,-0.84,-0.41,7.45,0.5288888888888889,0.1688888888888889,-0.7055555555555556,-17.125,-12.0,3.375
1589551910.2096155,-1.53,-1.95,9.31,0.5288888888888889,0.1688888888888889,-0.7055555555555556,2.75,-1.9375,3.5
1589551910.2160528,-1.02,-2.04,9.62,0.5288888888888889,0.1688888888888889,-0.7055555555555556,9.0625,9.125,9.0625
1589551910.2296338,-5.41,-11.26,8.23,0.5288888888888889,0.1688888888888889,-0.7055555555555556,-8.3125,-9.0,-12.5625
1589551910.2374752,-1.43,-3.39,8.57,0.5288888888888889,0.1688888888888889,-0.7055555555555556,1.5,2.5625,-8.9375
1589551910.245451,-0.6,-1.61,10.23,0.5422222222222223,0.17777777777777778,-0.7177777777777777,-3.125,4.8125,1.625
1589551910.2518172,-0.6,-1.61,10.23,0.5422222222222223,0.17777777777777778,-0.7177777777777777,-3.125,4.8125,1.625
1589551910.2585833,-2.07,-3.96,8.49,0.5422222222222223,0.17777777777777778,-0.7177777777777777,-2.875,2.3125,2.75
1589551910.2697234,-1.68,-3.84,9.05,0.5422222222222223,0.17777777777777778,-0.7177777777777777,1.5,-2.3125,0.125
1589551910.2772965,-1.68,-3.71,9.12,0.5422222222222223,0.17777777777777778,-0.7177777777777777,4.125,10.0,1.75
1589551910.2875938,-1.85,-3.54,8.89,0.5422222222222223,0.17777777777777778,-0.7177777777777777,-5.0,0.5625,8.1875
1589551910.294984,-1.66,-3.68,9.32,0.5488888888888889,0.17777777777777778,-0.7055555555555556,1.0,2.4375,-4.0
1589551910.306798,-1.83,-3.63,8.88,0.5488888888888889,0.17777777777777778,-0.7055555555555556,2.5,-1.0625,-5.25
1589551910.3167045,-1.76,-3.64,8.85,0.5488888888888889,0.17777777777777778,-0.7055555555555556,1.0,-2.8125,-0.25
1589551910.3292766,-1.79,-3.67,8.85,0.5488888888888889,0.17777777777777778,-0.7055555555555556,6.375,-5.6875,-4.25
1589551910.3415506,-1.72,-3.62,9.16,0.5488888888888889,0.17777777777777778,-0.7055555555555556,1.25,-2.4375,-0.875
1589551910.3478088,-1.78,-3.59,9.04,0.5344444444444445,0.19,-0.7122222222222222,-2.5,-3.5625,-9.0625
1589551910.3609295,-1.75,-3.64,9.06,0.5344444444444445,0.19,-0.7122222222222222,-1.75,2.3125,-3.75
1589551910.367441,-1.82,-3.69,8.82,0.5344444444444445,0.19,-0.7122222222222222,1.125,-9.25,2.375
1589551910.3812404,-1.75,-3.67,8.94,0.5344444444444445,0.19,-0.7122222222222222,1.75,3.3125,-4.75
1589551910.3892775,-1.76,-3.65,9.0,0.5344444444444445,0.19,-0.7122222222222222,-2.0,-1.1875,-4.875
1589551910.3974097,-1.71,-3.59,9.13,0.5422222222222223,0.17777777777777778,-0.7055555555555556,-6.0,3.3125,0.875
1589551910.4072444,-1.79,-3.64,8.99,0.5422222222222223,0.17777777777777778,-0.7055555555555556,-0.625,-1.0625,3.125
1589551910.4195607,-1.78,-3.65,8.9,0.5422222222222223,0.17777777777777778,-0.7055555555555556,-5.625,2.3125,5.25
1589551910.4274278,-1.79,-3.69,8.85,0.5422222222222223,0.17777777777777778,-0.7055555555555556,2.625,5.0625,11.1875
1589551910.43961,-1.78,-3.65,9.03,0.5422222222222223,0.17777777777777778,-0.7055555555555556,0.875,5.5625,-11.3125
1589551910.4469929,-1.74,-3.62,9.07,0.5433333333333333,0.19,-0.72,4.75,2.9375,-7.9375
1589551910.4574904,-1.76,-3.62,9.09,0.5433333333333333,0.19,-0.72,-4.875,6.4375,6.875
1589551910.4680815,-1.76,-3.66,8.9,0.5433333333333333,0.19,-0.72,0.25,-0.9375,-0.25
1589551910.4805238,-1.82,-3.67,8.9,0.5433333333333333,0.19,-0.72,5.875,0.0625,3.125
1589551910.4949439,-1.76,-3.68,8.96,0.5433333333333333,0.19,-0.72,-3.25,2.0625,0.75
1589551910.501022,-1.76,-3.63,9.07,0.5311111111111111,0.17,-0.7144444444444444,-5.875,-1.4375,-8.4375
1589551910.5117025,-1.73,-3.62,9.04,0.5311111111111111,0.17,-0.7144444444444444,3.625,-0.1875,8.6875
1589551910.5176609,-1.78,-3.65,8.91,0.5311111111111111,0.17,-0.7144444444444444,-2.375,7.375,3.625
1589551910.5275033,-1.78,-3.68,8.9,0.5311111111111111,0.17,-0.7144444444444444,-2.125,-5.8125,0.625
1589551910.5398536,-1.77,-3.69,8.96,0.5311111111111111,0.17,-0.7144444444444444,2.5,0.4375,2.25
1589551910.5478008,-1.75,-3.62,9.08,0.5511111111111111,0.16333333333333333,-0.72,0.5,-8.125,-6.375
1589551910.557328,-1.73,-3.61,9.09,0.5511111111111111,0.16333333333333333,-0.72,-7.3125,-5.0625,-3.75
1589551910.568001,-1.76,-3.63,8.92,0.5511111111111111,0.16333333333333333,-0.72,-1.125,2.3125,2.25
1589551910.5774622,-1.76,-3.68,8.96,0.5511111111111111,0.16333333333333333,-0.72,-5.125,-1.1875,6.375
1589551910.5915835,-1.78,-3.67,8.94,0.5511111111111111,0.16333333333333333,-0.72,1.875,-1.0625,-0.75
1589551910.5976493,-1.74,-3.64,9.04,0.5511111111111111,0.17,-0.7122222222222222,4.75,-1.0625,-6.25
1589551910.6076207,-1.76,-3.63,9.07,0.5511111111111111,0.17,-0.7122222222222222,-6.125,1.9375,-0.625
1589551910.6184678,-1.74,-3.64,8.94,0.5511111111111111,0.17,-0.7122222222222222,-2.125,0.6875,-1.75
1589551910.6305778,-1.78,-3.67,8.94,0.5511111111111111,0.17,-0.7122222222222222,0.0,-0.0625,-6.0
1589551910.6456244,-1.78,-3.67,8.93,0.5511111111111111,0.17,-0.7122222222222222,7.3125,3.5625,-3.25
1589551910.6514544,-1.76,-3.66,9.0,0.5511111111111111,0.18222222222222226,-0.7122222222222222,4.0,-3.1875,2.25
1589551910.6641195,-1.75,-3.62,9.04,0.5511111111111111,0.18222222222222226,-0.7122222222222222,-0.75,-2.3125,-1.375
1589551910.6707938,-1.75,-3.63,8.96,0.5511111111111111,0.18222222222222226,-0.7122222222222222,-2.375,0.8125,-5.375
1589551910.6842802,-1.79,-3.65,8.94,0.5511111111111111,0.18222222222222226,-0.7122222222222222,1.0,-4.8125,8.8125
1589551910.6904252,-1.77,-3.65,8.95,0.5511111111111111,0.18222222222222226,-0.7122222222222222,1.75,-3.0625,11.4375
