time,acc_x,acc_y,acc_z,mag_x,mag_y,mag_z,gyr_x,gyr_y,gyr_z
1589541562.1527686,-0.34,-4.16,8.83,0.5611111111111111,0.28444444444444444,-0.67,-0.375,-0.8125,0.0
1589541562.1653106,-0.3,-4.19,8.91,0.5733333333333334,0.27,-0.67,-0.75,-0.8125,-0.1875
1589541562.1715555,-0.3,-4.19,8.93,0.5733333333333334,0.27,-0.67,-0.75,-0.25,-0.1875
1589541562.18548,-0.32,-4.21,8.75,0.5733333333333334,0.27,-0.67,-0.5625,0.6875,0.0
1589541562.1920192,-0.29,-4.18,8.77,0.5733333333333334,0.27,-0.67,-0.4375,0.125,0.0
1589541562.2047026,-0.31,-4.19,8.81,0.5733333333333334,0.27,-0.67,-0.0625,-0.0625,0.1875
1589541562.2115116,-0.35,-4.18,8.8,0.5688888888888889,0.27,-0.6555555555555556,0.0625,-0.1875,0.0
1589541562.2208517,-0.31,-4.18,8.76,0.5688888888888889,0.27,-0.6555555555555556,-0.0625,-0.75,0.0
1589541562.2303948,-0.28,-4.21,8.74,0.5688888888888889,0.27,-0.6555555555555556,0.0625,-0.375,-0.125
1589541562.240467,-0.27,-4.18,8.72,0.5688888888888889,0.27,-0.6555555555555556,0.375,-0.375,0.0625
1589541562.2585945,-0.33,-4.19,8.86,0.5688888888888889,0.27,-0.6555555555555556,0.375,-0.4375,-0.125
1589541562.2641776,-0.34,-4.18,8.85,0.5688888888888889,0.27,-0.6488888888888888,-0.0625,-0.625,-0.0625
1589541562.2710636,-0.3,-4.18,8.89,0.5688888888888889,0.27,-0.6488888888888888,-0.5,-1.0,-0.1875
1589541562.2811394,-0.33,-4.1,8.55,0.5688888888888889,0.27,-0.6488888888888888,-1.5625,-1.875,-0.25
1589541562.2944095,-0.25,-4.23,9.06,0.5688888888888889,0.27,-0.6488888888888888,-1.25,-2.375,-0.4375
1589541562.3034494,-0.27,-4.21,8.78,0.5688888888888889,0.27,-0.6488888888888888,-0.375,-1.125,-0.375
1589541562.3159769,-0.27,-4.18,8.72,0.5611111111111111,0.27,-0.6622222222222223,-0.125,-0.25,-0.3125
1589541562.321881,-0.31,-4.21,8.85,0.5611111111111111,0.27,-0.6622222222222223,0.1875,0.6875,0.0625
1589541562.3358905,-0.32,-4.19,8.62,0.5611111111111111,0.27,-0.6622222222222223,0.6875,0.9375,0.0625
1589541562.3419695,-0.35,-4.15,8.6,0.5611111111111111,0.27,-0.6622222222222223,0.6875,0.5625,-0.125
1589541562.353658,-0.32,-4.16,8.65,0.5611111111111111,0.27,-0.6622222222222223,-0.125,-0.875,-0.1875
1589541562.3613849,-0.2,-4.12,8.84,0.5611111111111111,0.28444444444444444,-0.6488888888888888,-0.8125,-0.9375,-0.25
1589541562.3752394,-0.17,-4.23,8.98,0.5611111111111111,0.28444444444444444,-0.6488888888888888,-1.6875,-1.3125,-1.0
1589541562.3816893,-0.2,-4.22,8.94,0.5611111111111111,0.28444444444444444,-0.6488888888888888,-1.0625,-1.4375,-2.25
1589541562.3948689,-0.22,-4.19,8.89,0.5611111111111111,0.28444444444444444,-0.6488888888888888,-0.25,-0.75,-2.9375
1589541562.4035127,-0.31,-4.21,8.84,0.5611111111111111,0.28444444444444444,-0.6488888888888888,-0.3125,-0.125,-3.5
1589541562.4146292,-0.36,-4.26,8.94,0.5422222222222223,0.2766666666666667,-0.6488888888888888,-0.5625,-0.1875,-3.3125
1589541562.4213102,-0.38,-4.23,8.8,0.5422222222222223,0.2766666666666667,-0.6488888888888888,-0.25,-0.1875,-2.25
1589541562.4317665,-0.27,-4.19,8.62,0.5422222222222223,0.2766666666666667,-0.6488888888888888,-0.1875,-0.125,-1.375
1589541562.4420874,-0.23,-4.14,8.64,0.5422222222222223,0.2766666666666667,-0.6488888888888888,-0.5,-0.3125,-1.3125
1589541562.453398,-0.12,-4.19,8.8,0.5422222222222223,0.2766666666666667,-0.6488888888888888,-1.125,-0.25,-2.0625
1589541562.4612253,-0.18,-4.2,8.92,0.5688888888888889,0.2888888888888889,-0.6555555555555556,-0.0625,-0.4375,-3.5625
1589541562.4717793,0.01,-4.03,8.71,0.5688888888888889,0.2888888888888889,-0.6555555555555556,0.0,-0.8125,-5.375
1589541562.4810238,0.06,-3.98,8.8,0.5688888888888889,0.2888888888888889,-0.6555555555555556,-1.1875,-0.875,-8.4375
1589541562.492853,0.14,-3.93,8.82,0.5688888888888889,0.2888888888888889,-0.6555555555555556,-2.5,-1.0625,-12.8125
1589541562.5032392,-0.15,-3.64,9.16,0.5688888888888889,0.2888888888888889,-0.6555555555555556,-3.625,-0.125,-18.0625
1589541562.5110874,-0.24,-3.66,8.84,0.5466666666666666,0.2766666666666667,-0.6411111111111111,-3.9375,-0.0625,-21.8125
1589541562.5168636,-0.24,-3.66,8.84,0.5466666666666666,0.2766666666666667,-0.6411111111111111,-3.9375,-0.0625,-21.8125
1589541562.5273688,-0.43,-3.68,8.87,0.5466666666666666,0.2766666666666667,-0.6411111111111111,-3.4375,0.125,-21.875
1589541562.533777,-0.34,-3.64,8.7,0.5466666666666666,0.2766666666666667,-0.6411111111111111,-3.1875,-0.0625,-19.25
1589541562.5456152,-0.25,-3.35,8.67,0.5466666666666666,0.2766666666666667,-0.6411111111111111,-2.6875,-0.375,-17.875
1589541562.5532722,-0.16,-3.16,8.66,0.5466666666666666,0.2766666666666667,-0.6411111111111111,-3.0,-0.5,-17.0625
1589541562.5647686,-0.21,-3.07,8.76,0.5466666666666666,0.2888888888888889,-0.6488888888888888,-3.25,-0.5625,-15.375
1589541562.5714989,-0.22,-2.94,8.87,0.5466666666666666,0.2888888888888889,-0.6488888888888888,-2.625,-0.5,-12.625
1589541562.581782,-0.08,-3.05,8.83,0.5466666666666666,0.2888888888888889,-0.6488888888888888,-1.3125,0.0,-8.8125
1589541562.5933132,-0.11,-3.11,8.85,0.5466666666666666,0.2888888888888889,-0.6488888888888888,0.4375,0.625,-5.8125
1589541562.6047134,-0.17,-3.09,8.91,0.5466666666666666,0.2888888888888889,-0.6488888888888888,0.0625,0.1875,-3.375
1589541562.6117947,-0.09,-3.2,8.98,0.5277777777777778,0.2966666666666667,-0.6488888888888888,-0.625,-0.625,-1.8125
1589541562.623668,-0.1,-3.19,8.89,0.5277777777777778,0.2966666666666667,-0.6488888888888888,-0.25,-0.25,-0.75
1589541562.632889,-0.07,-3.15,8.77,0.5277777777777778,0.2966666666666667,-0.6488888888888888,-0.3125,-0.125,0.8125
1589541562.6453366,-0.05,-3.17,8.69,0.5277777777777778,0.2966666666666667,-0.6488888888888888,-0.6875,-0.5625,2.1875
1589541562.6609938,-0.06,-3.16,8.79,0.5277777777777778,0.2966666666666667,-0.6488888888888888,-1.0,-0.6875,3.125
1589541562.666843,0.03,-3.27,8.71,0.5422222222222223,0.28444444444444444,-0.6488888888888888,0.3125,0.9375,4.5625
1589541562.6773102,0.03,-3.19,8.73,0.5422222222222223,0.28444444444444444,-0.6488888888888888,0.0625,-0.0625,4.5
1589541562.6844392,0.02,-3.33,8.56,0.5422222222222223,0.28444444444444444,-0.6488888888888888,0.4375,0.25,3.875
1589541562.6981318,-0.01,-3.39,8.93,0.5422222222222223,0.28444444444444444,-0.6488888888888888,0.4375,0.0,3.4375
1589541562.7052667,-0.02,-3.38,8.84,0.5422222222222223,0.28444444444444444,-0.6488888888888888,-0.0625,-0.3125,2.8125
1589541562.7163148,-0.04,-3.55,8.9,0.5688888888888889,0.3111111111111111,-0.67,-0.0625,-0.8125,2.5625
1589541562.7225974,-0.05,-3.61,8.88,0.5688888888888889,0.3111111111111111,-0.67,-0.125,-0.75,2.5625
1589541562.735943,0.02,-3.73,8.83,0.5688888888888889,0.3111111111111111,-0.67,-0.125,0.0625,2.0625
1589541562.7423587,0.0,-3.56,8.7,0.5688888888888889,0.3111111111111111,-0.67,-0.25,0.3125,1.0
1589541562.7559721,-0.02,-3.35,8.85,0.5688888888888889,0.3111111111111111,-0.67,-0.1875,-0.125,-0.625
1589541562.762551,0.01,-3.62,8.72,0.5422222222222223,0.3033333333333333,-0.6844444444444444,0.125,0.0625,-1.4375
1589541562.7731092,0.0,-3.63,8.75,0.5422222222222223,0.3033333333333333,-0.6844444444444444,0.25,0.3125,-2.75
1589541562.7840936,0.03,-3.45,8.66,0.5422222222222223,0.3033333333333333,-0.6844444444444444,-0.1875,0.0625,-3.9375
1589541562.7963428,-0.37,-3.28,8.81,0.5422222222222223,0.3033333333333333,-0.6844444444444444,-0.0625,0.0,-4.875
1589541562.8047562,-0.62,-3.11,8.81,0.5422222222222223,0.3033333333333333,-0.6844444444444444,-1.25,-1.25,-1.3125
1589541562.8128846,-0.26,-3.37,9.6,0.52,0.3111111111111111,-0.6766666666666666,-2.5,-3.3125,6.0
1589541562.8195512,-0.26,-3.37,9.6,0.52,0.3111111111111111,-0.6766666666666666,-2.5,-3.3125,6.0
1589541562.8282394,0.03,-3.71,8.47,0.52,0.3111111111111111,-0.6766666666666666,5.25,4.0625,10.0625
1589541562.8342588,-0.18,-3.89,9.37,0.52,0.3111111111111111,-0.6766666666666666,-1.1875,-2.8125,4.3125
1589541562.848136,-0.35,-3.62,8.67,0.52,0.3111111111111111,-0.6766666666666666,-3.25,-0.75,1.0
1589541562.855524,-0.52,-3.61,8.48,0.52,0.3111111111111111,-0.6766666666666666,2.6875,1.9375,3.8125
1589541562.8630106,-0.27,-3.91,8.87,0.5544444444444444,0.3033333333333333,-0.6911111111111111,-0.75,-2.5,9.3125
1589541562.875099,-0.18,-3.81,8.68,0.5544444444444444,0.3033333333333333,-0.6911111111111111,-1.875,-1.0,15.25
1589541562.887395,-0.23,-3.69,8.58,0.5544444444444444,0.3033333333333333,-0.6911111111111111,1.3125,-0.0625,16.625
1589541562.8944108,-0.25,-3.58,8.84,0.5544444444444444,0.3033333333333333,-0.6911111111111111,-0.1875,-1.625,18.0
1589541562.9066033,-0.3,-3.64,8.78,0.5544444444444444,0.3033333333333333,-0.6911111111111111,-1.1875,-1.125,20.1875
1589541562.9141064,-0.24,-3.78,8.88,0.5544444444444444,0.3111111111111111,-0.6766666666666666,0.8125,-1.0625,22.5
1589541562.9248679,-0.27,-3.6,8.93,0.5544444444444444,0.3111111111111111,-0.6766666666666666,0.1875,-1.625,23.3125
1589541562.935359,-0.46,-3.64,8.79,0.5544444444444444,0.3111111111111111,-0.6766666666666666,-0.6875,-1.25,23.875
1589541562.9453533,-0.56,-3.56,8.84,0.5544444444444444,0.3111111111111111,-0.6766666666666666,0.375,-1.5,25.75
1589541562.9563975,-0.52,-3.44,8.8,0.5544444444444444,0.3111111111111111,-0.6766666666666666,-0.5,-1.9375,29.6875
1589541562.9678388,-0.43,-3.59,8.76,0.5544444444444444,0.3033333333333333,-0.6911111111111111,-0.1875,-1.375,34.4375
1589541562.9789262,-0.31,-3.68,8.8,0.5544444444444444,0.3033333333333333,-0.6911111111111111,0.25,-2.0625,37.375
1589541562.9853942,-0.4,-3.68,8.72,0.5544444444444444,0.3033333333333333,-0.6911111111111111,-0.25,-2.375,37.9375
1589541562.9949837,-0.42,-3.65,8.74,0.5544444444444444,0.3033333333333333,-0.6911111111111111,-0.1875,-1.8125,39.1875
1589541563.0066686,-0.43,-3.51,8.79,0.5544444444444444,0.3033333333333333,-0.6911111111111111,0.4375,-1.9375,41.0625
1589541563.0141056,-0.49,-3.54,8.83,0.5344444444444445,0.2888888888888889,-0.7244444444444444,0.0625,-2.4375,42.75
1589541563.0265012,-0.47,-3.51,8.88,0.5344444444444445,0.2888888888888889,-0.7244444444444444,-0.125,-2.3125,44.8125
1589541563.0358293,-0.48,-3.35,8.76,0.5344444444444445,0.2888888888888889,-0.7244444444444444,0.5,-2.5625,46.625
1589541563.0447507,-0.51,-3.46,8.81,0.5344444444444445,0.2888888888888889,-0.7244444444444444,0.625,-2.3125,48.4375
1589541563.0600648,-0.59,-3.48,8.92,0.5344444444444445,0.2888888888888889,-0.7244444444444444,-1.3125,-3.8125,50.625
1589541563.0659149,-0.49,-3.42,8.81,0.5611111111111111,0.2766666666666667,-0.7388888888888889,-0.625,-2.6875,52.8125
1589541563.0792372,-0.56,-3.49,8.9,0.5611111111111111,0.2766666666666667,-0.7388888888888889,-0.1875,-3.125,54.3125
1589541563.0852563,-0.62,-3.61,8.63,0.5611111111111111,0.2766666666666667,-0.7388888888888889,-0.5,-2.875,55.3125
1589541563.0958366,-0.61,-3.69,8.77,0.5611111111111111,0.2766666666666667,-0.7388888888888889,-0.125,-2.8125,56.5625
1589541563.1061587,-0.66,-3.79,8.86,0.5611111111111111,0.2766666666666667,-0.7388888888888889,-0.4375,-3.5,57.0
1589541563.1174805,-0.67,-3.75,8.83,0.5733333333333334,0.2577777777777778,-0.7388888888888889,-0.4375,-3.1875,57.5
1589541563.1248693,-0.7,-3.8,8.85,0.5733333333333334,0.2577777777777778,-0.7388888888888889,-0.0625,-2.5,57.9375
1589541563.1353984,-0.7,-3.83,8.79,0.5733333333333334,0.2577777777777778,-0.7388888888888889,0.125,-2.75,57.5
1589541563.145274,-0.7,-3.73,8.84,0.5733333333333334,0.2577777777777778,-0.7388888888888889,0.0,-2.5625,56.9375
1589541563.157749,-0.76,-3.72,8.82,0.5733333333333334,0.2577777777777778,-0.7388888888888889,-0.3125,-2.3125,55.75
1589541563.164781,-0.83,-3.76,8.93,0.5688888888888889,0.2288888888888889,-0.76,-0.5,-3.125,54.625
1589541563.1769125,-0.83,-3.55,8.81,0.5688888888888889,0.2288888888888889,-0.76,-0.1875,-2.625,54.0625
1589541563.1876078,-0.8,-3.49,8.82,0.5688888888888889,0.2288888888888889,-0.76,-0.875,-3.125,54.25
1589541563.195677,-0.92,-3.58,8.75,0.5688888888888889,0.2288888888888889,-0.76,-0.375,-3.1875,54.75
1589541563.2077591,-0.94,-3.62,8.75,0.5688888888888889,0.2288888888888889,-0.76,0.5625,-1.8125,54.875
1589541563.2154033,-0.89,-3.54,8.87,0.5466666666666666,0.2288888888888889,-0.76,-0.6875,-2.75,54.5
1589541563.2299895,-1.02,-3.71,8.75,0.5466666666666666,0.2288888888888889,-0.76,-0.6875,-2.5,54.125
1589541563.236827,-1.04,-3.57,8.76,0.5466666666666666,0.2288888888888889,-0.76,-0.1875,-2.5,54.3125
1589541563.245832,-1.03,-3.46,8.81,0.5466666666666666,0.2288888888888889,-0.76,-0.875,-3.25,54.5
1589541563.2586625,-1.11,-3.47,8.91,0.5466666666666666,0.2288888888888889,-0.76,-0.1875,-2.125,55.3125
1589541563.2695606,-1.04,-3.54,8.88,0.5811111111111111,0.21666666666666667,-0.7955555555555556,0.625,-1.6875,56.75
1589541563.2764726,-1.11,-3.48,8.92,0.5811111111111111,0.21666666666666667,-0.7955555555555556,-0.8125,-3.0,56.9375
1589541563.286535,-1.21,-3.64,8.7,0.5811111111111111,0.21666666666666667,-0.7955555555555556,-1.4375,-2.4375,56.5
1589541563.2963018,-1.24,-3.66,8.87,0.5811111111111111,0.21666666666666667,-0.7955555555555556,0.1875,-2.1875,56.8125
1589541563.3081515,-1.33,-3.75,8.73,0.5811111111111111,0.21666666666666667,-0.7955555555555556,-0.625,-2.5625,56.5625
1589541563.3165035,-1.19,-3.47,8.71,0.6111111111111112,0.18222222222222226,-0.8533333333333334,-1.375,-2.25,56.5625
1589541563.3282268,-1.25,-3.5,8.9,0.6111111111111112,0.18222222222222226,-0.8533333333333334,-0.875,-3.0625,56.6875
1589541563.3363042,-1.31,-3.48,8.76,0.6111111111111112,0.18222222222222226,-0.8533333333333334,-1.25,-2.8125,56.4375
1589541563.3475366,-1.33,-3.51,8.81,0.6111111111111112,0.18222222222222226,-0.8533333333333334,-1.3125,-2.5,56.875
1589541563.3587756,-1.38,-3.71,8.76,0.6111111111111112,0.18222222222222226,-0.8533333333333334,0.4375,-1.5,57.3125
1589541563.3675494,-1.34,-3.47,8.91,0.6522222222222223,0.10444444444444444,-0.8955555555555555,-0.25,-2.25,56.9375
1589541563.381356,-1.29,-3.41,8.87,0.6522222222222223,0.10444444444444444,-0.8955555555555555,-1.5,-2.4375,56.3125
1589541563.3870533,-1.33,-3.29,8.68,0.6522222222222223,0.10444444444444444,-0.8955555555555555,-1.125,-2.125,55.25
1589541563.3970106,-1.44,-3.43,8.7,0.6522222222222223,0.10444444444444444,-0.8955555555555555,-0.25,-1.625,54.6875
1589541563.4087458,-1.48,-3.43,8.94,0.6522222222222223,0.10444444444444444,-0.8955555555555555,-1.6875,-2.8125,54.25
1589541563.4201882,-1.43,-3.31,8.64,0.6855555555555556,0.02666666666666667,-0.8888888888888888,-2.0625,-2.3125,53.75
1589541563.4263134,-1.55,-3.67,8.9,0.6855555555555556,0.02666666666666667,-0.8888888888888888,-1.1875,-2.1875,52.9375
1589541563.4400985,-1.81,-3.78,8.6,0.6855555555555556,0.02666666666666667,-0.8888888888888888,-0.6875,-2.0,51.875
1589541563.4461534,-1.79,-3.73,8.79,0.6855555555555556,0.02666666666666667,-0.8888888888888888,-0.875,-1.4375,51.125
1589541563.4579418,-1.83,-3.73,8.96,0.6855555555555556,0.02666666666666667,-0.8888888888888888,-1.5625,-2.875,51.3125
1589541563.465888,-1.85,-3.64,8.78,0.6877777777777778,-0.07111111111111111,-0.9455555555555556,-1.0625,-2.5625,51.875
1589541563.4802785,-1.85,-3.52,8.77,0.6877777777777778,-0.07111111111111111,-0.9455555555555556,-1.3125,-2.5,52.625
1589541563.4878983,-1.83,-3.5,8.71,0.6877777777777778,-0.07111111111111111,-0.9455555555555556,-1.625,-2.875,53.6875
1589541563.4970176,-1.84,-3.42,8.91,0.6877777777777778,-0.07111111111111111,-0.9455555555555556,-1.625,-3.1875,54.9375
1589541563.510889,-1.72,-3.28,8.8,0.6877777777777778,-0.07111111111111111,-0.9455555555555556,-2.0625,-2.9375,56.1875
1589541563.5168602,-1.89,-3.5,8.92,0.5633333333333334,-0.1688888888888889,-0.7888888888888889,-0.6875,-3.0,57.125
1589541563.5327435,-1.98,-3.53,8.79,0.5633333333333334,-0.1688888888888889,-0.7888888888888889,0.4375,-3.0625,56.625
1589541563.5386648,-2.03,-3.6,8.69,0.5633333333333334,-0.1688888888888889,-0.7888888888888889,-0.625,-2.75,55.8125
1589541563.5475829,-2.12,-3.61,8.66,0.5633333333333334,-0.1688888888888889,-0.7888888888888889,-1.125,-3.0,54.875
1589541563.558721,-2.29,-3.73,8.86,0.5633333333333334,-0.1688888888888889,-0.7888888888888889,-0.375,-2.375,54.375
1589541563.5709126,-2.21,-3.73,8.98,0.5522222222222222,-0.11,-0.7111111111111111,-0.8125,-3.0625,54.375
1589541563.5766654,-2.13,-3.6,8.76,0.5522222222222222,-0.11,-0.7111111111111111,-0.5,-2.375,54.5625
1589541563.588517,-2.29,-3.69,8.82,0.5522222222222222,-0.11,-0.7111111111111111,-0.6875,-3.5625,53.0625
1589541563.597839,-2.29,-3.6,8.75,0.5522222222222222,-0.11,-0.7111111111111111,-0.875,-2.9375,51.6875
1589541563.6094313,-2.4,-3.69,8.91,0.5522222222222222,-0.11,-0.7111111111111111,-0.6875,-2.75,51.375
1589541563.6162937,-2.52,-3.73,8.85,0.5611111111111111,-0.09555555555555556,-0.6844444444444444,-0.4375,-2.875,51.1875
1589541563.6255028,-2.52,-3.73,8.85,0.5611111111111111,-0.09555555555555556,-0.6844444444444444,-0.4375,-2.875,51.1875
1589541563.6313155,-2.47,-3.59,8.87,0.5611111111111111,-0.09555555555555556,-0.6844444444444444,-0.0625,-2.5625,50.375
1589541563.6386268,-2.48,-3.53,8.8,0.5611111111111111,-0.09555555555555556,-0.6844444444444444,-0.625,-3.1875,50.0
1589541563.6479552,-2.5,-3.59,8.76,0.5611111111111111,-0.09555555555555556,-0.6844444444444444,-0.25,-2.6875,50.9375
1589541563.6601324,-2.7,-3.71,8.89,0.5611111111111111,-0.09555555555555556,-0.6844444444444444,0.1875,-2.8125,51.3125
1589541563.6704445,-2.58,-3.51,8.88,0.5755555555555556,-0.09222222222222222,-0.6611111111111111,-0.25,-3.0625,51.75
1589541563.6787136,-2.52,-3.38,8.91,0.5755555555555556,-0.09222222222222222,-0.6611111111111111,-0.25,-3.0625,51.75
1589541563.690368,-2.5,-3.31,8.84,0.5755555555555556,-0.09222222222222222,-0.6611111111111111,-0.1875,-2.5,52.375
1589541563.6979456,-2.45,-3.28,8.97,0.5755555555555556,-0.09222222222222222,-0.6611111111111111,-1.0,-4.125,53.3125
1589541563.7096815,-2.34,-3.09,8.81,0.5755555555555556,-0.09222222222222222,-0.6611111111111111,-1.0,-4.125,53.3125
1589541563.7221427,-2.38,-3.01,9.04,0.5955555555555555,-0.07111111111111111,-0.6755555555555556,-0.875,-3.5,54.0
1589541563.7281249,-2.7,-3.23,8.61,0.5955555555555555,-0.07111111111111111,-0.6755555555555556,1.75,-1.1875,55.0
1589541563.7425425,-2.67,-3.27,8.84,0.5955555555555555,-0.07111111111111111,-0.6755555555555556,-0.9375,-4.25,54.9375
1589541563.7484176,-2.57,-3.15,8.8,0.5955555555555555,-0.07111111111111111,-0.6755555555555556,-0.3125,-3.0625,54.625
1589541563.7601914,-2.77,-3.23,8.89,0.5955555555555555,-0.07111111111111111,-0.6755555555555556,0.5625,-3.125,53.9375
1589541563.7675438,-2.79,-3.23,8.85,0.5933333333333334,-0.10444444444444444,-0.67,0.75,-2.3125,52.9375
1589541563.7786872,-2.66,-3.11,8.9,0.5933333333333334,-0.10444444444444444,-0.67,-0.6875,-3.8125,50.75
1589541563.7892325,-2.47,-2.89,8.76,0.5933333333333334,-0.10444444444444444,-0.67,-0.3125,-4.5625,48.5625
1589541563.7981634,-2.7,-2.85,8.77,0.5933333333333334,-0.10444444444444444,-0.67,0.0,-3.625,47.875
1589541563.8100598,-2.79,-2.96,8.93,0.5933333333333334,-0.10444444444444444,-0.67,-0.6875,-4.0625,48.6875
1589541563.820516,-2.85,-2.94,8.98,0.6044444444444445,-0.10444444444444444,-0.6611111111111111,0.0625,-3.4375,50.3125
1589541563.8289945,-2.75,-2.8,8.89,0.6044444444444445,-0.10444444444444444,-0.6611111111111111,0.25,-3.1875,52.5
1589541563.8400273,-2.89,-2.71,9.04,0.6044444444444445,-0.10444444444444444,-0.6611111111111111,-1.6875,-4.8125,55.0
1589541563.8496428,-3.12,-2.76,8.77,0.6044444444444445,-0.10444444444444444,-0.6611111111111111,1.3125,-2.6875,60.9375
1589541563.860302,-2.68,-2.64,8.85,0.6044444444444445,-0.10444444444444444,-0.6611111111111111,0.875,-4.5625,64.9375
1589541563.8734393,-1.86,-2.34,8.82,0.5633333333333334,-0.11666666666666667,-0.6611111111111111,-1.0625,-4.9375,65.0625
1589541563.8794625,-1.82,-2.23,8.68,0.5633333333333334,-0.11666666666666667,-0.6611111111111111,0.4375,-4.3125,57.8125
1589541563.8938267,-2.29,-2.29,9.13,0.5633333333333334,-0.11666666666666667,-0.6611111111111111,-1.0,-3.625,50.3125
1589541563.8999908,-2.45,-2.27,9.08,0.5633333333333334,-0.11666666666666667,-0.6611111111111111,1.125,-1.25,49.125
1589541563.9148293,-2.89,-2.43,9.1,0.5633333333333334,-0.11666666666666667,-0.6611111111111111,0.0625,-1.6875,52.125
1589541563.9213276,-2.64,-2.28,8.51,0.5755555555555556,-0.1511111111111111,-0.6844444444444444,-0.3125,-1.875,56.125
1589541563.9295914,-2.57,-2.48,9.15,0.5755555555555556,-0.1511111111111111,-0.6844444444444444,-0.3125,-5.4375,56.0
1589541563.9391348,-2.73,-2.5,8.95,0.5755555555555556,-0.1511111111111111,-0.6844444444444444,0.5,-2.3125,51.1875
1589541563.9521801,-2.9,-2.51,8.89,0.5755555555555556,-0.1511111111111111,-0.6844444444444444,-1.125,-3.75,46.8125
1589541563.96055,-2.98,-2.55,9.21,0.5755555555555556,-0.1511111111111111,-0.6844444444444444,0.375,-2.3125,44.125
1589541563.9730225,-2.92,-2.4,8.75,0.5955555555555555,-0.17777777777777778,-0.6888888888888889,1.0,-0.75,41.8125
1589541563.9796627,-2.74,-2.29,9.35,0.5955555555555555,-0.17777777777777778,-0.6888888888888889,-1.1875,-5.375,41.25
1589541563.990053,-3.06,-2.36,9.01,0.5955555555555555,-0.17777777777777778,-0.6888888888888889,0.0625,-1.875,41.625
1589541563.999202,-2.74,-2.17,8.38,0.5955555555555555,-0.17777777777777778,-0.6888888888888889,0.1875,-1.6875,41.4375
1589541564.0106974,-2.92,-2.24,9.21,0.5955555555555555,-0.17777777777777778,-0.6888888888888889,-1.0625,-5.0625,40.375
1589541564.0194194,-3.22,-2.28,8.77,0.56,-0.19666666666666666,-0.6822222222222222,-0.3125,-2.25,42.0625
1589541564.029858,-2.95,-2.19,9.1,0.56,-0.19666666666666666,-0.6822222222222222,-1.4375,-3.875,42.75
1589541564.0443912,-3.03,-2.23,9.02,0.56,-0.19666666666666666,-0.6822222222222222,0.6875,-0.9375,43.625
1589541564.0504172,-2.89,-2.09,9.25,0.56,-0.19666666666666666,-0.6822222222222222,-1.75,-3.4375,42.875
1589541564.0660458,-3.05,-2.18,8.98,0.56,-0.19666666666666666,-0.6822222222222222,-0.5,-2.25,43.875
1589541564.0714247,-2.88,-2.02,8.68,0.6111111111111112,-0.2488888888888889,-0.7055555555555556,2.125,-1.625,44.5
1589541564.0806642,-2.67,-1.98,9.13,0.6111111111111112,-0.2488888888888889,-0.7055555555555556,-2.8125,-5.375,41.75
1589541564.0910752,-2.89,-1.97,8.73,0.6111111111111112,-0.2488888888888889,-0.7055555555555556,-0.9375,-1.4375,40.8125
1589541564.1043036,-3.16,-2.07,9.01,0.6111111111111112,-0.2488888888888889,-0.7055555555555556,1.0,-1.4375,39.9375
1589541564.1123178,-2.83,-1.94,8.81,0.6111111111111112,-0.2488888888888889,-0.7055555555555556,0.0,-2.5625,39.1875
1589541564.1240788,-3.15,-2.03,9.12,0.6177777777777778,-0.3333333333333333,-0.7055555555555556,-1.8125,-3.4375,37.375
1589541564.130229,-2.95,-1.97,8.78,0.6177777777777778,-0.3333333333333333,-0.7055555555555556,0.3125,-1.5,36.5625
1589541564.1420734,-2.59,-1.84,8.9,0.6177777777777778,-0.3333333333333333,-0.7055555555555556,0.5,-1.6875,34.125
1589541564.1507285,-2.61,-1.83,8.88,0.6177777777777778,-0.3333333333333333,-0.7055555555555556,-0.8125,-1.5625,28.8125
1589541564.1626976,-2.92,-1.92,9.22,0.6177777777777778,-0.3333333333333333,-0.7055555555555556,-0.3125,-1.75,24.0
1589541564.16992,-3.0,-1.92,9.24,0.6855555555555556,-0.5422222222222223,-0.6844444444444444,-0.0625,-0.0625,20.25
1589541564.1810243,-2.76,-1.83,8.56,0.6855555555555556,-0.5422222222222223,-0.6844444444444444,0.8125,1.625,16.5625
1589541564.1913993,-2.86,-1.89,8.89,0.6855555555555556,-0.5422222222222223,-0.6844444444444444,-1.3125,-2.75,10.5625
1589541564.2005847,-2.53,-1.75,8.85,0.6855555555555556,-0.5422222222222223,-0.6844444444444444,-0.6875,-1.8125,5.0
1589541564.2157679,-2.59,-1.77,9.1,0.6855555555555556,-0.5422222222222223,-0.6844444444444444,-1.125,-1.625,-1.1875
1589541564.2218602,-2.58,-1.75,9.35,0.8666666666666667,-1.0444444444444445,-0.5633333333333334,-1.3125,0.375,-6.3125
1589541564.2307653,-2.9,-1.92,8.91,0.8666666666666667,-1.0444444444444445,-0.5633333333333334,1.5625,3.5,-11.125
1589541564.2433064,-2.72,-1.86,8.76,0.8666666666666667,-1.0444444444444445,-0.5633333333333334,0.4375,0.625,-18.1875
1589541564.254202,-2.69,-1.89,9.12,0.8666666666666667,-1.0444444444444445,-0.5633333333333334,-1.4375,0.5,-25.875
1589541564.262302,-2.66,-1.84,8.71,0.8666666666666667,-1.0444444444444445,-0.5633333333333334,-0.1875,1.875,-33.0625
1589541564.2745097,-2.6,-1.95,9.43,1.0611111111111111,-0.99,-0.6622222222222223,-0.5,-0.25,-40.5625
1589541564.2812107,-2.69,-1.9,8.74,1.0611111111111111,-0.99,-0.6622222222222223,0.8125,4.5625,-46.125
1589541564.2955015,-2.86,-2.0,8.66,1.0611111111111111,-0.99,-0.6622222222222223,-0.4375,2.6875,-52.4375
1589541564.301888,-2.51,-1.93,8.69,1.0611111111111111,-0.99,-0.6622222222222223,-1.0,2.1875,-58.0625
1589541564.3136704,-2.83,-2.1,9.2,1.0611111111111111,-0.99,-0.6622222222222223,0.25,2.75,-63.25
1589541564.3214614,-2.41,-2.01,8.89,0.7744444444444445,-0.4888888888888889,-0.7422222222222222,1.4375,4.3125,-68.9375
1589541564.3336387,-2.5,-2.05,8.7,0.7744444444444445,-0.4888888888888889,-0.7422222222222222,-0.75,3.625,-75.6875
1589541564.34245,-2.42,-2.25,9.04,0.7744444444444445,-0.4888888888888889,-0.7422222222222222,-2.0625,1.3125,-82.1875
1589541564.353911,-2.79,-2.41,8.9,0.7744444444444445,-0.4888888888888889,-0.7422222222222222,1.875,5.8125,-87.625
1589541564.3666625,-2.33,-2.26,8.64,0.7744444444444445,-0.4888888888888889,-0.7422222222222222,0.25,6.5,-93.5625
1589541564.3726304,-2.4,-2.59,9.47,0.6766666666666666,-0.2766666666666667,-0.7388888888888889,-1.8125,2.875,-100.625
1589541564.3814607,-2.32,-2.61,8.65,0.6766666666666666,-0.2766666666666667,-0.7388888888888889,2.0625,7.125,-106.375
1589541564.394078,-2.11,-2.58,8.63,0.6766666666666666,-0.2766666666666667,-0.7388888888888889,1.25,6.8125,-113.875
1589541564.4066725,-1.96,-2.59,9.23,0.6766666666666666,-0.2766666666666667,-0.7388888888888889,-2.1875,4.1875,-121.8125
1589541564.4132676,-2.34,-2.9,9.12,0.6766666666666666,-0.2766666666666667,-0.7388888888888889,2.5625,7.8125,-127.125
1589541564.4205506,-2.26,-2.94,8.89,0.6555555555555556,-0.15444444444444444,-0.76,1.9375,8.25,-131.25
1589541564.431342,-2.01,-2.82,8.52,0.6555555555555556,-0.15444444444444444,-0.76,-1.4375,6.6875,-135.375
1589541564.4456894,-2.27,-3.14,9.49,0.6555555555555556,-0.15444444444444444,-0.76,0.3125,6.0625,-137.6875
1589541564.4516757,-1.82,-3.03,8.41,0.6555555555555556,-0.15444444444444444,-0.76,3.25,10.0,-139.3125
1589541564.4633415,-2.19,-3.38,9.45,0.6555555555555556,-0.15444444444444444,-0.76,-1.875,4.0,-144.125
1589541564.4707804,-2.05,-3.29,8.81,0.6644444444444444,-0.0811111111111111,-0.7533333333333333,1.625,9.9375,-145.125
1589541564.485284,-1.84,-3.24,9.03,0.6644444444444444,-0.0811111111111111,-0.7533333333333333,1.8125,8.75,-146.625
1589541564.4915721,-1.67,-3.14,8.31,0.6644444444444444,-0.0811111111111111,-0.7533333333333333,0.5625,7.0625,-147.75
1589541564.5020695,-1.8,-3.32,9.07,0.6644444444444444,-0.0811111111111111,-0.7533333333333333,-0.25,4.8125,-148.0625
1589541564.5132904,-1.8,-3.36,9.66,0.6644444444444444,-0.0811111111111111,-0.7533333333333333,-0.1875,8.1875,-146.8125
1589541564.524668,-1.48,-3.22,8.61,0.6733333333333333,-0.006666666666666667,-0.7533333333333333,3.25,11.0,-144.625
1589541564.5324173,-1.78,-3.71,9.71,0.6733333333333333,-0.006666666666666667,-0.7533333333333333,-1.625,1.75,-144.4375
1589541564.5421493,-1.78,-3.5,8.62,0.6733333333333333,-0.006666666666666667,-0.7533333333333333,-0.75,8.5,-141.0
1589541564.5560768,-1.55,-3.61,8.68,0.6733333333333333,-0.006666666666666667,-0.7533333333333333,1.9375,9.375,-136.0625
1589541564.5638158,-1.5,-3.68,9.17,0.6733333333333333,-0.006666666666666667,-0.7533333333333333,0.5625,4.5625,-132.9375
1589541564.570957,-1.43,-3.63,9.01,0.6766666666666666,0.07222222222222223,-0.76,-0.75,5.6875,-129.9375
1589541564.5827873,-1.35,-3.59,8.56,0.6766666666666666,0.07222222222222223,-0.76,0.3125,7.125,-126.6875
1589541564.5980735,-1.58,-4.15,8.96,0.6766666666666666,0.07222222222222223,-0.76,0.9375,3.8125,-124.6875
1589541564.6040688,-1.82,-4.37,9.02,0.6766666666666666,0.07222222222222223,-0.76,1.4375,6.4375,-122.0625
1589541564.6168091,-1.67,-4.07,8.47,0.6766666666666666,0.07222222222222223,-0.76,1.5625,8.3125,-115.5
1589541564.622791,-1.37,-3.78,9.01,0.6533333333333333,0.1288888888888889,-0.7411111111111112,2.9375,6.25,-105.625
1589541564.6365216,-13.39,-29.59,5.96,0.6533333333333333,0.1288888888888889,-0.7411111111111112,4.0625,7.5625,-96.5
1589541564.6426446,-4.85,-5.38,3.68,0.6533333333333333,0.1288888888888889,-0.7411111111111112,-0.625,-9.0,-205.6875
1589541564.6568274,1.38,4.83,-0.73,0.6533333333333333,0.1288888888888889,-0.7411111111111112,-40.0625,63.1875,-242.8125
1589541564.6645901,3.27,-0.82,14.32,0.6533333333333333,0.1288888888888889,-0.7411111111111112,-7.1875,-19.25,-252.875
1589541564.6762125,-0.78,2.5,6.83,0.6488888888888888,0.20444444444444448,-0.7322222222222222,67.4375,4.625,-232.6875
1589541564.6824374,0.29,0.61,6.98,0.6488888888888888,0.20444444444444448,-0.7322222222222222,11.9375,31.25,-206.9375
1589541564.6927495,0.97,-1.31,12.68,0.6488888888888888,0.20444444444444448,-0.7322222222222222,-37.125,-14.375,-176.0625
1589541564.7029321,-0.59,0.09,6.8,0.6488888888888888,0.20444444444444448,-0.7322222222222222,18.4375,28.9375,-156.9375
1589541564.7144642,-0.33,-1.65,10.28,0.6488888888888888,0.20444444444444448,-0.7322222222222222,8.25,1.4375,-127.25
1589541564.722859,-0.58,-2.47,10.1,0.5988888888888889,0.2977777777777777,-0.7111111111111111,-14.9375,-4.125,-87.875
1589541564.7344437,-0.68,-2.83,8.92,0.5988888888888889,0.2977777777777777,-0.7111111111111111,6.125,16.3125,-57.9375
1589541564.7432652,-0.59,-3.32,9.86,0.5988888888888889,0.2977777777777777,-0.7111111111111111,2.9375,-3.6875,-39.6875
1589541564.75478,-0.36,-2.94,8.23,0.5988888888888889,0.2977777777777777,-0.7111111111111111,-3.6875,2.125,-18.25
1589541564.7677555,-0.14,-2.73,8.39,0.5988888888888889,0.2977777777777777,-0.7111111111111111,1.125,4.0,-5.5
1589541564.7731707,-0.49,-3.17,9.01,0.5844444444444444,0.3555555555555556,-0.72,1.3125,-1.75,-1.5
1589541564.787168,-0.3,-2.94,8.63,0.5844444444444444,0.3555555555555556,-0.72,0.0625,0.8125,5.8125
1589541564.793077,-0.33,-3.04,8.79,0.5844444444444444,0.3555555555555556,-0.72,0.8125,-0.25,13.3125
1589541564.8043704,-0.44,-3.02,8.69,0.5844444444444444,0.3555555555555556,-0.72,0.1875,-1.125,18.4375
1589541564.8162804,-0.3,-2.91,8.73,0.5844444444444444,0.3555555555555556,-0.72,-0.75,-0.125,25.375
1589541564.82772,-0.18,-2.89,8.98,0.5777777777777777,0.3533333333333333,-0.7055555555555556,0.0,-1.875,29.75
1589541564.83488,1.14,-26.98,8.15,0.5777777777777777,0.3533333333333333,-0.7055555555555556,-0.375,-3.1875,23.875
1589541564.8441892,-0.09,0.15,10.58,0.5777777777777777,0.3533333333333333,-0.7055555555555556,-11.1875,-4.125,-40.1875
1589541564.8539903,0.11,-2.11,7.26,0.5777777777777777,0.3533333333333333,-0.7055555555555556,12.375,15.875,-37.75
1589541564.8655398,-0.1,-4.38,9.8,0.5777777777777777,0.3533333333333333,-0.7055555555555556,5.75,-1.0625,-17.0
1589541564.872659,-0.76,-3.96,8.76,0.5722222222222222,0.36777777777777776,-0.7055555555555556,-13.8125,-3.1875,-12.0625
1589541564.8878102,-0.44,-4.42,8.74,0.5722222222222222,0.36777777777777776,-0.7055555555555556,2.5625,4.875,-14.9375
1589541564.9009235,-0.38,-3.9,9.0,0.5722222222222222,0.36777777777777776,-0.7055555555555556,8.75,0.5625,-7.125
1589541564.9075859,-0.25,-4.52,8.7,0.5722222222222222,0.36777777777777776,-0.7055555555555556,-4.1875,-1.0625,-1.625
1589541564.920855,-0.31,-4.15,8.82,0.5722222222222222,0.36777777777777776,-0.7055555555555556,-2.125,0.625,-1.125
1589541564.927095,-0.35,-4.18,8.86,0.5777777777777777,0.36,-0.7055555555555556,2.875,0.125,-0.375
1589541564.9384706,-0.3,-4.31,8.73,0.5777777777777777,0.36,-0.7055555555555556,-0.5625,0.0625,-0.0625
1589541564.9455564,-0.25,-4.33,8.77,0.5777777777777777,0.36,-0.7055555555555556,-0.5,-0.3125,-0.125
1589541564.9593554,-0.36,-4.18,8.76,0.5777777777777777,0.36,-0.7055555555555556,1.5,0.5,0.0625
1589541564.9674768,-0.27,-4.39,8.77,0.5777777777777777,0.36,-0.7055555555555556,-0.6875,0.125,-0.0625
1589541564.9780333,-0.26,-4.37,8.77,0.5777777777777777,0.3688888888888889,-0.7111111111111111,-1.0,-0.375,0.0
1589541564.9848096,-0.33,-4.25,8.76,0.5777777777777777,0.3688888888888889,-0.7111111111111111,1.25,0.6875,0.125
1589541564.9946039,-0.24,-4.29,8.73,0.5777777777777777,0.3688888888888889,-0.7111111111111111,0.1875,-0.4375,-0.1875
1589541565.004833,-0.33,-4.27,8.77,0.5777777777777777,0.3688888888888889,-0.7111111111111111,-0.1875,-0.4375,-0.1875
1589541565.0172145,-0.33,-4.24,8.75,0.5777777777777777,0.3688888888888889,-0.7111111111111111,0.0,0.375,0.0625
1589541565.0251405,-0.31,-4.33,8.81,0.5722222222222222,0.3688888888888889,-0.6966666666666667,-0.375,-0.125,0.125
1589541565.0364227,-0.33,-4.24,8.76,0.5722222222222222,0.3688888888888889,-0.6966666666666667,-0.0625,-0.0625,0.0625
1589541565.0455468,-0.32,-4.25,8.75,0.5722222222222222,0.3688888888888889,-0.6966666666666667,0.5,-0.0625,0.0625
1589541565.057851,-0.3,-4.22,8.78,0.5722222222222222,0.3688888888888889,-0.6966666666666667,0.1875,-0.3125,0.0625
1589541565.0727413,-0.32,-4.31,8.76,0.5722222222222222,0.3688888888888889,-0.6966666666666667,-0.1875,0.125,0.125
1589541565.0793257,-0.3,-4.26,8.78,0.5722222222222222,0.3622222222222222,-0.7033333333333334,-0.25,0.0625,0.125
1589541565.0907838,-0.31,-4.3,8.8,0.5722222222222222,0.3622222222222222,-0.7033333333333334,-0.125,0.1875,0.0625
1589541565.096905,-0.3,-4.23,8.74,0.5722222222222222,0.3622222222222222,-0.7033333333333334,0.375,-0.125,0.125
1589541565.1097622,-0.32,-4.26,8.77,0.5722222222222222,0.3622222222222222,-0.7033333333333334,0.5,-0.1875,0.125
1589541565.1175904,-0.3,-4.25,8.78,0.5722222222222222,0.3622222222222222,-0.7033333333333334,-0.0625,-0.125,0.0625
1589541565.1307747,-0.31,-4.3,8.78,0.5911111111111111,0.38222222222222224,-0.7111111111111111,-0.375,-0.0625,-0.125
1589541565.136797,-0.31,-4.27,8.76,0.5911111111111111,0.38222222222222224,-0.7111111111111111,-0.125,0.0,0.125
1589541565.146182,-0.31,-4.28,8.71,0.5911111111111111,0.38222222222222224,-0.7111111111111111,0.375,-0.1875,0.0625
1589541565.1560185,-0.29,-4.23,8.76,0.5911111111111111,0.38222222222222224,-0.7111111111111111,0.3125,0.125,0.0
1589541565.1698337,-0.3,-4.26,8.81,0.5911111111111111,0.38222222222222224,-0.7111111111111111,0.0625,-0.0625,0.0
1589541565.1764295,-0.33,-4.29,8.79,0.5722222222222222,0.3688888888888889,-0.6966666666666667,-0.3125,0.0,0.0625
1589541565.1896448,-0.32,-4.26,8.8,0.5722222222222222,0.3688888888888889,-0.6966666666666667,-0.3125,0.125,0.125
1589541565.1962852,-0.3,-4.27,8.71,0.5722222222222222,0.3688888888888889,-0.6966666666666667,0.125,0.0625,0.0
1589541565.2082224,-0.29,-4.25,8.77,0.5722222222222222,0.3688888888888889,-0.6966666666666667,0.375,0.0625,-0.0625
1589541565.2238019,-0.31,-4.25,8.8,0.5722222222222222,0.3688888888888889,-0.6966666666666667,0.1875,-0.0625,0.0
1589541565.2297661,-0.31,-4.27,8.8,0.5911111111111111,0.38222222222222224,-0.7111111111111111,-0.125,0.125,0.0
1589541565.241588,-0.32,-4.28,8.76,0.5911111111111111,0.38222222222222224,-0.7111111111111111,-0.3125,0.0,-0.125
1589541565.2479155,-0.31,-4.28,8.71,0.5911111111111111,0.38222222222222224,-0.7111111111111111,-0.0625,0.0,-0.125
1589541565.2611015,-0.3,-4.25,8.76,0.5911111111111111,0.38222222222222224,-0.7111111111111111,0.25,0.0,-0.0625
1589541565.269264,-0.3,-4.23,8.83,0.5911111111111111,0.38222222222222224,-0.7111111111111111,0.1875,-0.0625,0.125
1589541565.2814744,-0.29,-4.27,8.81,0.5844444444444444,0.38222222222222224,-0.7055555555555556,-0.1875,-0.0625,-0.0625
1589541565.2876124,-0.31,-4.28,8.78,0.5844444444444444,0.38222222222222224,-0.7055555555555556,-0.3125,0.0,0.0
1589541565.3003736,-0.31,-4.28,8.69,0.5844444444444444,0.38222222222222224,-0.7055555555555556,-0.0625,-0.0625,0.0
1589541565.3066747,-0.32,-4.25,8.79,0.5844444444444444,0.38222222222222224,-0.7055555555555556,0.25,0.0,0.25
1589541565.318989,-0.29,-4.23,8.81,0.5844444444444444,0.38222222222222224,-0.7055555555555556,0.375,0.0625,0.0
1589541565.3264275,-0.3,-4.27,8.8,0.5844444444444444,0.3688888888888889,-0.7033333333333334,-0.1875,0.0,0.0625
1589541565.3405807,-0.32,-4.29,8.79,0.5844444444444444,0.3688888888888889,-0.7033333333333334,-0.1875,0.0,0.0625
1589541565.3462675,-0.3,-4.28,8.69,0.5844444444444444,0.3688888888888889,-0.7033333333333334,0.0625,-0.0625,0.0
1589541565.359581,-0.31,-4.24,8.77,0.5844444444444444,0.3688888888888889,-0.7033333333333334,0.1875,0.0625,0.0625
1589541565.3691351,-0.32,-4.23,8.79,0.5844444444444444,0.3688888888888889,-0.7033333333333334,0.1875,0.0625,-0.0625
1589541565.3803525,-0.31,-4.27,8.81,0.5577777777777778,0.3888888888888889,-0.6888888888888889,-0.0625,0.0625,0.0
1589541565.3875964,-0.3,-4.29,8.76,0.5577777777777778,0.3888888888888889,-0.6888888888888889,-0.125,0.125,0.0625
1589541565.3969095,-0.3,-4.29,8.67,0.5577777777777778,0.3888888888888889,-0.6888888888888889,-0.0625,0.0625,0.0625
1589541565.4066062,-0.32,-4.26,8.71,0.5577777777777778,0.3888888888888889,-0.6888888888888889,0.25,-0.1875,0.0625
1589541565.4194453,-0.32,-4.26,8.81,0.5577777777777778,0.3888888888888889,-0.6888888888888889,0.1875,0.0,0.0
1589541565.4277866,-0.31,-4.27,8.83,0.5722222222222222,0.3688888888888889,-0.7111111111111111,-0.125,-0.125,0.0625
1589541565.4393375,-0.3,-4.27,8.81,0.5722222222222222,0.3688888888888889,-0.7111111111111111,-0.1875,0.125,0.0
1589541565.451705,-0.31,-4.28,8.7,0.5722222222222222,0.3688888888888889,-0.7111111111111111,0.0625,-0.0625,-0.0625
1589541565.4574866,-0.3,-4.25,8.76,0.5722222222222222,0.3688888888888889,-0.7111111111111111,0.1875,-0.125,-0.0625
1589541565.4700365,-0.3,-4.27,8.79,0.5722222222222222,0.3688888888888889,-0.7111111111111111,0.1875,0.0,-0.125
1589541565.4774175,-0.31,-4.24,8.8,0.5777777777777777,0.3888888888888889,-0.7111111111111111,-0.1875,0.125,-0.0625
1589541565.491555,-0.31,-4.27,8.76,0.5777777777777777,0.3888888888888889,-0.7111111111111111,-0.25,0.0625,0.0625
1589541565.4977028,-0.32,-4.28,8.71,0.5777777777777777,0.3888888888888889,-0.7111111111111111,-0.1875,0.0625,0.0
1589541565.5081403,-0.31,-4.27,8.76,0.5777777777777777,0.3888888888888889,-0.7111111111111111,0.25,0.25,0.0
1589541565.5208676,-0.3,-4.24,8.81,0.5777777777777777,0.3888888888888889,-0.7111111111111111,0.25,0.0,0.0625
1589541565.537323,-0.33,-4.28,8.78,0.5722222222222222,0.3622222222222222,-0.7111111111111111,0.0625,0.0,0.0625
1589541565.5505285,-0.31,-4.29,8.7,0.5722222222222222,0.3622222222222222,-0.7111111111111111,0.0625,-0.0625,-0.0625
1589541565.5577645,-0.31,-4.26,8.77,0.5722222222222222,0.3622222222222222,-0.7111111111111111,0.125,0.125,-0.125
1589541565.5703876,-0.29,-4.25,8.81,0.5722222222222222,0.3622222222222222,-0.7111111111111111,0.3125,-0.0625,0.0625
1589541565.5775938,-0.31,-4.24,8.81,0.5911111111111111,0.3622222222222222,-0.7111111111111111,0.0625,-0.0625,-0.1875
1589541565.5894742,-0.3,-4.27,8.81,0.5911111111111111,0.3622222222222222,-0.7111111111111111,-0.3125,0.1875,-0.0625
1589541565.5985165,-0.31,-4.27,8.69,0.5911111111111111,0.3622222222222222,-0.7111111111111111,-0.0625,0.125,0.0
1589541565.6106687,-0.3,-4.28,8.75,0.5911111111111111,0.3622222222222222,-0.7111111111111111,0.125,-0.125,0.0625
1589541565.620553,-0.29,-4.28,8.79,0.5911111111111111,0.3622222222222222,-0.7111111111111111,0.25,0.0,0.0625
1589541565.627981,-0.3,-4.26,8.84,0.5844444444444444,0.3622222222222222,-0.7177777777777777,0.25,-0.0625,0.0625
1589541565.6422017,-0.31,-4.26,8.8,0.5844444444444444,0.3622222222222222,-0.7177777777777777,0.0,0.125,-0.0625
1589541565.6483185,-0.3,-4.28,8.7,0.5844444444444444,0.3622222222222222,-0.7177777777777777,-0.1875,0.0,0.0
1589541565.6589108,-0.3,-4.28,8.7,0.5844444444444444,0.3622222222222222,-0.7177777777777777,0.0,0.0,-0.125
1589541565.6709821,-0.3,-4.27,8.81,0.5844444444444444,0.3622222222222222,-0.7177777777777777,0.375,-0.0625,0.1875
1589541565.6819756,-0.31,-4.23,8.83,0.5777777777777777,0.3688888888888889,-0.6822222222222222,0.25,-0.0625,0.125
1589541565.6882262,-0.32,-4.26,8.85,0.5777777777777777,0.3688888888888889,-0.6822222222222222,-0.125,-0.125,0.125
1589541565.6987646,-0.31,-4.27,8.73,0.5777777777777777,0.3688888888888889,-0.6822222222222222,-0.125,0.0,-0.0625
1589541565.708286,-0.31,-4.29,8.77,0.5777777777777777,0.3688888888888889,-0.6822222222222222,-0.0625,-0.0625,0.0625
1589541565.721411,-0.31,-4.26,8.8,0.5777777777777777,0.3688888888888889,-0.6822222222222222,0.125,0.0,0.0625
1589541565.7284214,-0.29,-4.26,8.82,0.5777777777777777,0.3744444444444445,-0.6966666666666667,0.0625,0.0,0.125
1589541565.7384765,-0.3,-4.26,8.77,0.5777777777777777,0.3744444444444445,-0.6966666666666667,-0.0625,-0.1875,0.0
1589541565.7490857,-0.33,-4.27,8.7,0.5777777777777777,0.3744444444444445,-0.6966666666666667,-0.1875,0.0,0.1875
1589541565.759052,-0.3,-4.28,8.75,0.5777777777777777,0.3744444444444445,-0.6966666666666667,-0.125,-0.0625,0.0625
1589541565.7717793,-0.32,-4.26,8.77,0.5777777777777777,0.3744444444444445,-0.6966666666666667,0.0,0.0,0.0625
1589541565.7789655,-0.31,-4.27,8.82,0.5777777777777777,0.3744444444444445,-0.7111111111111111,0.0625,0.0,0.0625
1589541565.7941995,-0.31,-4.25,8.81,0.5777777777777777,0.3744444444444445,-0.7111111111111111,0.0625,-0.125,0.125
1589541565.800377,-0.32,-4.26,8.71,0.5777777777777777,0.3744444444444445,-0.7111111111111111,-0.1875,-0.0625,0.0
1589541565.8145444,-0.32,-4.27,8.75,0.5777777777777777,0.3744444444444445,-0.7111111111111111,-0.125,0.0625,0.0625
1589541565.8214765,-0.29,-4.26,8.8,0.5777777777777777,0.3744444444444445,-0.7111111111111111,0.125,0.0,0.0
1589541565.8326695,-0.31,-4.26,8.81,0.5844444444444444,0.3888888888888889,-0.7177777777777777,0.0,-0.0625,0.0625
1589541565.839561,-0.31,-4.26,8.81,0.5844444444444444,0.3888888888888889,-0.7177777777777777,0.1875,-0.1875,-0.0625
1589541565.849535,-0.31,-4.27,8.69,0.5844444444444444,0.3888888888888889,-0.7177777777777777,0.0,0.0625,0.0625
1589541565.8600993,-0.32,-4.27,8.75,0.5844444444444444,0.3888888888888889,-0.7177777777777777,-0.25,0.125,0.0
1589541565.8718615,-0.31,-4.26,8.78,0.5844444444444444,0.3888888888888889,-0.7177777777777777,-0.0625,0.0625,0.0625
1589541565.8801234,-0.32,-4.25,8.8,0.5777777777777777,0.3622222222222222,-0.6966666666666667,0.0625,-0.125,0.0
1589541565.890099,-0.3,-4.26,8.78,0.5777777777777777,0.3622222222222222,-0.6966666666666667,0.125,0.0,-0.0625
1589541565.8990922,-0.32,-4.26,8.69,0.5777777777777777,0.3622222222222222,-0.6966666666666667,-0.0625,0.125,0.125
1589541565.9093714,-0.3,-4.27,8.74,0.5777777777777777,0.3622222222222222,-0.6966666666666667,-0.0625,0.0,0.0625
1589541565.9222088,-0.31,-4.27,8.76,0.5777777777777777,0.3622222222222222,-0.6966666666666667,-0.125,0.125,0.0
1589541565.931918,-0.34,-4.26,8.81,0.5777777777777777,0.3622222222222222,-0.6844444444444444,0.125,0.1875,0.125
1589541565.9447641,-0.31,-4.26,8.81,0.5777777777777777,0.3622222222222222,-0.6844444444444444,0.0625,-0.0625,0.125
1589541565.9517546,-0.29,-4.26,8.71,0.5777777777777777,0.3622222222222222,-0.6844444444444444,0.0625,0.0,0.125
1589541565.965922,-0.31,-4.26,8.75,0.5777777777777777,0.3622222222222222,-0.6844444444444444,0.0,0.1875,0.0
1589541565.9726868,-0.3,-4.27,8.77,0.5777777777777777,0.3622222222222222,-0.6844444444444444,0.0625,-0.0625,-0.125
1589541565.9839196,-0.31,-4.26,8.81,0.5777777777777777,0.3744444444444445,-0.7055555555555556,-0.125,0.0,-0.0625
1589541565.9898345,-0.32,-4.25,8.76,0.5777777777777777,0.3744444444444445,-0.7055555555555556,-0.0625,0.0,0.0
