time,acc_x,acc_y,acc_z,mag_x,mag_y,mag_z,gyr_x,gyr_y,gyr_z
1589544020.635772,-0.06,-4.18,8.82,0.5155555555555555,0.3055555555555556,-0.7088888888888889,-0.4375,-0.5625,1.6875
1589544020.6429892,-0.08,-4.18,8.71,0.5155555555555555,0.3055555555555556,-0.7088888888888889,-0.0625,-0.3125,1.375
1589544020.6532452,-0.05,-4.17,8.76,0.5155555555555555,0.3055555555555556,-0.7088888888888889,0.0,-0.0625,1.75
1589544020.6649635,-0.02,-4.18,8.88,0.5155555555555555,0.3055555555555556,-0.7088888888888889,0.0,-0.125,1.6875
1589544020.6729085,-0.01,-4.18,8.9,0.5077777777777778,0.32,-0.68,0.125,0.1875,1.8125
1589544020.6835554,-0.05,-4.16,8.85,0.5077777777777778,0.32,-0.68,0.4375,0.4375,1.6875
1589544020.6992192,-0.02,-4.22,8.81,0.5077777777777778,0.32,-0.68,0.25,0.5625,1.625
1589544020.7051892,-0.07,-4.18,8.8,0.5077777777777778,0.32,-0.68,0.0625,0.6875,1.3125
1589544020.7158315,-0.06,-4.18,8.8,0.5077777777777778,0.32,-0.68,0.1875,0.75,1.1875
1589544020.7230866,-0.06,-4.17,8.83,0.5277777777777778,0.3055555555555556,-0.6877777777777778,0.1875,0.3125,0.875
1589544020.7288876,-0.06,-4.17,8.83,0.5277777777777778,0.3055555555555556,-0.6877777777777778,0.1875,0.3125,0.875
1589544020.738888,-0.08,-4.18,8.73,0.5277777777777778,0.3055555555555556,-0.6877777777777778,0.1875,0.3125,0.875
1589544020.7451,-0.06,-4.17,8.7,0.5277777777777778,0.3055555555555556,-0.6877777777777778,0.125,0.125,0.875
1589544020.7577572,-0.06,-4.19,8.75,0.5277777777777778,0.3055555555555556,-0.6877777777777778,0.125,0.125,0.75
1589544020.7664273,-0.06,-4.19,8.79,0.5277777777777778,0.3055555555555556,-0.6877777777777778,0.0625,0.125,0.6875
1589544020.7777805,-0.06,-4.18,8.88,0.52,0.2977777777777777,-0.6944444444444444,0.1875,0.125,0.8125
1589544020.7839668,-0.05,-4.2,8.85,0.52,0.2977777777777777,-0.6944444444444444,0.1875,0.375,0.6875
1589544020.796009,-0.06,-4.2,8.8,0.52,0.2977777777777777,-0.6944444444444444,0.0625,0.3125,0.4375
1589544020.804256,-0.05,-4.18,8.85,0.52,0.2977777777777777,-0.6944444444444444,-0.0625,0.375,0.375
1589544020.8167605,-0.08,-4.17,8.85,0.52,0.2977777777777777,-0.6944444444444444,-0.0625,0.5,0.3125
1589544020.8244224,-0.08,-4.17,8.82,0.5277777777777778,0.3055555555555556,-0.6733333333333333,0.1875,0.25,0.25
1589544020.8362515,-0.08,-4.18,8.83,0.5277777777777778,0.3055555555555556,-0.6733333333333333,0.25,0.1875,0.5625
1589544020.8453958,-0.06,-4.18,8.7,0.5277777777777778,0.3055555555555556,-0.6733333333333333,0.0,0.375,0.75
1589544020.8574774,-0.07,-4.19,8.76,0.5277777777777778,0.3055555555555556,-0.6733333333333333,0.125,0.5625,0.75
1589544020.8668432,-0.06,-4.2,8.8,0.5277777777777778,0.3055555555555556,-0.6733333333333333,0.25,0.4375,0.875
1589544020.8779113,-0.09,-4.17,8.81,0.5422222222222223,0.3055555555555556,-0.6733333333333333,0.125,0.125,1.1875
1589544020.8857114,-0.08,-4.18,8.84,0.5422222222222223,0.3055555555555556,-0.6733333333333333,0.0625,0.25,1.3125
1589544020.8975437,-0.11,-4.17,8.71,0.5422222222222223,0.3055555555555556,-0.6733333333333333,0.0,-0.0625,1.5625
1589544020.908385,-0.08,-4.21,8.82,0.5422222222222223,0.3055555555555556,-0.6733333333333333,-0.25,-0.4375,1.4375
1589544020.917057,-0.08,-4.18,8.84,0.5422222222222223,0.3055555555555556,-0.6733333333333333,-0.1875,-0.25,1.0625
1589544020.928559,-0.07,-4.2,8.86,0.5344444444444445,0.2977777777777777,-0.6877777777777778,-0.125,-0.1875,1.0
1589544020.9351184,-0.06,-4.21,8.86,0.5344444444444445,0.2977777777777777,-0.6877777777777778,-0.0625,0.125,0.8125
1589544020.9445696,-0.09,-4.16,8.7,0.5344444444444445,0.2977777777777777,-0.6877777777777778,-0.0625,0.0625,0.8125
1589544020.9547238,-0.08,-4.18,8.76,0.5344444444444445,0.2977777777777777,-0.6877777777777778,-0.3125,-0.0625,0.75
1589544020.967882,-0.09,-4.16,8.8,0.5344444444444445,0.2977777777777777,-0.6877777777777778,-0.1875,0.0,0.875
1589544020.9745762,-0.08,-4.15,8.81,0.5422222222222223,0.31222222222222223,-0.6666666666666666,-0.25,-0.0625,0.875
1589544020.9847946,-0.1,-4.17,8.76,0.5422222222222223,0.31222222222222223,-0.6666666666666666,-0.4375,-0.25,1.125
1589544020.9952555,-0.1,-4.19,8.73,0.5422222222222223,0.31222222222222223,-0.6666666666666666,-0.375,-0.3125,1.125
1589544021.004751,-0.08,-4.2,8.81,0.5422222222222223,0.31222222222222223,-0.6666666666666666,-0.3125,-0.25,0.9375
1589544021.022857,-0.09,-4.17,8.81,0.5422222222222223,0.31222222222222223,-0.6666666666666666,-0.375,-0.25,0.8125
1589544021.0288613,-0.09,-4.18,8.87,0.5466666666666666,0.2977777777777777,-0.6733333333333333,-0.25,-0.5625,0.5625
1589544021.0359929,-0.09,-4.18,8.79,0.5466666666666666,0.2977777777777777,-0.6733333333333333,-0.3125,-0.5,0.375
1589544021.0485954,-0.08,-4.18,8.74,0.5466666666666666,0.2977777777777777,-0.6733333333333333,-0.4375,-0.6875,0.375
1589544021.060784,-0.09,-4.18,8.77,0.5466666666666666,0.2977777777777777,-0.6733333333333333,-0.625,-0.625,0.3125
1589544021.067915,-0.07,-4.12,8.83,0.5466666666666666,0.2977777777777777,-0.6733333333333333,-0.8125,-0.625,0.3125
1589544021.08025,-0.06,-4.11,8.86,0.5344444444444445,0.3055555555555556,-0.6588888888888889,-0.6875,-0.5,0.5625
1589544021.0861585,-0.06,-4.08,8.9,0.5344444444444445,0.3055555555555556,-0.6588888888888889,-0.625,-0.1875,0.75
1589544021.1008894,-0.03,-4.01,8.75,0.5344444444444445,0.3055555555555556,-0.6588888888888889,-0.4375,-0.0625,1.1875
1589544021.1067955,-0.01,-3.97,8.76,0.5344444444444445,0.3055555555555556,-0.6588888888888889,-0.3125,0.1875,1.625
1589544021.1191206,0.0,-3.97,8.84,0.5344444444444445,0.3055555555555556,-0.6588888888888889,-0.4375,-0.1875,2.1875
1589544021.125931,-0.01,-3.96,8.88,0.5544444444444444,0.2977777777777777,-0.68,-0.4375,0.0625,3.375
1589544021.1392305,0.02,-3.88,8.8,0.5544444444444444,0.2977777777777777,-0.68,-0.5,-0.1875,4.625
1589544021.1468244,-0.04,-3.86,8.72,0.5544444444444444,0.2977777777777777,-0.68,-0.6875,-0.4375,5.5625
1589544021.1567345,-0.15,-3.84,8.73,0.5544444444444444,0.2977777777777777,-0.68,-1.0625,-1.0,6.75
1589544021.1674314,-0.88,-3.01,8.61,0.5544444444444444,0.2977777777777777,-0.68,-1.5625,-1.875,7.9375
1589544021.180104,-0.3,-2.8,9.3,0.5344444444444445,0.3055555555555556,-0.6733333333333333,-2.8125,-3.75,11.5625
1589544021.1867702,-0.15,-2.87,9.03,0.5344444444444445,0.3055555555555556,-0.6733333333333333,-0.1875,-0.8125,18.375
1589544021.1963372,-0.22,-2.93,8.55,0.5344444444444445,0.3055555555555556,-0.6733333333333333,1.0625,0.0625,24.8125
1589544021.2092865,-0.16,-3.02,8.94,0.5344444444444445,0.3055555555555556,-0.6733333333333333,-0.375,-2.0625,30.25
1589544021.2173994,-0.15,-2.91,8.87,0.5344444444444445,0.3055555555555556,-0.6733333333333333,0.125,-1.5625,34.8125
1589544021.231507,-0.18,-3.02,8.85,0.5422222222222223,0.2788888888888889,-0.68,0.6875,-1.4375,39.1875
1589544021.237495,-0.25,-3.14,8.97,0.5422222222222223,0.2788888888888889,-0.68,-0.1875,-2.1875,43.0625
1589544021.2519011,-0.21,-3.15,8.78,0.5422222222222223,0.2788888888888889,-0.68,0.25,-2.125,46.875
1589544021.2585182,-0.2,-3.18,8.85,0.5422222222222223,0.2788888888888889,-0.68,0.1875,-2.625,49.875
1589544021.2689624,-0.21,-3.14,8.91,0.5422222222222223,0.2788888888888889,-0.68,0.3125,-2.3125,52.0
1589544021.276558,-0.27,-3.32,8.87,0.5422222222222223,0.27111111111111114,-0.6533333333333333,0.125,-2.375,53.9375
1589544021.290443,-0.31,-3.36,8.9,0.5422222222222223,0.27111111111111114,-0.6533333333333333,-0.0625,-2.875,55.5625
1589544021.2969673,-0.31,-3.33,8.73,0.5422222222222223,0.27111111111111114,-0.6533333333333333,0.25,-2.625,57.5
1589544021.3082714,-0.32,-3.25,8.77,0.5422222222222223,0.27111111111111114,-0.6533333333333333,0.1875,-3.125,59.0625
1589544021.3189654,-0.36,-3.34,8.89,0.5422222222222223,0.27111111111111114,-0.6533333333333333,0.25,-2.9375,60.625
1589544021.3264036,-0.34,-3.3,8.82,0.5422222222222223,0.27111111111111114,-0.6733333333333333,0.3125,-2.8125,62.375
1589544021.336912,-0.39,-3.39,8.96,0.5422222222222223,0.27111111111111114,-0.6733333333333333,0.3125,-3.5,63.3125
1589544021.3492956,-0.39,-3.41,8.76,0.5422222222222223,0.27111111111111114,-0.6733333333333333,0.4375,-2.9375,63.625
1589544021.3577425,-0.43,-3.41,8.87,0.5422222222222223,0.27111111111111114,-0.6733333333333333,0.0625,-3.125,63.125
1589544021.3702257,-0.42,-3.41,8.87,0.5422222222222223,0.27111111111111114,-0.6733333333333333,0.125,-3.0625,62.4375
1589544021.3764956,-0.46,-3.44,8.87,0.56,0.24,-0.68,0.25,-2.8125,61.4375
1589544021.386732,-0.54,-3.48,8.85,0.56,0.24,-0.68,0.3125,-2.875,60.3125
1589544021.3982768,-0.56,-3.46,8.75,0.56,0.24,-0.68,0.375,-2.6875,58.875
1589544021.4099202,-0.53,-3.38,8.8,0.56,0.24,-0.68,0.4375,-2.25,57.25
1589544021.4201062,-0.56,-3.4,8.84,0.56,0.24,-0.68,0.6875,-1.875,55.375
1589544021.4279735,-0.54,-3.35,8.91,0.56,0.22,-0.7022222222222222,0.6875,-1.9375,53.5
1589544021.4420028,-0.65,-3.41,8.86,0.56,0.22,-0.7022222222222222,0.25,-2.375,50.4375
1589544021.447903,-0.67,-3.35,8.77,0.56,0.22,-0.7022222222222222,0.125,-2.25,47.875
1589544021.462022,-0.66,-3.39,8.9,0.56,0.22,-0.7022222222222222,0.0625,-2.5625,45.8125
1589544021.4698422,-0.72,-3.34,8.87,0.56,0.22,-0.7022222222222222,0.3125,-1.875,43.4375
1589544021.4780526,-0.67,-3.28,8.9,0.5866666666666667,0.19333333333333333,-0.7088888888888889,0.4375,-1.625,40.875
1589544021.4879644,-0.74,-3.36,8.86,0.5866666666666667,0.19333333333333333,-0.7088888888888889,0.1875,-2.0625,38.4375
1589544021.4977882,-0.8,-3.35,8.79,0.5866666666666667,0.19333333333333333,-0.7088888888888889,0.25,-1.75,36.5625
1589544021.508039,-0.86,-3.39,8.88,0.5866666666666667,0.19333333333333333,-0.7088888888888889,0.1875,-1.375,35.0625
1589544021.5211313,-0.74,-3.2,8.78,0.5866666666666667,0.19333333333333333,-0.7088888888888889,0.625,-1.0625,33.8125
1589544021.5272994,-0.75,-3.2,9.01,0.5866666666666667,0.1811111111111111,-0.7088888888888889,0.125,-1.875,31.9375
1589544021.5375276,-0.8,-3.23,8.88,0.5866666666666667,0.1811111111111111,-0.7088888888888889,-0.0625,-1.5625,30.1875
1589544021.548657,-0.8,-3.17,8.8,0.5866666666666667,0.1811111111111111,-0.7088888888888889,0.25,-1.375,28.5
1589544021.560536,-0.79,-3.2,8.89,0.5866666666666667,0.1811111111111111,-0.7088888888888889,0.3125,-1.3125,26.9375
1589544021.5704381,-0.83,-3.33,8.87,0.5866666666666667,0.1811111111111111,-0.7088888888888889,0.25,-1.0,25.25
1589544021.5801141,-0.88,-3.31,8.96,0.5611111111111111,0.18666666666666668,-0.7155555555555555,-0.0625,-1.1875,23.25
1589544021.5924904,-0.97,-3.28,8.88,0.5611111111111111,0.18666666666666668,-0.7155555555555555,0.375,-0.8125,21.875
1589544021.5984066,-0.96,-3.34,8.82,0.5611111111111111,0.18666666666666668,-0.7155555555555555,0.0,-1.3125,21.375
1589544021.61387,-1.02,-3.39,8.91,0.5611111111111111,0.18666666666666668,-0.7155555555555555,-0.1875,-1.625,21.0
1589544021.620202,-1.12,-3.46,8.84,0.5611111111111111,0.18666666666666668,-0.7155555555555555,0.1875,-1.0,20.6875
1589544021.6325142,-1.18,-3.43,8.9,0.5911111111111111,0.15444444444444444,-0.7377777777777778,0.0625,-1.0,21.1875
1589544021.6391096,-1.13,-3.34,8.84,0.5911111111111111,0.15444444444444444,-0.7377777777777778,0.375,-0.9375,22.375
1589544021.6495395,-1.12,-3.37,9.02,0.5911111111111111,0.15444444444444444,-0.7377777777777778,0.3125,-0.875,23.25
1589544021.6586738,-1.08,-3.29,8.56,0.5911111111111111,0.15444444444444444,-0.7377777777777778,1.1875,0.5,24.5625
1589544021.673024,-1.13,-3.44,9.05,0.5911111111111111,0.15444444444444444,-0.7377777777777778,0.3125,-0.75,24.75
1589544021.6787362,-1.01,-3.18,8.57,0.6055555555555555,0.14666666666666667,-0.7588888888888888,1.25,0.8125,24.9375
1589544021.6910276,-1.04,-3.31,8.95,0.6055555555555555,0.14666666666666667,-0.7588888888888888,0.6875,-0.4375,23.9375
1589544021.698841,-1.04,-3.3,8.88,0.6055555555555555,0.14666666666666667,-0.7588888888888888,-0.1875,-1.375,22.375
1589544021.7089179,-0.92,-3.09,8.7,0.6055555555555555,0.14666666666666667,-0.7588888888888888,-0.125,-1.125,21.0
1589544021.725782,-1.06,-3.2,8.98,0.6055555555555555,0.14666666666666667,-0.7588888888888888,-0.625,-2.4375,19.0
1589544021.731873,-1.11,-3.28,9.06,0.5988888888888889,0.15444444444444444,-0.7511111111111111,-1.0625,-2.8125,17.375
1589544021.7422292,-1.13,-3.24,8.89,0.5988888888888889,0.15444444444444444,-0.7511111111111111,-0.3125,-0.9375,16.75
1589544021.7515273,-1.23,-3.36,8.85,0.5988888888888889,0.15444444444444444,-0.7511111111111111,-0.0625,-1.125,16.25
1589544021.7642055,-1.16,-3.26,8.89,0.5988888888888889,0.15444444444444444,-0.7511111111111111,-0.3125,-1.6875,16.625
1589544021.7714634,-1.26,-3.33,8.94,0.5988888888888889,0.15444444444444444,-0.7511111111111111,-0.125,-1.0,16.625
1589544021.7844849,-1.3,-3.4,8.99,0.5911111111111111,0.14666666666666667,-0.78,0.3125,-0.4375,17.3125
1589544021.7917464,-1.29,-3.36,8.89,0.5911111111111111,0.14666666666666667,-0.78,0.5625,0.125,18.1875
1589544021.8034036,-1.27,-3.46,8.79,0.5911111111111111,0.14666666666666667,-0.78,0.75,0.5,19.125
1589544021.8094795,-1.17,-3.25,8.7,0.5911111111111111,0.14666666666666667,-0.78,0.125,-0.125,18.9375
1589544021.8238087,-1.2,-3.26,8.95,0.5911111111111111,0.14666666666666667,-0.78,-0.375,-1.375,18.0
1589544021.830077,-1.19,-3.16,8.85,0.5844444444444444,0.16111111111111112,-0.7922222222222223,-0.75,-1.4375,17.375
1589544021.839656,-1.19,-3.17,9.04,0.5844444444444444,0.16111111111111112,-0.7922222222222223,-0.625,-1.625,16.875
1589544021.8501275,-1.3,-3.28,8.74,0.5844444444444444,0.16111111111111112,-0.7922222222222223,-0.25,-0.8125,16.875
1589544021.8593645,-1.34,-3.27,8.95,0.5844444444444444,0.16111111111111112,-0.7922222222222223,-0.6875,-1.5,16.8125
1589544021.8705044,-1.41,-3.36,8.96,0.5844444444444444,0.16111111111111112,-0.7922222222222223,-0.625,-1.4375,17.375
1589544021.8787427,-1.59,-3.58,8.91,0.5822222222222222,0.11888888888888888,-0.8211111111111111,-0.125,-0.375,18.9375
1589544021.888732,-1.46,-3.37,8.87,0.5822222222222222,0.11888888888888888,-0.8211111111111111,-0.1875,-0.3125,20.4375
1589544021.9002762,-1.52,-3.45,8.87,0.5822222222222222,0.11888888888888888,-0.8211111111111111,-0.1875,-0.5,21.8125
1589544021.9102144,-1.51,-3.44,8.77,0.5822222222222222,0.11888888888888888,-0.8211111111111111,-0.125,-0.375,22.875
1589544021.9221005,-1.49,-3.36,8.89,0.5822222222222222,0.11888888888888888,-0.8211111111111111,-0.25,-0.3125,23.9375
1589544021.9298267,-1.51,-3.41,8.91,0.5822222222222222,0.08,-0.8266666666666667,-0.6875,-1.0,24.75
1589544021.942317,-1.59,-3.4,8.85,0.5822222222222222,0.08,-0.8266666666666667,-0.6875,-1.0625,25.8125
1589544021.951403,-1.6,-3.44,8.91,0.5822222222222222,0.08,-0.8266666666666667,-0.5,-1.5,27.125
1589544021.9607494,-1.66,-3.47,8.81,0.5822222222222222,0.08,-0.8266666666666667,-0.4375,-0.5,29.1875
1589544021.9726913,-1.62,-3.4,8.9,0.5822222222222222,0.08,-0.8266666666666667,-0.25,-0.6875,31.625
1589544021.9793825,-1.64,-3.44,8.98,0.5722222222222222,0.04777777777777778,-0.8211111111111111,-0.625,-1.0,33.75
1589544021.9940398,-1.57,-3.33,8.92,0.5722222222222222,0.04777777777777778,-0.8211111111111111,-0.4375,-0.9375,35.1875
1589544022.000426,-1.61,-3.34,8.82,0.5722222222222222,0.04777777777777778,-0.8211111111111111,-0.5,-0.8125,36.6875
1589544022.010319,-1.7,-3.33,8.87,0.5722222222222222,0.04777777777777778,-0.8211111111111111,-0.75,-1.125,38.0
1589544022.0223494,-1.72,-3.39,8.94,0.5722222222222222,0.04777777777777778,-0.8211111111111111,-1.0625,-1.0,40.0625
1589544022.0334725,-1.79,-3.37,8.9,0.5911111111111111,0.008888888888888889,-0.8133333333333334,-0.8125,-0.8125,42.5
1589544022.0413535,-1.85,-3.39,8.92,0.5911111111111111,0.008888888888888889,-0.8133333333333334,-1.1875,-1.3125,44.4375
1589544022.0503318,-1.86,-3.41,8.79,0.5911111111111111,0.008888888888888889,-0.8133333333333334,-1.0625,-1.375,47.1875
1589544022.06064,-1.92,-3.41,8.81,0.5911111111111111,0.008888888888888889,-0.8133333333333334,-0.6875,-1.125,50.375
1589544022.0729413,-1.78,-3.23,8.92,0.5911111111111111,0.008888888888888889,-0.8133333333333334,-0.8125,-1.6875,52.8125
1589544022.0804925,-1.84,-3.27,9.09,0.5988888888888889,-0.017777777777777778,-0.8211111111111111,-0.8125,-2.3125,55.0625
1589544022.0906816,-1.8,-3.24,8.78,0.5988888888888889,-0.017777777777777778,-0.8211111111111111,-0.5625,-1.3125,57.0625
1589544022.1034575,-2.03,-3.31,9.08,0.5988888888888889,-0.017777777777777778,-0.8211111111111111,-0.3125,-1.5,58.625
1589544022.110935,-2.01,-3.26,8.87,0.5988888888888889,-0.017777777777777778,-0.8211111111111111,-0.875,-3.125,60.8125
1589544022.122851,-1.98,-3.21,8.77,0.5988888888888889,-0.017777777777777778,-0.8211111111111111,-0.3125,-1.6875,63.625
1589544022.1302595,-1.85,-3.05,8.89,0.5466666666666666,-0.09555555555555556,-0.8,-0.3125,-2.1875,65.625
1589544022.1446724,-1.95,-3.05,8.76,0.5466666666666666,-0.09555555555555556,-0.8,-0.5,-3.125,67.75
1589544022.1509395,-2.14,-3.19,9.03,0.5466666666666666,-0.09555555555555556,-0.8,-0.375,-3.1875,69.875
1589544022.163288,-2.18,-3.15,8.92,0.5466666666666666,-0.09555555555555556,-0.8,-0.375,-3.6875,72.5625
1589544022.1738062,-2.16,-3.11,8.82,0.5466666666666666,-0.09555555555555556,-0.8,0.4375,-2.0,76.0
1589544022.1842315,-2.01,-2.94,9.02,0.5366666666666666,-0.13666666666666666,-0.75,0.3125,-2.6875,79.4375
1589544022.1907964,-2.04,-2.93,9.0,0.5366666666666666,-0.13666666666666666,-0.75,-0.3125,-4.5625,81.1875
1589544022.2024858,-2.05,-2.87,8.81,0.5366666666666666,-0.13666666666666666,-0.75,-0.5,-4.25,82.8125
1589544022.2112768,-2.23,-2.94,8.93,0.5366666666666666,-0.13666666666666666,-0.75,-0.125,-4.375,84.625
1589544022.2234652,-2.38,-3.01,9.06,0.5366666666666666,-0.13666666666666666,-0.75,-0.125,-4.9375,86.5625
1589544022.230802,-2.3,-2.92,8.91,0.5166666666666667,-0.1288888888888889,-0.7144444444444444,-0.0625,-4.375,89.0625
1589544022.2426527,-2.39,-2.93,8.93,0.5166666666666667,-0.1288888888888889,-0.7144444444444444,0.625,-3.625,92.75
1589544022.2506895,-2.19,-2.71,8.89,0.5166666666666667,-0.1288888888888889,-0.7144444444444444,0.0,-4.3125,95.8125
1589544022.2613134,-2.4,-2.81,8.96,0.5166666666666667,-0.1288888888888889,-0.7144444444444444,0.25,-4.8125,98.875
1589544022.277899,-2.36,-2.68,8.7,0.5166666666666667,-0.1288888888888889,-0.7144444444444444,0.4375,-4.25,101.0625
1589544022.2841682,-2.03,-2.48,9.03,0.5244444444444445,-0.14333333333333334,-0.7066666666666667,0.0625,-5.875,103.4375
1589544022.2914903,-2.12,-2.5,8.91,0.5244444444444445,-0.14333333333333334,-0.7066666666666667,0.5625,-5.625,104.3125
1589544022.3047464,-2.23,-2.54,8.94,0.5244444444444445,-0.14333333333333334,-0.7066666666666667,0.75,-4.5,103.8125
1589544022.3143106,-2.27,-2.48,8.84,0.5244444444444445,-0.14333333333333334,-0.7066666666666667,0.8125,-4.1875,102.875
1589544022.324492,-2.17,-2.29,8.89,0.5244444444444445,-0.14333333333333334,-0.7066666666666667,0.9375,-3.6875,101.1875
1589544022.3358786,-2.32,-2.35,9.15,0.5311111111111111,-0.16333333333333333,-0.7066666666666667,0.375,-5.0,98.8125
1589544022.3418245,-2.43,-2.33,9.15,0.5311111111111111,-0.16333333333333333,-0.7066666666666667,0.1875,-5.375,95.6875
1589544022.3561747,-2.41,-2.2,8.47,0.5311111111111111,-0.16333333333333333,-0.7066666666666667,1.25,-2.875,93.8125
1589544022.3622167,-2.3,-2.05,9.1,0.5311111111111111,-0.16333333333333333,-0.7066666666666667,-0.125,-5.9375,91.0625
1589544022.372948,-2.04,-1.93,9.14,0.5311111111111111,-0.16333333333333333,-0.7066666666666667,-0.9375,-6.5625,89.25
1589544022.380914,-2.29,-1.96,8.97,0.49,-0.19666666666666666,-0.6855555555555556,0.8125,-4.4375,88.25
1589544022.3911474,-2.6,-2.07,9.03,0.49,-0.19666666666666666,-0.6855555555555556,1.6875,-3.25,87.0625
1589544022.4020257,-2.46,-1.92,8.7,0.49,-0.19666666666666666,-0.6855555555555556,0.875,-3.375,86.8125
1589544022.4124687,-2.18,-1.83,8.9,0.49,-0.19666666666666666,-0.6855555555555556,0.9375,-4.375,86.375
1589544022.4268699,-2.27,-1.85,9.11,0.49,-0.19666666666666666,-0.6855555555555556,0.3125,-5.125,84.625
1589544022.4329698,-2.78,-1.92,9.15,0.51,-0.19,-0.7,0.9375,-4.1875,82.9375
1589544022.441526,-2.74,-1.94,9.4,0.51,-0.19,-0.7,0.875,-4.25,82.875
1589544022.4534273,-2.27,-1.55,8.04,0.51,-0.19,-0.7,1.3125,-2.1875,82.8125
1589544022.4623704,-2.64,-1.73,9.52,0.51,-0.19,-0.7,1.3125,-3.9375,80.8125
1589544022.4746346,-3.0,-1.77,9.32,0.51,-0.19,-0.7,-1.375,-8.25,77.5625
1589544022.48606,-2.97,-2.1,8.92,0.4866666666666667,-0.21666666666666667,-0.7144444444444444,3.1875,0.0625,77.6875
1589544022.492136,-1.95,-1.28,7.92,0.4866666666666667,-0.21666666666666667,-0.7144444444444444,3.1875,0.0625,77.6875
1589544022.5060744,-1.94,-1.69,10.08,0.4866666666666667,-0.21666666666666667,-0.7144444444444444,-1.1875,-7.125,73.75
1589544022.5119536,-2.97,-1.23,8.24,0.4866666666666667,-0.21666666666666667,-0.7144444444444444,4.0625,2.375,42.5
1589544022.5255346,-2.99,-1.4,8.98,0.4866666666666667,-0.21666666666666667,-0.7144444444444444,-0.75,-3.375,41.3125
1589544022.5310204,-2.32,-1.1,9.01,0.4844444444444445,-0.25555555555555554,-0.7144444444444444,-0.875,-3.375,39.5
1589544022.542655,-2.32,-1.1,9.01,0.4844444444444445,-0.25555555555555554,-0.7144444444444444,-0.875,-3.375,39.5
1589544022.5525622,-2.45,-1.21,9.1,0.4844444444444445,-0.25555555555555554,-0.7144444444444444,-0.125,-1.375,22.625
1589544022.5619082,-2.48,-1.23,8.87,0.4844444444444445,-0.25555555555555554,-0.7144444444444444,-0.125,-0.125,15.9375
1589544022.5689175,-2.48,-1.23,8.87,0.4844444444444445,-0.25555555555555554,-0.7144444444444444,-0.125,-0.125,15.9375
1589544022.5807867,-2.49,-1.22,8.81,0.4844444444444445,-0.25555555555555554,-0.7144444444444444,0.5625,0.125,11.875
1589544022.5870178,-2.83,-1.32,9.24,0.4566666666666666,-0.2611111111111111,-0.7066666666666667,-0.875,-1.5,6.3125
1589544022.5929928,-2.86,-1.35,9.14,0.4566666666666666,-0.2611111111111111,-0.7066666666666667,0.0,0.3125,3.5625
1589544022.6047301,-3.21,-1.39,8.87,0.4566666666666666,-0.2611111111111111,-0.7066666666666667,0.3125,0.125,3.1875
1589544022.6128905,-3.24,-1.42,9.14,0.4566666666666666,-0.2611111111111111,-0.7066666666666667,-0.9375,-1.75,3.625
1589544022.6245394,-3.17,-1.41,9.09,0.4566666666666666,-0.2611111111111111,-0.7066666666666667,-0.875,-0.9375,4.8125
1589544022.6345475,-3.15,-1.4,9.04,0.4488888888888889,-0.30666666666666664,-0.7066666666666667,-0.0625,-0.75,6.625
1589544022.6423357,-3.42,-1.45,8.85,0.4488888888888889,-0.30666666666666664,-0.7066666666666667,0.125,0.0,9.0625
1589544022.647785,-3.42,-1.45,8.85,0.4488888888888889,-0.30666666666666664,-0.7066666666666667,0.125,0.0,9.0625
1589544022.658453,-2.91,-1.35,8.9,0.4488888888888889,-0.30666666666666664,-0.7066666666666667,-0.9375,-1.625,10.25
1589544022.6643813,-3.34,-1.45,9.15,0.4488888888888889,-0.30666666666666664,-0.7066666666666667,-0.6875,-1.5,10.875
1589544022.6758006,-3.12,-1.37,8.93,0.4488888888888889,-0.30666666666666664,-0.7066666666666667,-0.4375,-1.0,12.125
1589544022.6829236,-2.78,-1.32,9.2,0.42777777777777776,-0.37333333333333335,-0.7066666666666667,-0.6875,-1.5625,12.125
1589544022.6959481,-2.5,-1.32,9.28,0.42777777777777776,-0.37333333333333335,-0.7066666666666667,0.125,-0.25,11.125
1589544022.7027779,-3.2,-1.37,8.69,0.42777777777777776,-0.37333333333333335,-0.7066666666666667,0.75,1.9375,8.75
1589544022.7137694,-3.33,-1.46,9.08,0.42777777777777776,-0.37333333333333335,-0.7066666666666667,-1.1875,-1.6875,9.75
1589544022.7256856,-2.57,-1.28,9.04,0.42777777777777776,-0.37333333333333335,-0.7066666666666667,-1.25,-2.0625,11.8125
1589544022.7338195,-2.98,-1.41,9.24,0.3377777777777778,-0.5644444444444444,-0.6355555555555555,0.0625,-0.6875,11.1875
1589544022.7430134,-2.75,-1.34,9.02,0.3377777777777778,-0.5644444444444444,-0.6355555555555555,0.3125,0.875,10.1875
1589544022.7530706,-2.39,-1.3,9.17,0.3377777777777778,-0.5644444444444444,-0.6355555555555555,-1.125,-1.0625,2.875
1589544022.7634661,-2.61,-1.36,9.05,0.3377777777777778,-0.5644444444444444,-0.6355555555555555,-0.5625,0.3125,-4.5625
1589544022.7753825,-2.61,-1.35,8.86,0.3377777777777778,-0.5644444444444444,-0.6355555555555555,-0.5,-0.1875,-10.6875
1589544022.7859244,-1.01,-1.19,9.52,0.2288888888888889,-1.096666666666667,0.017777777777777778,-4.125,-3.3125,-21.8125
1589544022.7946804,-1.57,-1.2,8.9,0.2288888888888889,-1.096666666666667,0.017777777777777778,0.9375,3.5,-35.125
1589544022.8091636,-1.98,-1.37,8.95,0.2288888888888889,-1.096666666666667,0.017777777777777778,2.3125,4.6875,-46.4375
1589544022.8158224,-2.48,-1.55,9.18,0.2288888888888889,-1.096666666666667,0.017777777777777778,-0.375,4.1875,-55.375
1589544022.8300252,-1.64,-1.26,7.42,0.2288888888888889,-1.096666666666667,0.017777777777777778,1.8125,8.25,-65.375
1589544022.8370194,-1.81,-1.58,9.16,1.1244444444444444,-0.6933333333333334,-0.49,-2.625,-1.3125,-80.5
1589544022.8482075,-2.54,-1.94,10.29,1.1244444444444444,-0.6933333333333334,-0.49,-3.0625,0.375,-91.6875
1589544022.8542767,-2.5,-1.8,8.49,1.1244444444444444,-0.6933333333333334,-0.49,1.75,8.4375,-97.4375
1589544022.8643088,-2.57,-1.93,8.62,1.1244444444444444,-0.6933333333333334,-0.49,0.5625,6.3125,-106.1875
1589544022.8754802,-2.25,-2.09,9.36,1.1244444444444444,-0.6933333333333334,-0.49,-1.75,2.75,-116.75
1589544022.8870964,-2.35,-2.14,9.52,0.6944444444444444,-0.3622222222222222,-0.7211111111111111,0.0625,7.875,-127.8125
1589544022.8933566,-1.62,-2.2,9.0,0.6944444444444444,-0.3622222222222222,-0.7211111111111111,-0.5,6.875,-142.5
1589544022.9081495,-2.25,-2.59,9.67,0.6944444444444444,-0.3622222222222222,-0.7211111111111111,-1.8125,4.9375,-159.9375
1589544022.9146967,-2.01,-2.6,8.94,0.6944444444444444,-0.3622222222222222,-0.7211111111111111,1.75,13.1875,-170.1875
1589544022.925806,-1.75,-2.37,7.3,0.6944444444444444,-0.3622222222222222,-0.7211111111111111,-0.5625,9.0625,-183.0
1589544022.9345362,-2.2,-3.08,10.5,0.6144444444444445,-0.2255555555555556,-0.7566666666666667,-6.1875,-0.5625,-195.0625
1589544022.9443705,-2.33,-3.03,8.24,0.6144444444444445,-0.2255555555555556,-0.7566666666666667,0.1875,12.3125,-197.4375
1589544022.9570286,-2.48,-3.28,8.45,0.6144444444444445,-0.2255555555555556,-0.7566666666666667,-0.8125,9.25,-200.0625
1589544022.9641838,-2.28,-3.39,8.37,0.6144444444444445,-0.2255555555555556,-0.7566666666666667,-2.0,7.9375,-199.625
1589544022.980861,-2.15,-3.41,8.92,0.6144444444444445,-0.2255555555555556,-0.7566666666666667,-2.375,7.8125,-199.0
1589544022.986988,-1.59,-3.11,9.51,0.6166666666666667,-0.10777777777777778,-0.7711111111111111,-1.3125,6.6875,-198.875
1589544022.9992044,-1.77,-3.19,8.83,0.6166666666666667,-0.10777777777777778,-0.7711111111111111,0.9375,10.875,-196.625
1589544023.0054905,-1.98,-3.4,8.98,0.6166666666666667,-0.10777777777777778,-0.7711111111111111,-1.5625,9.1875,-194.8125
1589544023.0184968,-2.02,-3.5,8.94,0.6166666666666667,-0.10777777777777778,-0.7711111111111111,-1.5625,8.5625,-191.125
1589544023.026301,-2.18,-3.56,8.67,0.6166666666666667,-0.10777777777777778,-0.7711111111111111,-0.1875,8.5,-185.8125
1589544023.0381641,-2.44,-3.69,8.98,0.6133333333333333,-0.013333333333333334,-0.7855555555555556,-2.25,6.0625,-180.875
1589544023.0447574,-2.18,-3.72,8.84,0.6133333333333333,-0.013333333333333334,-0.7855555555555556,-1.5625,7.1875,-173.1875
1589544023.0542743,-2.18,-3.88,8.88,0.6133333333333333,-0.013333333333333334,-0.7855555555555556,0.0,7.625,-164.625
1589544023.0653913,-1.85,-3.7,8.7,0.6133333333333333,-0.013333333333333334,-0.7855555555555556,-0.4375,6.8125,-156.3125
1589544023.0766828,-1.93,-3.85,9.11,0.6133333333333333,-0.013333333333333334,-0.7855555555555556,-1.5,5.1875,-148.5
1589544023.084174,-1.89,-3.94,8.89,0.6288888888888889,0.06,-0.7711111111111111,-0.5625,5.6875,-138.3125
1589544023.095638,-1.81,-3.78,8.8,0.6288888888888889,0.06,-0.7711111111111111,-0.375,5.6875,-127.625
1589544023.1046462,-1.87,-3.81,8.87,0.6288888888888889,0.06,-0.7711111111111111,-0.6875,3.75,-117.25
1589544023.1149476,-1.72,-3.67,9.01,0.6288888888888889,0.06,-0.7711111111111111,-0.8125,3.1875,-106.8125
1589544023.1323998,-34.76,-34.31,18.16,0.6288888888888889,0.06,-0.7711111111111111,5.0,24.75,-65.625
1589544023.1386714,-7.55,-7.84,-5.87,0.62,0.14,-0.75,-23.5,30.5625,-144.6875
1589544023.145303,0.28,-0.94,12.35,0.62,0.14,-0.75,-61.1875,-36.25,-193.3125
1589544023.1567905,4.68,-0.48,16.56,0.62,0.14,-0.75,18.5625,-38.5,-127.8125
1589544023.1695926,0.07,1.46,5.28,0.62,0.14,-0.75,79.125,50.875,-135.25
1589544023.1770096,0.64,0.18,3.72,0.62,0.14,-0.75,-6.5,7.375,-120.625
1589544023.1847756,1.02,-1.54,10.78,0.6077777777777778,0.22666666666666666,-0.7355555555555555,-26.1875,-17.25,-96.75
1589544023.196012,-0.2,-1.58,6.22,0.6077777777777778,0.22666666666666666,-0.7355555555555555,10.375,16.5625,-76.8125
1589544023.2074752,-0.09,-3.55,9.57,0.6077777777777778,0.22666666666666666,-0.7355555555555555,-2.3125,-0.9375,-53.6875
1589544023.215624,-0.59,-2.7,7.94,0.6077777777777778,0.22666666666666666,-0.7355555555555555,-2.9375,1.75,-27.3125
1589544023.2287695,-0.54,-3.34,9.32,0.6077777777777778,0.22666666666666666,-0.7355555555555555,2.625,2.125,-7.875
1589544023.234449,-0.63,-3.26,9.1,0.6044444444444445,0.27,-0.7511111111111111,0.9375,-1.0,6.1875
1589544023.2410767,-0.63,-3.26,9.1,0.6044444444444445,0.27,-0.7511111111111111,0.9375,-1.0,6.1875
1589544023.255537,-0.66,-3.09,8.53,0.6044444444444445,0.27,-0.7511111111111111,-0.375,-1.6875,28.6875
1589544023.266709,-0.58,-3.08,8.95,0.6044444444444445,0.27,-0.7511111111111111,0.8125,-1.625,37.5
1589544023.2808664,-0.48,-3.01,8.93,0.6044444444444445,0.27,-0.7511111111111111,1.3125,-1.8125,44.375
1589544023.2867727,-0.44,-3.15,8.71,0.59,0.2788888888888889,-0.7233333333333334,1.25,-1.8125,46.75
1589544023.2963176,-2.43,-7.12,7.8,0.59,0.2788888888888889,-0.7233333333333334,-4.9375,-9.1875,12.6875
1589544023.308406,1.43,0.96,10.07,0.59,0.2788888888888889,-0.7233333333333334,-3.5,0.25,-43.625
1589544023.3212972,-0.23,-1.54,7.91,0.59,0.2788888888888889,-0.7233333333333334,11.75,14.375,-39.4375
1589544023.3276372,-0.79,-3.02,9.77,0.59,0.2788888888888889,-0.7233333333333334,-3.9375,-1.1875,-20.3125
1589544023.3410528,-1.62,-7.1,8.93,0.5988888888888889,0.28,-0.7511111111111111,-4.0,-2.9375,-8.0
1589544023.3477335,-1.78,-5.9,8.22,0.5988888888888889,0.28,-0.7511111111111111,2.25,1.75,-12.375
1589544023.3609786,-0.57,-3.21,8.99,0.5988888888888889,0.28,-0.7511111111111111,-0.8125,-0.1875,-15.9375
1589544023.3677282,-1.26,-4.42,8.49,0.5988888888888889,0.28,-0.7511111111111111,-0.5,1.5625,-8.4375
1589544023.3783414,-0.85,-4.2,8.99,0.5988888888888889,0.28,-0.7511111111111111,-0.25,-0.4375,-2.375
1589544023.3848855,-0.78,-3.95,9.08,0.6055555555555555,0.26666666666666666,-0.7588888888888888,1.375,0.0,-0.25
1589544023.3996415,-0.84,-4.01,8.9,0.6055555555555555,0.26666666666666666,-0.7588888888888888,0.6875,1.25,0.1875
1589544023.4062178,-0.85,-4.1,8.79,0.6055555555555555,0.26666666666666666,-0.7588888888888888,-1.3125,-0.8125,0.0625
1589544023.416608,-0.93,-4.04,8.61,0.6055555555555555,0.26666666666666666,-0.7588888888888888,-0.75,0.25,0.0
1589544023.4346929,-0.84,-4.07,8.91,0.6055555555555555,0.26666666666666666,-0.7588888888888888,0.1875,-0.4375,-0.0625
1589544023.4411044,-0.88,-3.96,8.91,0.5788888888888889,0.2733333333333333,-0.7444444444444445,1.1875,0.0625,0.0625
1589544023.4480608,-0.84,-3.98,8.94,0.5788888888888889,0.2733333333333333,-0.7444444444444445,0.125,-0.25,0.0
1589544023.4596741,-0.88,-4.03,8.72,0.5788888888888889,0.2733333333333333,-0.7444444444444445,-1.1875,-0.0625,0.0
1589544023.469194,-0.87,-4.05,8.76,0.5788888888888889,0.2733333333333333,-0.7444444444444445,-1.0,-0.125,-0.0625
1589544023.4801133,-0.85,-4.07,8.85,0.5788888888888889,0.2733333333333333,-0.7444444444444445,-0.25,-0.1875,0.125
1589544023.4920304,-0.84,-3.98,8.95,0.5911111111111111,0.26666666666666666,-0.7444444444444445,0.6875,-0.3125,0.0625
1589544023.4982054,-0.88,-3.97,8.88,0.5911111111111111,0.26666666666666666,-0.7444444444444445,0.5,0.1875,-0.0625
1589544023.5121698,-0.88,-4.05,8.73,0.5911111111111111,0.26666666666666666,-0.7444444444444445,-0.5,-0.0625,0.0
1589544023.5183392,-0.85,-4.06,8.77,0.5911111111111111,0.26666666666666666,-0.7444444444444445,-0.75,0.0625,0.125
1589544023.530144,-0.87,-4.03,8.76,0.5911111111111111,0.26666666666666666,-0.7444444444444445,-0.3125,0.0,0.0
1589544023.5374124,-0.88,-4.02,8.86,0.5788888888888889,0.2855555555555556,-0.7511111111111111,0.5625,0.0625,0.0625
1589544023.5513046,-0.87,-3.96,8.83,0.5788888888888889,0.2855555555555556,-0.7511111111111111,0.625,-0.1875,0.0625
1589544023.5576587,-0.85,-4.01,8.8,0.5788888888888889,0.2855555555555556,-0.7511111111111111,-0.25,0.1875,0.0625
1589544023.5719998,-0.87,-4.04,8.76,0.5788888888888889,0.2855555555555556,-0.7511111111111111,-0.6875,0.0625,-0.0625
1589544023.5796428,-0.88,-4.06,8.82,0.5788888888888889,0.2855555555555556,-0.7511111111111111,-0.5,0.1875,0.0625
1589544023.5910842,-0.87,-4.0,8.87,0.5988888888888889,0.28,-0.7377777777777778,0.4375,0.0,0.0
1589544023.5981195,-0.85,-4.0,8.92,0.5988888888888889,0.28,-0.7377777777777778,0.75,0.125,0.0625
1589544023.608399,-0.88,-3.98,8.77,0.5988888888888889,0.28,-0.7377777777777778,0.1875,0.125,0.0625
1589544023.618383,-0.88,-4.07,8.79,0.5988888888888889,0.28,-0.7377777777777778,-0.5,0.0625,-0.0625
1589544023.630529,-0.9,-4.05,8.76,0.5988888888888889,0.28,-0.7377777777777778,-0.5,0.0,0.0625
1589544023.6379118,-0.87,-4.01,8.85,0.5866666666666667,0.2588888888888889,-0.7444444444444445,0.1875,-0.0625,0.0
1589544023.6501176,-0.85,-3.98,8.87,0.5866666666666667,0.2588888888888889,-0.7444444444444445,0.5,0.0,0.0625
1589544023.6577275,-0.87,-3.99,8.79,0.5866666666666667,0.2588888888888889,-0.7444444444444445,0.25,-0.0625,-0.0625
1589544023.6693866,-0.87,-4.01,8.77,0.5866666666666667,0.2588888888888889,-0.7444444444444445,-0.5,0.0625,0.0
1589544023.6807964,-0.86,-4.05,8.81,0.5866666666666667,0.2588888888888889,-0.7444444444444445,-0.875,-0.1875,0.0625
1589544023.6882,-0.85,-4.03,8.87,0.6055555555555555,0.2733333333333333,-0.7377777777777778,-0.1875,0.0625,0.0
1589544023.7026331,-0.86,-3.99,8.88,0.6055555555555555,0.2733333333333333,-0.7377777777777778,0.5,-0.1875,0.0625
1589544023.7088845,-0.88,-3.98,8.81,0.6055555555555555,0.2733333333333333,-0.7377777777777778,0.5625,0.0,-0.0625
1589544023.7230256,-0.86,-4.01,8.81,0.6055555555555555,0.2733333333333333,-0.7377777777777778,-0.1875,-0.0625,0.125
1589544023.7310164,-0.86,-4.06,8.81,0.6055555555555555,0.2733333333333333,-0.7377777777777778,-0.4375,0.0625,0.0
1589544023.7413821,-0.88,-4.04,8.85,0.5988888888888889,0.2855555555555556,-0.7444444444444445,-0.1875,0.0,0.0625
1589544023.7479699,-0.87,-4.01,8.87,0.5988888888888889,0.2855555555555556,-0.7444444444444445,0.3125,-0.125,0.125
1589544023.758769,-0.87,-3.99,8.8,0.5988888888888889,0.2855555555555556,-0.7444444444444445,0.4375,-0.0625,0.0625
1589544023.7690685,-0.86,-4.0,8.81,0.5988888888888889,0.2855555555555556,-0.7444444444444445,0.0,0.0625,0.0625
1589544023.7806985,-0.87,-4.07,8.81,0.5988888888888889,0.2855555555555556,-0.7444444444444445,-0.625,-0.0625,-0.0625
1589544023.7884128,-0.87,-4.07,8.85,0.5788888888888889,0.28,-0.7511111111111111,-0.4375,0.125,0.1875
1589544023.8000672,-0.88,-4.02,8.82,0.5788888888888889,0.28,-0.7511111111111111,0.1875,-0.125,0.0
1589544023.8083992,-0.83,-3.99,8.84,0.5788888888888889,0.28,-0.7511111111111111,0.4375,-0.25,0.125
1589544023.8198006,-0.87,-3.98,8.81,0.5788888888888889,0.28,-0.7511111111111111,0.1875,0.0,0.0
1589544023.8315606,-0.86,-4.05,8.8,0.5788888888888889,0.28,-0.7511111111111111,-0.375,-0.0625,0.125
1589544023.8398464,-0.85,-4.05,8.81,0.5844444444444444,0.2588888888888889,-0.7511111111111111,-0.5,-0.1875,0.125
1589544023.8530922,-0.88,-4.04,8.86,0.5844444444444444,0.2588888888888889,-0.7511111111111111,0.0,-0.1875,-0.0625
1589544023.8590946,-0.85,-4.0,8.8,0.5844444444444444,0.2588888888888889,-0.7511111111111111,0.4375,-0.0625,0.0
1589544023.8741045,-0.87,-4.01,8.84,0.5844444444444444,0.2588888888888889,-0.7511111111111111,0.125,-0.25,0.0
1589544023.8819275,-0.87,-4.02,8.82,0.5844444444444444,0.2588888888888889,-0.7511111111111111,-0.3125,-0.0625,0.0
1589544023.8927178,-0.86,-4.03,8.82,0.5866666666666667,0.2733333333333333,-0.7444444444444445,-0.5625,0.0,0.0625
1589544023.8990052,-0.87,-4.05,8.84,0.5866666666666667,0.2733333333333333,-0.7444444444444445,-0.125,-0.125,0.1875
1589544023.9131362,-0.86,-3.99,8.79,0.5866666666666667,0.2733333333333333,-0.7444444444444445,0.3125,-0.0625,-0.0625
1589544023.9191265,-0.86,-3.99,8.87,0.5866666666666667,0.2733333333333333,-0.7444444444444445,0.25,-0.0625,-0.0625
1589544023.9334474,-0.85,-4.02,8.84,0.5866666666666667,0.2733333333333333,-0.7444444444444445,0.0,0.0,0.0625
1589544023.9401915,-0.87,-4.06,8.84,0.5988888888888889,0.2733333333333333,-0.73,-0.375,0.125,0.0625
1589544023.9511528,-0.87,-4.05,8.82,0.5988888888888889,0.2733333333333333,-0.73,-0.3125,0.0,0.0
1589544023.96,-0.85,-4.01,8.76,0.5988888888888889,0.2733333333333333,-0.73,0.1875,-0.125,-0.0625
1589544023.9729252,-0.87,-4.0,8.83,0.5988888888888889,0.2733333333333333,-0.73,0.4375,-0.0625,-0.0625
1589544023.9824846,-0.87,-4.02,8.86,0.5988888888888889,0.2733333333333333,-0.73,0.0,-0.0625,0.0625
1589544023.9939034,-0.87,-4.05,8.82,0.5911111111111111,0.26666666666666666,-0.7444444444444445,-0.375,0.0,0.0625
1589544024.0031776,-0.88,-4.06,8.85,0.5911111111111111,0.26666666666666666,-0.7444444444444445,-0.4375,0.0625,0.0625
1589544024.011925,-0.88,-4.01,8.76,0.5911111111111111,0.26666666666666666,-0.7444444444444445,-0.0625,-0.1875,0.0625
1589544024.0251431,-0.86,-3.97,8.84,0.5911111111111111,0.26666666666666666,-0.7444444444444445,0.3125,-0.125,0.0625
1589544024.0321505,-0.87,-4.0,8.87,0.5911111111111111,0.26666666666666666,-0.7444444444444445,0.125,-0.125,0.0625
1589544024.0456865,-0.85,-4.02,8.86,0.6055555555555555,0.2733333333333333,-0.7511111111111111,-0.25,0.0,0.0625
1589544024.0524707,-0.87,-4.05,8.79,0.6055555555555555,0.2733333333333333,-0.7511111111111111,-0.3125,0.0625,-0.0625
1589544024.063872,-0.86,-4.03,8.76,0.6055555555555555,0.2733333333333333,-0.7511111111111111,-0.0625,0.0625,0.0
1589544024.06994,-0.85,-4.01,8.8,0.6055555555555555,0.2733333333333333,-0.7511111111111111,0.3125,0.0625,0.0
1589544024.0825381,-0.86,-4.01,8.84,0.6055555555555555,0.2733333333333333,-0.7511111111111111,0.125,0.0,0.125
1589544024.0908766,-0.84,-4.03,8.85,0.5911111111111111,0.28,-0.7588888888888888,-0.25,-0.125,0.0
1589544024.1005995,-0.87,-4.05,8.88,0.5911111111111111,0.28,-0.7588888888888888,-0.4375,0.0625,0.25
1589544024.1106708,-0.87,-4.05,8.72,0.5911111111111111,0.28,-0.7588888888888888,-0.3125,0.0625,0.0625
1589544024.1203046,-0.85,-4.0,8.84,0.5911111111111111,0.28,-0.7588888888888888,0.125,0.0625,0.125
1589544024.132459,-0.86,-4.02,8.85,0.5911111111111111,0.28,-0.7588888888888888,0.4375,-0.0625,0.25
1589544024.1408072,-0.86,-4.03,8.85,0.5866666666666667,0.2733333333333333,-0.73,-0.0625,0.0625,-0.0625
