time,acc_x,acc_y,acc_z,mag_x,mag_y,mag_z,gyr_x,gyr_y,gyr_z
1589543999.7396786,-0.06,-4.15,8.7,0.4711111111111111,0.2488888888888889,-0.6966666666666667,-0.125,-0.5625,0.1875
1589543999.7498858,0.0,-4.18,8.78,0.4711111111111111,0.2488888888888889,-0.6966666666666667,-0.0625,-0.125,0.0
1589543999.7647266,-0.01,-4.18,8.81,0.4711111111111111,0.2488888888888889,-0.6966666666666667,-0.5,-0.75,-0.0625
1589543999.771172,-0.01,-4.18,8.85,0.4711111111111111,0.2344444444444445,-0.7111111111111111,-0.3125,-0.375,0.0
1589543999.7840016,-0.02,-4.17,8.84,0.4711111111111111,0.2344444444444445,-0.7111111111111111,-0.1875,-0.25,0.0625
1589543999.7906823,0.01,-4.18,8.74,0.4711111111111111,0.2344444444444445,-0.7111111111111111,-0.125,-0.25,0.0
1589543999.8035414,0.0,-4.18,8.81,0.4711111111111111,0.2344444444444445,-0.7111111111111111,-0.1875,-0.125,-0.125
1589543999.8138044,0.01,-4.19,8.81,0.4711111111111111,0.2344444444444445,-0.7111111111111111,-0.1875,-0.125,0.125
1589543999.825488,0.0,-4.17,8.86,0.4977777777777778,0.2488888888888889,-0.6966666666666667,-0.125,-0.25,0.0625
1589543999.831592,-0.02,-4.2,8.79,0.4977777777777778,0.2488888888888889,-0.6966666666666667,-0.25,-0.1875,-0.125
1589543999.8407965,-0.02,-4.2,8.76,0.4977777777777778,0.2488888888888889,-0.6966666666666667,-0.0625,0.1875,0.0625
1589543999.8502073,-0.04,-4.18,8.78,0.4977777777777778,0.2488888888888889,-0.6966666666666667,0.0625,0.0,0.0625
1589543999.8630548,0.0,-4.19,8.81,0.4977777777777778,0.2488888888888889,-0.6966666666666667,0.0,0.125,0.0625
1589543999.87554,0.0,-4.18,8.85,0.49,0.25555555555555554,-0.6822222222222222,0.1875,0.0,-0.125
1589543999.8813481,-0.02,-4.19,8.82,0.49,0.25555555555555554,-0.6822222222222222,0.0,0.125,0.0
1589543999.8914886,0.0,-4.18,8.73,0.49,0.25555555555555554,-0.6822222222222222,0.1875,0.0625,0.125
1589543999.9037833,0.0,-4.19,8.83,0.49,0.25555555555555554,-0.6822222222222222,0.0,0.3125,0.0625
1589543999.9156818,0.0,-4.18,8.84,0.49,0.25555555555555554,-0.6822222222222222,0.25,0.5,0.0
1589543999.9216678,0.0,-4.17,8.84,0.4777777777777778,0.2344444444444445,-0.6755555555555556,0.125,0.5,-0.0625
1589543999.934724,-0.01,-4.17,8.84,0.4777777777777778,0.2344444444444445,-0.6755555555555556,0.0625,0.375,0.0
1589543999.940592,-0.02,-4.18,8.72,0.4777777777777778,0.2344444444444445,-0.6755555555555556,0.125,0.4375,0.0
1589543999.9543712,-0.01,-4.18,8.78,0.4777777777777778,0.2344444444444445,-0.6755555555555556,0.375,0.3125,0.0625
1589543999.9643776,-0.01,-4.17,8.8,0.4777777777777778,0.2344444444444445,-0.6755555555555556,0.375,0.0625,0.125
1589543999.9754288,0.0,-4.18,8.82,0.4977777777777778,0.2488888888888889,-0.6966666666666667,0.1875,0.25,0.0
1589543999.981843,-0.01,-4.18,8.8,0.4977777777777778,0.2488888888888889,-0.6966666666666667,0.1875,0.25,0.125
1589543999.9915502,-0.02,-4.19,8.75,0.4977777777777778,0.2488888888888889,-0.6966666666666667,0.25,0.4375,0.0
1589544000.0015352,-0.02,-4.18,8.78,0.4977777777777778,0.2488888888888889,-0.6966666666666667,0.0625,0.5,0.0625
1589544000.0136065,-0.06,-4.15,8.66,0.4977777777777778,0.2488888888888889,-0.6966666666666667,-0.125,0.25,0.0
1589544000.0206587,0.23,-4.33,9.44,0.49,0.2488888888888889,-0.6677777777777778,-1.125,-1.375,0.0625
1589544000.0314147,-0.18,-4.07,8.5,0.49,0.2488888888888889,-0.6677777777777778,-0.5625,-0.875,0.0
1589544000.042676,0.0,-4.18,8.71,0.49,0.2488888888888889,-0.6677777777777778,0.625,1.4375,0.0625
1589544000.053363,-0.06,-4.18,8.72,0.49,0.2488888888888889,-0.6677777777777778,-0.625,-0.6875,0.0
1589544000.0680563,-0.13,-4.1,8.62,0.49,0.2488888888888889,-0.6677777777777778,0.1875,0.6875,0.0625
1589544000.0744774,0.01,-4.25,8.9,0.4833333333333333,0.2344444444444445,-0.6822222222222222,-0.25,-0.4375,0.0625
1589544000.086031,-0.09,-4.12,8.58,0.4833333333333333,0.2344444444444445,-0.6822222222222222,-1.125,-1.4375,-0.0625
1589544000.0922544,0.0,-4.2,8.73,0.4833333333333333,0.2344444444444445,-0.6822222222222222,0.5,0.9375,0.125
1589544000.1054952,0.01,-4.23,8.83,0.4833333333333333,0.2344444444444445,-0.6822222222222222,-0.25,-0.1875,0.0
1589544000.1143017,-0.1,-4.13,8.56,0.4833333333333333,0.2344444444444445,-0.6822222222222222,-0.5,-0.125,0.0625
1589544000.1223063,-0.06,-4.15,8.78,0.4833333333333333,0.2411111111111111,-0.6966666666666667,-1.1875,-1.1875,-0.0625
1589544000.1317008,-0.09,-4.12,8.67,0.4833333333333333,0.2411111111111111,-0.6966666666666667,0.0625,0.25,0.0625
1589544000.1430018,0.03,-4.2,8.79,0.4833333333333333,0.2411111111111111,-0.6966666666666667,-0.25,-0.125,0.125
1589544000.1520505,0.13,-4.29,9.06,0.4833333333333333,0.2411111111111111,-0.6966666666666667,-1.25,-1.8125,-0.125
1589544000.1636865,-0.05,-4.13,8.68,0.4833333333333333,0.2411111111111111,-0.6966666666666667,-1.1875,-1.125,0.0
1589544000.1711702,0.17,-4.3,9.26,0.4711111111111111,0.25555555555555554,-0.6822222222222222,-1.3125,-0.6875,0.0
1589544000.1811635,-0.15,-4.0,8.6,0.4711111111111111,0.25555555555555554,-0.6822222222222222,-0.3125,0.5,0.125
1589544000.1869848,-0.15,-4.0,8.6,0.4711111111111111,0.25555555555555554,-0.6822222222222222,-0.3125,0.5,0.125
1589544000.1945608,0.02,-3.95,8.9,0.4711111111111111,0.25555555555555554,-0.6822222222222222,-1.375,-1.0,0.4375
1589544000.206303,-0.02,-3.9,8.71,0.4711111111111111,0.25555555555555554,-0.6822222222222222,-0.5,0.125,1.6875
1589544000.2138093,-0.03,-3.9,8.78,0.4711111111111111,0.25555555555555554,-0.6822222222222222,-0.75,-0.5,2.625
1589544000.2253337,0.03,-3.91,8.88,0.4777777777777778,0.25555555555555554,-0.6755555555555556,-0.6875,-0.25,3.5
1589544000.2381456,-0.05,-3.78,8.77,0.4777777777777778,0.25555555555555554,-0.6755555555555556,-0.6875,-0.4375,4.5625
1589544000.2447138,-0.18,-3.6,8.68,0.4777777777777778,0.25555555555555554,-0.6755555555555556,-1.375,-1.125,5.75
1589544000.258173,-0.36,-2.75,8.72,0.4777777777777778,0.25555555555555554,-0.6755555555555556,-2.625,-2.5625,8.5625
1589544000.264204,-0.19,-2.84,9.0,0.4777777777777778,0.25555555555555554,-0.6755555555555556,-1.375,-1.375,13.8125
1589544000.2766724,-0.12,-2.88,8.78,0.4833333333333333,0.25555555555555554,-0.6822222222222222,1.3125,0.4375,20.5
1589544000.284015,-0.1,-3.0,8.74,0.4833333333333333,0.25555555555555554,-0.6822222222222222,0.5625,-0.875,25.75
1589544000.2932026,-0.18,-3.08,8.87,0.4833333333333333,0.25555555555555554,-0.6822222222222222,-0.8125,-1.8125,30.1875
1589544000.3023787,-0.22,-3.19,8.83,0.4833333333333333,0.25555555555555554,-0.6822222222222222,0.625,-1.25,35.125
1589544000.317003,-0.22,-3.21,8.79,0.4833333333333333,0.25555555555555554,-0.6822222222222222,0.5,-1.25,39.875
1589544000.3234794,-0.21,-3.2,8.87,0.4833333333333333,0.2488888888888889,-0.6888888888888889,-0.375,-2.3125,44.25
1589544000.3345475,-0.17,-3.24,8.81,0.4833333333333333,0.2488888888888889,-0.6888888888888889,0.0,-2.5,47.625
1589544000.3434794,-0.16,-3.31,8.79,0.4833333333333333,0.2488888888888889,-0.6888888888888889,0.4375,-2.3125,50.375
1589544000.3560848,-0.22,-3.23,8.78,0.4833333333333333,0.2488888888888889,-0.6888888888888889,0.4375,-2.5,52.3125
1589544000.3714118,-0.27,-3.27,8.89,0.4833333333333333,0.2488888888888889,-0.6888888888888889,0.0,-2.6875,54.375
1589544000.3776646,-0.26,-3.28,8.87,0.4977777777777778,0.2288888888888889,-0.6888888888888889,0.25,-2.4375,56.75
1589544000.3892677,-0.32,-3.39,8.92,0.4977777777777778,0.2288888888888889,-0.6888888888888889,0.25,-2.75,58.625
1589544000.3959894,-0.32,-3.35,8.77,0.4977777777777778,0.2288888888888889,-0.6888888888888889,0.4375,-2.6875,60.3125
1589544000.4091218,-0.33,-3.33,8.79,0.4977777777777778,0.2288888888888889,-0.6888888888888889,0.5625,-2.5,61.875
1589544000.4165158,-0.35,-3.41,8.88,0.4977777777777778,0.2288888888888889,-0.6888888888888889,0.1875,-2.9375,62.8125
1589544000.428209,-0.39,-3.44,8.87,0.51,0.21444444444444444,-0.6966666666666667,0.1875,-2.9375,63.375
1589544000.4347336,-0.39,-3.43,8.89,0.51,0.21444444444444444,-0.6966666666666667,0.5,-2.875,63.9375
1589544000.4474075,-0.43,-3.42,8.76,0.51,0.21444444444444444,-0.6966666666666667,0.4375,-2.9375,64.5
1589544000.4538968,-0.47,-3.46,8.85,0.51,0.21444444444444444,-0.6966666666666667,0.25,-3.0625,64.9375
1589544000.4664447,-0.47,-3.47,8.9,0.51,0.21444444444444444,-0.6966666666666667,0.4375,-3.0,64.4375
1589544000.4734054,-0.51,-3.52,8.86,0.5222222222222223,0.19,-0.6888888888888889,0.625,-2.75,63.75
1589544000.4871511,-0.57,-3.43,8.83,0.5222222222222223,0.19,-0.6888888888888889,0.4375,-2.8125,63.75
1589544000.4953144,-0.6,-3.42,8.77,0.5222222222222223,0.19,-0.6888888888888889,0.6875,-2.6875,63.6875
1589544000.5072687,-0.67,-3.45,8.81,0.5222222222222223,0.19,-0.6888888888888889,0.4375,-3.0625,63.75
1589544000.5164018,-0.68,-3.46,8.89,0.5222222222222223,0.19,-0.6888888888888889,0.3125,-2.6875,63.75
1589544000.528003,-0.69,-3.43,8.89,0.5288888888888889,0.17555555555555555,-0.6888888888888889,0.4375,-2.75,63.25
1589544000.5360384,-0.77,-3.45,8.88,0.5288888888888889,0.17555555555555555,-0.6888888888888889,0.625,-2.75,63.3125
1589544000.544691,-0.76,-3.42,8.79,0.5288888888888889,0.17555555555555555,-0.6888888888888889,0.375,-2.8125,63.5
1589544000.5606456,-0.86,-3.49,8.86,0.5288888888888889,0.17555555555555555,-0.6888888888888889,0.375,-2.9375,63.6875
1589544000.5666668,-0.9,-3.49,8.9,0.5288888888888889,0.17555555555555555,-0.6888888888888889,0.5,-2.75,64.3125
1589544000.574061,-0.95,-3.5,8.87,0.5555555555555556,0.1288888888888889,-0.6966666666666667,0.375,-2.875,64.875
1589544000.586436,-1.0,-3.55,8.91,0.5555555555555556,0.1288888888888889,-0.6966666666666667,0.25,-3.1875,65.8125
1589544000.5967634,-1.0,-3.54,8.78,0.5555555555555556,0.1288888888888889,-0.6966666666666667,0.4375,-3.0625,65.875
1589544000.6049645,-1.0,-3.46,8.9,0.5555555555555556,0.1288888888888889,-0.6966666666666667,0.6875,-2.875,65.8125
1589544000.6180847,-0.97,-3.39,8.83,0.5555555555555556,0.1288888888888889,-0.6966666666666667,0.8125,-2.4375,65.5
1589544000.6246598,-1.03,-3.38,8.98,0.5488888888888889,0.11,-0.7466666666666667,0.1875,-3.375,64.6875
1589544000.6360538,-1.07,-3.37,8.89,0.5488888888888889,0.11,-0.7466666666666667,0.25,-3.125,64.5
1589544000.6449792,-1.04,-3.33,8.8,0.5488888888888889,0.11,-0.7466666666666667,0.4375,-2.9375,64.1875
1589544000.6572325,-1.04,-3.34,8.81,0.5488888888888889,0.11,-0.7466666666666667,0.5625,-2.875,63.3125
1589544000.6670456,-1.19,-3.37,8.93,0.5488888888888889,0.11,-0.7466666666666667,0.1875,-3.125,62.75
1589544000.6748426,-1.14,-3.34,8.95,0.5488888888888889,0.07111111111111111,-0.7322222222222222,0.5625,-2.75,62.25
1589544000.6846607,-1.11,-3.19,8.81,0.5488888888888889,0.07111111111111111,-0.7322222222222222,0.625,-2.8125,61.0625
1589544000.6972222,-1.21,-3.27,8.88,0.5488888888888889,0.07111111111111111,-0.7322222222222222,0.375,-3.0625,59.625
1589544000.7064342,-1.17,-3.21,8.74,0.5488888888888889,0.07111111111111111,-0.7322222222222222,0.625,-2.0,58.375
1589544000.7184215,-1.14,-3.18,8.9,0.5488888888888889,0.07111111111111111,-0.7322222222222222,0.125,-3.0625,56.5
1589544000.7249787,-1.27,-3.23,9.03,0.5555555555555556,0.05666666666666665,-0.7533333333333333,0.375,-2.5625,53.8125
1589544000.7361748,-1.23,-3.1,8.81,0.5555555555555556,0.05666666666666665,-0.7533333333333333,0.5625,-1.9375,52.0625
1589544000.7453918,-1.3,-3.11,8.81,0.5555555555555556,0.05666666666666665,-0.7533333333333333,0.0625,-2.625,50.375
1589544000.7557092,-1.38,-3.22,9.04,0.5555555555555556,0.05666666666666665,-0.7533333333333333,0.125,-2.5,49.3125
1589544000.7681766,-1.37,-3.12,8.84,0.5555555555555556,0.05666666666666665,-0.7533333333333333,1.125,-1.5,48.5625
1589544000.7757034,-1.42,-3.16,8.98,0.5422222222222223,0.03333333333333333,-0.7733333333333333,0.3125,-2.3125,47.8125
1589544000.7902255,-1.5,-3.18,8.97,0.5422222222222223,0.03333333333333333,-0.7733333333333333,0.1875,-2.125,47.375
1589544000.7969518,-1.43,-3.12,8.79,0.5422222222222223,0.03333333333333333,-0.7733333333333333,0.4375,-1.9375,47.375
1589544000.8068302,-1.55,-3.16,8.88,0.5422222222222223,0.03333333333333333,-0.7733333333333333,0.3125,-2.125,47.3125
1589544000.8177285,-1.65,-3.21,8.94,0.5422222222222223,0.03333333333333333,-0.7733333333333333,0.3125,-2.25,47.6875
1589544000.8262846,-1.55,-3.07,8.95,0.5544444444444444,0.017777777777777778,-0.7744444444444445,0.1875,-2.0625,48.5625
1589544000.8355846,-1.48,-2.99,8.9,0.5544444444444444,0.017777777777777778,-0.7744444444444445,0.5625,-2.0,49.5
1589544000.8458338,-1.47,-2.93,8.82,0.5544444444444444,0.017777777777777778,-0.7744444444444445,0.5625,-2.0,49.625
1589544000.8571,-1.54,-3.0,8.81,0.5544444444444444,0.017777777777777778,-0.7744444444444445,0.1875,-1.6875,49.25
1589544000.8691359,-1.6,-3.0,8.98,0.5544444444444444,0.017777777777777778,-0.7744444444444445,0.3125,-2.6875,49.0
1589544000.8759074,-1.54,-2.94,8.81,0.5544444444444444,0.0,-0.7822222222222223,0.375,-1.875,49.125
1589544000.8880177,-1.52,-2.91,8.93,0.5544444444444444,0.0,-0.7822222222222223,0.3125,-1.6875,48.6875
1589544000.8962073,-1.47,-2.91,8.86,0.5544444444444444,0.0,-0.7822222222222223,0.125,-2.125,47.3125
1589544000.906166,-1.55,-2.91,8.84,0.5544444444444444,0.0,-0.7822222222222223,-0.125,-2.0,45.3125
1589544000.9228652,-1.58,-2.87,8.86,0.5544444444444444,0.0,-0.7822222222222223,0.0,-1.6875,43.5625
1589544000.9288704,-1.57,-2.83,8.92,0.5544444444444444,-0.01888888888888889,-0.7944444444444444,0.25,-1.4375,41.8125
1589544000.9412403,-1.63,-2.89,9.07,0.5544444444444444,-0.01888888888888889,-0.7944444444444444,0.0,-1.6875,40.1875
1589544000.9469225,-1.63,-2.83,8.81,0.5544444444444444,-0.01888888888888889,-0.7944444444444444,-0.125,-1.0625,38.3125
1589544000.9613838,-1.61,-2.83,8.93,0.5544444444444444,-0.01888888888888889,-0.7944444444444444,0.0,-1.375,36.5
1589544000.969424,-1.66,-2.85,8.89,0.5544444444444444,-0.01888888888888889,-0.7944444444444444,0.125,-1.1875,34.125
1589544000.9783752,-1.8,-2.95,9.0,0.5455555555555556,-0.03888888888888889,-0.83,-0.4375,-1.1875,31.6875
1589544000.9860613,-1.76,-2.87,8.82,0.5455555555555556,-0.03888888888888889,-0.83,-0.125,-0.75,29.8125
1589544001.0053287,-1.78,-2.84,8.86,0.5455555555555556,-0.03888888888888889,-0.83,0.0,-1.0,27.8125
1589544001.0123286,-1.71,-2.81,8.87,0.5455555555555556,-0.03888888888888889,-0.83,-0.4375,-0.8125,26.0
1589544001.0369885,-1.84,-2.86,9.0,0.56,-0.057777777777777775,-0.83,-0.4375,-0.25,19.375
1589544001.0473425,-1.85,-2.82,8.79,0.56,-0.057777777777777775,-0.83,-0.4375,0.0,16.75
1589544001.0716481,-1.89,-2.83,8.92,0.56,-0.057777777777777775,-0.83,-0.6875,-0.125,14.125
1589544001.0870626,-1.98,-2.86,9.0,0.54,-0.13666666666666666,-0.8444444444444444,-0.9375,0.4375,10.125
1589544001.0974793,-1.79,-2.77,8.91,0.54,-0.13666666666666666,-0.8444444444444444,-0.625,0.875,6.1875
1589544001.1162224,-1.97,-2.89,8.93,0.54,-0.13666666666666666,-0.8444444444444444,-1.0625,0.8125,3.625
1589544001.129323,-1.94,-2.82,8.78,0.54,-0.13666666666666666,-0.8444444444444444,-0.875,1.625,0.75
1589544001.1381953,-2.08,-2.9,8.92,0.52,-0.13666666666666666,-0.83,-1.0625,1.25,-2.9375
1589544001.1766381,-2.05,-2.87,8.81,0.52,-0.13666666666666666,-0.83,-1.125,1.1875,-3.9375
1589544001.1920571,-1.98,-2.76,8.92,0.5277777777777778,-0.17777777777777778,-0.8533333333333334,-0.75,1.3125,-3.0
1589544001.20305,-1.96,-2.78,8.81,0.5277777777777778,-0.17777777777777778,-0.8533333333333334,-0.9375,1.125,-2.875
1589544001.2088373,-2.03,-2.85,8.94,0.5277777777777778,-0.17777777777777778,-0.8533333333333334,-0.9375,0.375,-2.6875
1589544001.2198644,-2.02,-2.8,8.89,0.5277777777777778,-0.17777777777777778,-0.8533333333333334,-1.0,0.375,-3.125
1589544001.2275207,-2.14,-2.94,8.98,0.4711111111111111,-0.2222222222222222,-0.8033333333333333,-0.875,0.25,-3.5625
1589544001.2377448,-2.1,-2.85,8.71,0.4711111111111111,-0.2222222222222222,-0.8033333333333333,-0.625,0.4375,-3.5
1589544001.2476482,-2.0,-2.73,8.89,0.4711111111111111,-0.2222222222222222,-0.8033333333333333,-1.0625,-0.25,-3.875
1589544001.2581296,-1.89,-2.7,9.17,0.4711111111111111,-0.2222222222222222,-0.8033333333333333,-1.375,-0.4375,-2.9375
1589544001.2707243,-1.98,-2.75,8.65,0.4711111111111111,-0.2222222222222222,-0.8033333333333333,0.5625,1.9375,-1.375
1589544001.2799234,-2.07,-2.91,9.06,0.4655555555555556,-0.21666666666666667,-0.7444444444444445,-0.5,-0.0625,-0.6875
1589544001.287827,-2.14,-2.91,8.96,0.4655555555555556,-0.21666666666666667,-0.7444444444444445,-0.875,-0.25,-0.5625
1589544001.302299,-2.2,-2.99,8.82,0.4655555555555556,-0.21666666666666667,-0.7444444444444445,-0.3125,0.625,0.75
1589544001.3090432,-2.1,-2.93,9.02,0.4655555555555556,-0.21666666666666667,-0.7444444444444445,-0.75,0.0,2.1875
1589544001.3239045,-2.2,-3.02,8.84,0.4655555555555556,-0.21666666666666667,-0.7444444444444445,-0.5,-0.3125,3.5625
1589544001.3292115,-2.16,-3.04,8.93,0.4722222222222222,-0.17777777777777778,-0.7088888888888889,-0.125,-0.125,4.75
1589544001.3384194,-2.24,-3.05,9.0,0.4722222222222222,-0.17777777777777778,-0.7088888888888889,-0.375,-0.375,5.375
1589544001.3491821,-2.28,-3.04,8.73,0.4722222222222222,-0.17777777777777778,-0.7088888888888889,-0.1875,-0.0625,6.375
1589544001.3589325,-2.41,-3.15,8.88,0.4722222222222222,-0.17777777777777778,-0.7088888888888889,-0.25,-0.625,7.625
1589544001.3710904,-2.31,-3.06,8.92,0.4722222222222222,-0.17777777777777778,-0.7088888888888889,-0.5625,-1.1875,9.5
1589544001.3817954,-2.26,-3.05,8.85,0.4988888888888889,-0.1511111111111111,-0.7088888888888889,-0.1875,-0.6875,11.875
1589544001.3892329,-2.34,-3.07,8.96,0.4988888888888889,-0.1511111111111111,-0.7088888888888889,0.3125,-0.5625,14.0625
1589544001.400542,-2.25,-2.98,8.81,0.4988888888888889,-0.1511111111111111,-0.7088888888888889,-0.375,-1.1875,15.5625
1589544001.4095433,-2.3,-2.99,8.9,0.4988888888888889,-0.1511111111111111,-0.7088888888888889,-0.125,-1.125,17.375
1589544001.4209292,-2.26,-2.92,8.83,0.4988888888888889,-0.1511111111111111,-0.7088888888888889,0.0,-1.1875,19.75
1589544001.4287806,-2.21,-2.84,9.05,0.5066666666666667,-0.12444444444444445,-0.7022222222222222,-0.3125,-2.0,21.75
1589544001.4403124,-2.19,-2.73,9.03,0.5066666666666667,-0.12444444444444445,-0.7022222222222222,-0.5625,-2.25,24.5
1589544001.453054,-2.03,-2.62,8.68,0.5066666666666667,-0.12444444444444445,-0.7022222222222222,0.0625,-1.6875,29.0625
1589544001.459094,-2.2,-2.78,9.17,0.5066666666666667,-0.12444444444444445,-0.7022222222222222,0.5625,-2.5,31.875
1589544001.4721072,-2.26,-2.79,8.9,0.5066666666666667,-0.12444444444444445,-0.7022222222222222,0.25,-2.6875,34.1875
1589544001.4784436,-2.39,-2.91,9.09,0.5244444444444445,-0.11888888888888888,-0.7111111111111111,0.9375,-1.375,36.875
1589544001.4898474,-2.23,-2.74,8.72,0.5244444444444445,-0.11888888888888888,-0.7111111111111111,1.5625,-0.75,39.5625
1589544001.499388,-2.28,-2.81,9.22,0.5244444444444445,-0.11888888888888888,-0.7111111111111111,1.0,-2.3125,41.375
1589544001.50963,-2.27,-2.71,8.71,0.5244444444444445,-0.11888888888888888,-0.7111111111111111,0.5,-2.1875,43.3125
1589544001.5216901,-2.38,-2.78,8.7,0.5244444444444445,-0.11888888888888888,-0.7111111111111111,1.0,-1.875,45.25
1589544001.5287702,-2.58,-2.89,9.22,0.5188888888888888,-0.13111111111111112,-0.7111111111111111,-0.1875,-4.9375,47.0625
1589544001.5386744,-2.62,-2.9,9.05,0.5188888888888888,-0.13111111111111112,-0.7111111111111111,0.4375,-2.875,50.0
1589544001.5506046,-2.21,-2.57,8.32,0.5188888888888888,-0.13111111111111112,-0.7111111111111111,1.5,-1.125,53.1875
1589544001.55876,-2.03,-2.49,9.53,0.5188888888888888,-0.13111111111111112,-0.7111111111111111,-0.1875,-5.375,54.875
1589544001.570717,-2.31,-2.51,8.74,0.5188888888888888,-0.13111111111111112,-0.7111111111111111,-1.0625,-5.6875,54.0625
1589544001.5780282,-1.92,-1.86,8.96,0.5188888888888888,-0.1511111111111111,-0.7033333333333334,1.0,-1.75,52.6875
1589544001.5888286,-1.92,-1.86,8.96,0.5188888888888888,-0.1511111111111111,-0.7033333333333334,1.0,-1.75,52.6875
1589544001.5986705,-1.53,-2.26,8.81,0.5188888888888888,-0.1511111111111111,-0.7033333333333334,1.8125,-1.4375,33.8125
1589544001.6088881,-2.62,-2.48,9.43,0.5188888888888888,-0.1511111111111111,-0.7033333333333334,-1.875,-1.5625,14.75
1589544001.6262062,-2.67,-2.31,8.91,0.5188888888888888,-0.1511111111111111,-0.7033333333333334,-0.625,-0.875,8.75
1589544001.6316776,-1.87,-2.26,9.04,0.5188888888888888,-0.16333333333333333,-0.7111111111111111,3.0625,1.375,19.25
1589544001.6403165,-2.06,-2.58,9.43,0.5188888888888888,-0.16333333333333333,-0.7111111111111111,-2.625,-4.5,19.0
1589544001.6503494,-2.38,-2.58,8.68,0.5188888888888888,-0.16333333333333333,-0.7111111111111111,-0.1875,-1.3125,15.25
1589544001.6632998,-2.46,-2.46,8.56,0.5188888888888888,-0.16333333333333333,-0.7111111111111111,2.875,1.4375,12.875
1589544001.671214,-2.33,-2.33,9.17,0.5188888888888888,-0.16333333333333333,-0.7111111111111111,-2.0,-2.9375,11.4375
1589544001.6838186,-2.44,-2.42,8.9,0.5288888888888889,-0.19,-0.7177777777777777,-0.25,-1.8125,14.125
1589544001.6897793,-2.29,-2.4,8.86,0.5288888888888889,-0.19,-0.7177777777777777,0.9375,-0.25,17.6875
1589544001.7026596,-2.48,-2.55,9.13,0.5288888888888889,-0.19,-0.7177777777777777,-0.875,-2.5,21.1875
1589544001.7102675,-2.54,-2.4,8.81,0.5288888888888889,-0.19,-0.7177777777777777,-0.4375,-1.625,26.25
1589544001.7224069,-2.4,-2.37,9.44,0.5288888888888889,-0.19,-0.7177777777777777,-0.4375,-3.0,32.75
1589544001.72976,-2.19,-2.2,8.73,0.5288888888888889,-0.2111111111111111,-0.7033333333333334,0.9375,-1.875,39.75
1589544001.7426634,-2.14,-2.27,9.06,0.5288888888888889,-0.2111111111111111,-0.7033333333333334,0.6875,-1.375,44.0
1589544001.7500994,-2.08,-2.29,8.96,0.5288888888888889,-0.2111111111111111,-0.7033333333333334,-0.0625,-2.4375,46.0
1589544001.7599776,-2.02,-2.23,8.54,0.5288888888888889,-0.2111111111111111,-0.7033333333333334,0.625,-0.8125,47.5
1589544001.7757668,-2.3,-2.38,9.14,0.5288888888888889,-0.2111111111111111,-0.7033333333333334,0.375,-2.25,46.5625
1589544001.782111,-1.92,-2.08,8.62,0.5366666666666666,-0.3555555555555556,-0.6966666666666667,-0.75,-3.6875,45.5625
1589544001.7959714,-2.13,-2.2,9.19,0.5366666666666666,-0.3555555555555556,-0.6966666666666667,0.125,-1.5625,44.8125
1589544001.8018346,-2.24,-2.19,8.7,0.5366666666666666,-0.3555555555555556,-0.6966666666666667,-0.625,-3.625,43.375
1589544001.8141365,-1.49,-1.8,8.78,0.5366666666666666,-0.3555555555555556,-0.6966666666666667,-2.6875,-4.375,40.9375
1589544001.8219151,-1.7,-1.87,8.78,0.5366666666666666,-0.3555555555555556,-0.6966666666666667,2.5,0.25,41.125
1589544001.8338487,-1.85,-1.91,8.98,0.5377777777777778,-0.7211111111111111,-0.5555555555555556,2.625,-0.0625,38.5
1589544001.84043,-1.6,-1.81,9.26,0.5377777777777778,-0.7211111111111111,-0.5555555555555556,-2.0,-2.5625,35.25
1589544001.8535204,-1.52,-1.8,8.96,0.5377777777777778,-0.7211111111111111,-0.5555555555555556,-1.0625,-2.4375,33.0625
1589544001.8610272,-1.48,-1.69,8.27,0.5377777777777778,-0.7211111111111111,-0.5555555555555556,1.75,1.1875,29.1875
1589544001.8730636,-1.81,-1.99,9.36,0.5377777777777778,-0.7211111111111111,-0.5555555555555556,-3.1875,-3.8125,13.625
1589544001.8804634,-1.74,-1.84,8.84,1.23,-0.9688888888888888,-0.07111111111111111,0.0625,-0.0625,8.6875
1589544001.8909698,-1.85,-1.94,9.25,1.23,-0.9688888888888888,-0.07111111111111111,0.6875,-0.5,4.5625
1589544001.9019682,-1.39,-1.76,8.59,1.23,-0.9688888888888888,-0.07111111111111111,-0.5625,0.125,0.875
1589544001.9107554,-1.31,-1.93,9.44,1.23,-0.9688888888888888,-0.07111111111111111,0.8125,1.6875,-6.375
1589544001.9287195,-0.96,-1.72,8.69,1.23,-0.9688888888888888,-0.07111111111111111,-0.4375,-1.1875,-16.5
1589544001.9348972,-0.59,-1.75,9.18,0.8533333333333334,-0.4155555555555556,-0.7111111111111111,-2.8125,-3.0625,-29.0
1589544001.941799,-0.59,-1.74,9.34,0.8533333333333334,-0.4155555555555556,-0.7111111111111111,-0.8125,1.9375,-42.6875
1589544001.953794,-0.53,-1.69,8.32,0.8533333333333334,-0.4155555555555556,-0.7111111111111111,-0.25,3.125,-56.5
1589544001.9631019,-0.27,-1.82,8.78,0.8533333333333334,-0.4155555555555556,-0.7111111111111111,-0.0625,4.1875,-72.375
1589544001.9728556,-0.5,-2.03,9.23,0.8533333333333334,-0.4155555555555556,-0.7111111111111111,-0.0625,4.875,-88.6875
1589544001.9847038,-0.56,-2.09,8.71,0.6111111111111112,-0.2411111111111111,-0.7655555555555555,-0.5,6.0625,-105.5625
1589544001.991582,-0.74,-2.43,9.34,0.6111111111111112,-0.2411111111111111,-0.7655555555555555,-2.375,3.4375,-123.6875
1589544002.00571,-0.61,-2.44,8.7,0.6111111111111112,-0.2411111111111111,-0.7655555555555555,-1.1875,6.9375,-139.125
1589544002.0122714,-0.98,-2.72,9.06,0.6111111111111112,-0.2411111111111111,-0.7655555555555555,-0.0625,8.0,-152.3125
1589544002.0251772,-0.83,-2.7,8.63,0.6111111111111112,-0.2411111111111111,-0.7655555555555555,-0.6875,8.375,-164.75
1589544002.0310714,-1.06,-3.02,9.29,0.5755555555555556,-0.17,-0.78,-2.4375,5.6875,-176.9375
1589544002.0451498,-1.15,-3.1,8.99,0.5755555555555556,-0.17,-0.78,-1.1875,9.5625,-185.125
1589544002.051854,-1.37,-3.31,8.84,0.5755555555555556,-0.17,-0.78,-0.5625,10.75,-190.625
1589544002.0654385,-1.09,-3.2,8.94,0.5755555555555556,-0.17,-0.78,-1.5625,8.0625,-196.1875
1589544002.0731564,-1.09,-3.22,9.16,0.5755555555555556,-0.17,-0.78,-3.375,6.5,-201.1875
1589544002.0849905,-1.21,-3.3,9.01,0.6088888888888889,-0.07777777777777778,-0.7444444444444445,-1.5625,9.3125,-202.625
1589544002.0918875,-1.24,-3.41,8.76,0.6088888888888889,-0.07777777777777778,-0.7444444444444445,-0.125,10.125,-202.125
1589544002.1015186,-1.28,-3.69,8.75,0.6088888888888889,-0.07777777777777778,-0.7444444444444445,-0.75,10.25,-200.4375
1589544002.1117284,-1.01,-3.65,8.49,0.6088888888888889,-0.07777777777777778,-0.7444444444444445,-1.1875,9.3125,-197.125
1589544002.1236427,-1.16,-3.83,9.09,0.6088888888888889,-0.07777777777777778,-0.7444444444444445,-1.4375,7.3125,-193.8125
1589544002.1319125,-1.07,-3.54,9.09,0.59,-0.006666666666666667,-0.7733333333333333,-1.875,7.4375,-191.75
1589544002.1431744,-0.96,-3.71,9.06,0.59,-0.006666666666666667,-0.7733333333333333,-1.0625,8.0,-189.8125
1589544002.1560519,-2.69,-5.41,9.21,0.59,-0.006666666666666667,-0.7733333333333333,0.875,9.9375,-185.375
1589544002.1622224,-33.9,-28.08,19.69,0.59,-0.006666666666666667,-0.7733333333333333,7.375,87.625,-137.875
1589544002.1768405,-0.49,2.55,0.44,0.59,-0.006666666666666667,-0.7733333333333333,-66.375,-56.8125,-412.0625
1589544002.1832025,-0.22,-2.11,3.47,0.5811111111111111,0.12222222222222222,-0.7677777777777778,-67.5,-5.8125,-291.8125
1589544002.1960876,1.55,-3.21,22.47,0.5811111111111111,0.12222222222222222,-0.7677777777777778,22.5,-4.4375,-262.625
1589544002.2026007,-0.21,-1.57,2.23,0.5811111111111111,0.12222222222222222,-0.7677777777777778,109.0625,43.5,-237.0
1589544002.216229,0.45,-0.6,5.81,0.5811111111111111,0.12222222222222222,-0.7677777777777778,5.125,23.75,-190.625
1589544002.224188,1.54,-1.62,13.9,0.5811111111111111,0.12222222222222222,-0.7677777777777778,-35.6875,-11.125,-148.125
1589544002.2361932,0.85,-0.84,6.97,0.5377777777777778,0.23777777777777775,-0.7677777777777778,12.0625,16.875,-130.8125
1589544002.2423186,0.74,-2.42,10.48,0.5377777777777778,0.23777777777777775,-0.7677777777777778,-0.875,0.5,-111.25
1589544002.2522554,0.06,-2.55,8.08,0.5377777777777778,0.23777777777777775,-0.7677777777777778,-5.375,5.5625,-83.4375
1589544002.2627418,-0.06,-2.78,8.71,0.5377777777777778,0.23777777777777775,-0.7677777777777778,4.3125,3.875,-57.3125
1589544002.275734,-0.2,-3.09,9.49,0.5377777777777778,0.23777777777777775,-0.7677777777777778,-0.4375,1.9375,-31.3125
1589544002.281378,0.22,-2.66,8.62,0.5133333333333333,0.3111111111111111,-0.7388888888888889,-2.1875,1.1875,-9.375
1589544002.2923474,0.0,-2.81,9.42,0.5133333333333333,0.3111111111111111,-0.7388888888888889,-0.625,-0.875,0.875
1589544002.3030396,-0.17,-2.57,8.17,0.5133333333333333,0.3111111111111111,-0.7388888888888889,1.3125,1.25,10.75
1589544002.3155208,-0.36,-3.12,9.27,0.5133333333333333,0.3111111111111111,-0.7388888888888889,1.125,-1.625,19.5
1589544002.329962,-0.12,-2.89,8.25,0.5133333333333333,0.3111111111111111,-0.7388888888888889,2.8125,1.9375,32.25
1589544002.3368082,0.03,-3.03,9.3,0.4888888888888889,0.33555555555555555,-0.7533333333333333,-0.9375,-3.375,41.25
1589544002.3479064,0.01,-2.79,9.02,0.4888888888888889,0.33555555555555555,-0.7533333333333333,-0.6875,-1.0625,47.0
1589544002.3545985,5.83,-17.5,7.58,0.4888888888888889,0.33555555555555555,-0.7533333333333333,2.8125,-1.125,49.625
1589544002.3674278,-0.3,-16.04,10.59,0.4888888888888889,0.33555555555555555,-0.7533333333333333,-12.0,-18.6875,-26.3125
1589544002.375381,0.05,0.9,6.81,0.4888888888888889,0.33555555555555555,-0.7533333333333333,1.375,15.1875,-113.125
1589544002.387245,-0.84,-2.5,8.64,0.51,0.32,-0.7533333333333333,18.1875,21.375,-93.0625
1589544002.3934572,-0.86,-2.8,9.97,0.51,0.32,-0.7533333333333333,-12.9375,-5.3125,-57.625
1589544002.4038553,-0.53,-2.54,8.68,0.51,0.32,-0.7533333333333333,-3.8125,1.75,-28.4375
1589544002.4127595,1.9,-14.18,8.09,0.51,0.32,-0.7533333333333333,5.1875,0.5625,-25.9375
1589544002.4247258,-0.81,-2.47,9.47,0.51,0.32,-0.7533333333333333,-3.3125,3.0,-44.8125
1589544002.432211,0.35,-7.16,8.41,0.5044444444444445,0.3466666666666667,-0.7466666666666667,4.8125,3.3125,-23.625
1589544002.4471712,-0.75,-4.24,8.63,0.5044444444444445,0.3466666666666667,-0.7466666666666667,-3.6875,1.0,-15.5
1589544002.4537964,0.01,-4.86,8.99,0.5044444444444445,0.3466666666666667,-0.7466666666666667,-0.5625,-1.1875,-4.125
1589544002.4665654,-0.04,-4.1,8.5,0.5044444444444445,0.3466666666666667,-0.7466666666666667,2.1875,2.0,0.0625
1589544002.48085,0.25,-4.13,9.06,0.5044444444444445,0.3466666666666667,-0.7466666666666667,0.0625,-1.0625,0.0
1589544002.48703,0.11,-4.18,8.79,0.4833333333333333,0.3622222222222222,-0.7466666666666667,-0.375,0.1875,0.0625
1589544002.496599,0.13,-4.21,8.73,0.4833333333333333,0.3622222222222222,-0.7466666666666667,-0.5,0.25,-0.0625
1589544002.5034392,0.15,-4.23,8.7,0.4833333333333333,0.3622222222222222,-0.7466666666666667,-0.875,-0.0625,-0.0625
1589544002.5186036,0.11,-4.2,8.68,0.4833333333333333,0.3622222222222222,-0.7466666666666667,0.375,0.1875,0.0625
1589544002.5264606,0.16,-4.13,8.89,0.4833333333333333,0.3622222222222222,-0.7466666666666667,0.8125,0.1875,0.125
1589544002.539534,0.13,-4.12,8.82,0.4977777777777778,0.3555555555555556,-0.7244444444444444,0.25,0.25,0.0625
1589544002.546361,0.16,-4.18,8.85,0.4977777777777778,0.3555555555555556,-0.7244444444444444,-0.625,0.0,0.0
1589544002.5570874,0.1,-4.18,8.67,0.4977777777777778,0.3555555555555556,-0.7244444444444444,-0.3125,0.0,0.125
1589544002.5644493,0.15,-4.18,8.78,0.4977777777777778,0.3555555555555556,-0.7244444444444444,0.0,-0.125,0.0625
1589544002.5779808,0.12,-4.15,8.8,0.4977777777777778,0.3555555555555556,-0.7244444444444444,0.4375,0.1875,-0.125
1589544002.5844588,0.14,-4.07,8.91,0.4833333333333333,0.3555555555555556,-0.7388888888888889,0.3125,-0.0625,0.0625
1589544002.5947747,0.11,-4.15,8.82,0.4833333333333333,0.3555555555555556,-0.7388888888888889,-0.6875,-0.0625,0.0
1589544002.6051662,0.14,-4.19,8.69,0.4833333333333333,0.3555555555555556,-0.7388888888888889,-0.875,-0.25,0.0625
1589544002.6168725,0.13,-4.2,8.75,0.4833333333333333,0.3555555555555556,-0.7388888888888889,-0.0625,-0.0625,0.0
1589544002.6327386,0.13,-4.17,8.81,0.4833333333333333,0.3555555555555556,-0.7388888888888889,0.5,0.25,0.0
1589544002.6392508,0.12,-4.13,8.84,0.4833333333333333,0.3555555555555556,-0.7466666666666667,0.5625,0.1875,0.125
1589544002.6476052,0.11,-4.16,8.77,0.4833333333333333,0.3555555555555556,-0.7466666666666667,-0.125,0.3125,0.0625
1589544002.654507,0.14,-4.2,8.71,0.4833333333333333,0.3555555555555556,-0.7466666666666667,-0.6875,0.25,0.0
1589544002.6697116,0.14,-4.21,8.72,0.4833333333333333,0.3555555555555556,-0.7466666666666667,-0.1875,0.125,0.125
1589544002.6776526,0.14,-4.15,8.86,0.4833333333333333,0.3555555555555556,-0.7466666666666667,0.125,0.0,0.0625
1589544002.6896634,0.14,-4.13,8.84,0.4711111111111111,0.3622222222222222,-0.7533333333333333,0.375,0.0625,0.0
1589544002.6962724,0.12,-4.12,8.87,0.4711111111111111,0.3622222222222222,-0.7533333333333333,0.125,0.125,-0.125
1589544002.7062721,0.11,-4.15,8.72,0.4711111111111111,0.3622222222222222,-0.7533333333333333,-0.8125,0.0,0.0625
1589544002.7158582,0.12,-4.2,8.75,0.4711111111111111,0.3622222222222222,-0.7533333333333333,-0.75,-0.0625,0.0
1589544002.7293437,0.15,-4.17,8.79,0.4711111111111111,0.3622222222222222,-0.7533333333333333,0.125,-0.0625,0.0
1589544002.7356534,0.15,-4.16,8.86,0.4833333333333333,0.3555555555555556,-0.7388888888888889,0.375,0.0,0.0
1589544002.7465408,0.11,-4.16,8.8,0.4833333333333333,0.3555555555555556,-0.7388888888888889,0.3125,0.125,-0.0625
1589544002.7558668,0.15,-4.17,8.71,0.4833333333333333,0.3555555555555556,-0.7388888888888889,-0.1875,0.0,0.0
1589544002.765549,0.11,-4.21,8.72,0.4833333333333333,0.3555555555555556,-0.7388888888888889,-0.4375,0.0625,0.0625
1589544002.7785413,0.14,-4.18,8.78,0.4833333333333333,0.3555555555555556,-0.7388888888888889,0.25,0.0625,-0.0625
1589544002.7895355,0.13,-4.13,8.84,0.4777777777777778,0.3622222222222222,-0.7388888888888889,0.5625,0.125,-0.125
1589544002.7954097,0.13,-4.14,8.85,0.4777777777777778,0.3622222222222222,-0.7388888888888889,0.25,0.0625,-0.125
1589544002.8053927,0.13,-4.15,8.75,0.4777777777777778,0.3622222222222222,-0.7388888888888889,-0.125,0.0625,0.125
1589544002.820883,0.13,-4.2,8.73,0.4777777777777778,0.3622222222222222,-0.7388888888888889,-0.5625,0.0625,0.1875
1589544002.8283932,0.13,-4.18,8.79,0.4777777777777778,0.3622222222222222,-0.7388888888888889,-0.4375,0.0625,0.0
1589544002.8407555,0.14,-4.17,8.81,0.4833333333333333,0.3744444444444445,-0.7466666666666667,0.3125,0.1875,0.0
1589544002.8469856,0.15,-4.15,8.85,0.4833333333333333,0.3744444444444445,-0.7466666666666667,0.25,-0.0625,0.0625
1589544002.8599718,0.15,-4.17,8.72,0.4833333333333333,0.3744444444444445,-0.7466666666666667,-0.0625,0.0,-0.0625
1589544002.8662207,0.14,-4.17,8.72,0.4833333333333333,0.3744444444444445,-0.7466666666666667,-0.4375,0.0,0.0625
1589544002.8780982,0.13,-4.21,8.79,0.4833333333333333,0.3744444444444445,-0.7466666666666667,-0.3125,-0.0625,0.0625
1589544002.885451,0.12,-4.18,8.81,0.4777777777777778,0.3688888888888889,-0.7533333333333333,0.25,-0.0625,0.0625
1589544002.9000313,0.13,-4.14,8.81,0.4777777777777778,0.3688888888888889,-0.7533333333333333,0.3125,-0.1875,-0.0625
1589544002.9057667,0.14,-4.16,8.71,0.4777777777777778,0.3688888888888889,-0.7533333333333333,0.0,0.0,0.0
1589544002.9160898,0.15,-4.15,8.74,0.4777777777777778,0.3688888888888889,-0.7533333333333333,-0.25,-0.0625,0.0625
1589544002.928599,0.14,-4.19,8.79,0.4777777777777778,0.3688888888888889,-0.7533333333333333,-0.4375,0.0625,0.0
1589544002.939891,0.14,-4.15,8.83,0.4655555555555556,0.3477777777777778,-0.7244444444444444,-0.0625,0.0,0.0
1589544002.9464345,0.12,-4.15,8.86,0.4655555555555556,0.3477777777777778,-0.7244444444444444,0.4375,0.1875,0.0
1589544002.9565914,0.13,-4.13,8.76,0.4655555555555556,0.3477777777777778,-0.7244444444444444,0.125,0.1875,-0.125
1589544002.9708395,0.14,-4.17,8.78,0.4655555555555556,0.3477777777777778,-0.7244444444444444,-0.3125,0.125,0.0
1589544002.9787571,0.14,-4.19,8.76,0.4655555555555556,0.3477777777777778,-0.7244444444444444,-0.4375,0.125,0.0625
1589544002.986186,0.14,-4.18,8.81,0.5044444444444445,0.3477777777777778,-0.7466666666666667,-0.0625,0.125,0.1875
1589544002.9978466,0.11,-4.14,8.81,0.5044444444444445,0.3477777777777778,-0.7466666666666667,0.125,0.125,0.0
1589544003.0074186,0.15,-4.15,8.75,0.5044444444444445,0.3477777777777778,-0.7466666666666667,0.0625,0.1875,0.125
1589544003.0192144,0.12,-4.16,8.76,0.5044444444444445,0.3477777777777778,-0.7466666666666667,-0.25,0.0625,0.0625
1589544003.0291414,0.14,-4.17,8.78,0.5044444444444445,0.3477777777777778,-0.7466666666666667,-0.375,-0.25,0.0625
1589544003.0368214,0.15,-4.19,8.82,0.4711111111111111,0.3688888888888889,-0.7388888888888889,-0.375,0.0625,0.125
1589544003.0512242,0.13,-4.18,8.84,0.4711111111111111,0.3688888888888889,-0.7388888888888889,0.125,0.0,0.125
1589544003.0568955,0.15,-4.15,8.76,0.4711111111111111,0.3688888888888889,-0.7388888888888889,0.25,0.125,0.0
1589544003.0666506,0.14,-4.15,8.75,0.4711111111111111,0.3688888888888889,-0.7388888888888889,0.0,0.1875,0.0
1589544003.079537,0.11,-4.17,8.79,0.4711111111111111,0.3688888888888889,-0.7388888888888889,-0.375,0.0,0.0
1589544003.090527,0.12,-4.18,8.79,0.4833333333333333,0.3622222222222222,-0.7388888888888889,-0.25,-0.1875,-0.0625
1589544003.0972662,0.12,-4.17,8.83,0.4833333333333333,0.3622222222222222,-0.7388888888888889,0.0,0.0625,0.0
1589544003.1103756,0.15,-4.16,8.75,0.4833333333333333,0.3622222222222222,-0.7388888888888889,0.1875,-0.0625,0.0625
1589544003.1167386,0.12,-4.17,8.76,0.4833333333333333,0.3622222222222222,-0.7388888888888889,-0.125,-0.125,0.0
1589544003.1291187,0.13,-4.17,8.79,0.4833333333333333,0.3622222222222222,-0.7388888888888889,-0.3125,-0.125,0.0625
1589544003.1372828,0.13,-4.18,8.78,0.4833333333333333,0.3622222222222222,-0.7533333333333333,-0.25,0.0,0.0625
1589544003.149156,0.13,-4.19,8.8,0.4833333333333333,0.3622222222222222,-0.7533333333333333,-0.125,0.0625,-0.125
1589544003.1574981,0.14,-4.16,8.75,0.4833333333333333,0.3622222222222222,-0.7533333333333333,0.25,0.1875,0.125
1589544003.1673312,0.13,-4.15,8.76,0.4833333333333333,0.3622222222222222,-0.7533333333333333,0.125,0.125,-0.0625
1589544003.1797335,0.13,-4.17,8.81,0.4833333333333333,0.3622222222222222,-0.7533333333333333,-0.0625,0.0625,0.0
1589544003.1879547,0.14,-4.19,8.79,0.4833333333333333,0.3622222222222222,-0.7466666666666667,-0.25,0.125,0.125
1589544003.2026124,0.13,-4.18,8.84,0.4833333333333333,0.3622222222222222,-0.7466666666666667,-0.125,-0.0625,0.0625
1589544003.2085512,0.11,-4.17,8.72,0.4833333333333333,0.3622222222222222,-0.7466666666666667,0.125,0.125,0.0625
1589544003.2229097,0.12,-4.14,8.78,0.4833333333333333,0.3622222222222222,-0.7466666666666667,0.1875,0.125,0.0
1589544003.2306695,0.14,-4.15,8.79,0.4833333333333333,0.3622222222222222,-0.7466666666666667,-0.125,0.1875,0.1875
1589544003.247432,0.12,-4.18,8.76,0.4777777777777778,0.3555555555555556,-0.7466666666666667,-0.0625,0.0,0.0625
1589544003.261529,0.13,-4.16,8.71,0.4777777777777778,0.3555555555555556,-0.7466666666666667,0.0,0.125,0.125
1589544003.2676096,0.13,-4.15,8.78,0.4777777777777778,0.3555555555555556,-0.7466666666666667,0.375,0.0,0.125
1589544003.2803767,0.16,-4.18,8.81,0.4777777777777778,0.3555555555555556,-0.7466666666666667,0.0625,0.125,0.0
1589544003.2882395,0.13,-4.18,8.8,0.4655555555555556,0.3622222222222222,-0.7388888888888889,-0.25,0.125,0.125
1589544003.3003428,0.13,-4.16,8.79,0.4655555555555556,0.3622222222222222,-0.7388888888888889,-0.25,0.125,0.125
1589544003.3079019,0.16,-4.18,8.72,0.4655555555555556,0.3622222222222222,-0.7388888888888889,0.0,0.0,-0.0625
1589544003.3181722,0.13,-4.17,8.76,0.4655555555555556,0.3622222222222222,-0.7388888888888889,0.1875,0.125,0.0
1589544003.3323085,0.12,-4.16,8.83,0.4655555555555556,0.3622222222222222,-0.7388888888888889,0.1875,0.1875,0.0625
1589544003.3402126,0.13,-4.18,8.82,0.4655555555555556,0.3555555555555556,-0.7244444444444444,-0.25,-0.0625,0.0625
