time,acc_x,acc_y,acc_z,mag_x,mag_y,mag_z,gyr_x,gyr_y,gyr_z
1589541830.3323104,-0.18,-4.0,8.73,0.4066666666666667,0.3322222222222222,-0.6177777777777778,-3.6875,-5.5625,-0.6875
1589541830.3436446,-0.24,-4.43,8.79,0.4066666666666667,0.3322222222222222,-0.6177777777777778,4.6875,3.3125,1.4375
1589541830.3506358,-0.1,-4.42,8.72,0.4388888888888889,0.3511111111111111,-0.6177777777777778,4.8125,2.5625,-3.4375
1589541830.360494,-0.05,-4.33,8.6,0.4388888888888889,0.3511111111111111,-0.6177777777777778,-1.4375,1.8125,-1.6875
1589541830.3709342,-0.07,-4.29,8.55,0.4388888888888889,0.3511111111111111,-0.6177777777777778,4.8125,1.4375,-7.5
1589541830.3810875,-0.11,-4.26,8.57,0.4388888888888889,0.3511111111111111,-0.6177777777777778,-1.1875,-2.8125,-2.0625
1589541830.3937087,-0.1,-4.3,8.71,0.4388888888888889,0.3511111111111111,-0.6177777777777778,4.6875,1.5625,0.4375
1589541830.400456,-0.12,-4.31,8.78,0.4188888888888889,0.3511111111111111,-0.6255555555555555,0.9375,-1.8125,0.1875
1589541830.411351,-0.14,-4.34,8.81,0.4188888888888889,0.3511111111111111,-0.6255555555555555,-2.4375,-1.0625,-3.6875
1589541830.4233587,-0.13,-4.31,8.74,0.4188888888888889,0.3511111111111111,-0.6255555555555555,-0.8125,4.9375,-7.0
1589541830.4339545,-0.1,-4.17,8.84,0.4188888888888889,0.3511111111111111,-0.6255555555555555,-0.1875,6.8125,-11.75
1589541830.4435046,-0.08,-4.05,8.84,0.4188888888888889,0.3511111111111111,-0.6255555555555555,-0.6875,3.4375,-5.3125
1589541830.4554946,-0.15,-3.78,8.85,0.4133333333333333,0.3511111111111111,-0.5822222222222222,0.1875,1.1875,2.3125
1589541830.462255,-0.11,-4.12,8.75,0.4133333333333333,0.3511111111111111,-0.5822222222222222,0.9375,4.3125,-11.75
1589541830.4756665,-0.07,-4.21,8.6,0.4133333333333333,0.3511111111111111,-0.5822222222222222,3.9375,0.5625,0.5625
1589541830.4817276,-0.04,-4.2,8.64,0.4133333333333333,0.3511111111111111,-0.5822222222222222,-9.125,-1.5625,11.625
1589541830.4937108,-0.33,-3.54,8.64,0.4133333333333333,0.3511111111111111,-0.5822222222222222,2.1875,6.1875,0.6875
1589541830.500556,-0.41,-3.52,8.74,0.4133333333333333,0.3588888888888889,-0.6111111111111112,-5.1875,-2.4375,15.4375
1589541830.5144124,-0.39,-3.43,8.79,0.4133333333333333,0.3588888888888889,-0.6111111111111112,-2.8125,-2.5625,19.1875
1589541830.5206814,-0.33,-3.0,8.8,0.4133333333333333,0.3588888888888889,-0.6111111111111112,1.9375,-11.25,24.625
1589541830.5347586,-0.54,-2.82,8.83,0.4133333333333333,0.3588888888888889,-0.6111111111111112,-0.1875,2.4375,35.0
1589541830.5441208,-0.59,-2.81,8.96,0.4133333333333333,0.3588888888888889,-0.6111111111111112,-0.4375,1.9375,38.75
1589541830.5548134,-0.58,-2.87,8.92,0.4188888888888889,0.3511111111111111,-0.6044444444444445,-3.3125,-3.0625,64.875
1589541830.5607965,-0.52,-2.96,8.81,0.4188888888888889,0.3511111111111111,-0.6044444444444445,-1.1875,2.0625,61.8125
1589541830.5709293,-0.51,-3.11,8.68,0.4188888888888889,0.3511111111111111,-0.6044444444444445,-4.0625,-6.8125,80.375
1589541830.5823689,-0.5,-3.14,8.67,0.4188888888888889,0.3511111111111111,-0.6044444444444445,-0.1875,-6.8125,85.1875
1589541830.594147,-0.55,-3.27,8.72,0.4188888888888889,0.3511111111111111,-0.6044444444444445,0.0625,-3.6875,89.9375
1589541830.601258,-0.57,-3.26,8.8,0.4188888888888889,0.34444444444444444,-0.5966666666666667,-5.1875,-3.8125,87.5625
1589541830.612641,-0.59,-3.34,8.76,0.4188888888888889,0.34444444444444444,-0.5966666666666667,-5.5625,-6.8125,94.25
1589541830.6213665,-0.57,-3.39,8.71,0.4188888888888889,0.34444444444444444,-0.5966666666666667,-7.5,-5.0625,102.4375
1589541830.6332178,-0.6,-3.42,8.76,0.4188888888888889,0.34444444444444444,-0.5966666666666667,-4.4375,-3.9375,98.8125
1589541830.6448536,-0.66,-3.47,8.84,0.4188888888888889,0.34444444444444444,-0.5966666666666667,-3.0625,-7.625,110.75
1589541830.6523252,-0.7,-3.45,8.81,0.4388888888888889,0.32,-0.6177777777777778,-7.0,-4.9375,112.5625
1589541830.6653216,-0.7,-3.38,8.86,0.4388888888888889,0.32,-0.6177777777777778,-1.3125,-5.5625,113.1875
1589541830.6727214,-0.63,-3.51,8.66,0.4388888888888889,0.32,-0.6177777777777778,-3.5625,-1.0625,112.9375
1589541830.686174,-0.72,-3.51,8.6,0.4388888888888889,0.32,-0.6177777777777778,-1.9375,-6.1875,102.4375
1589541830.6954632,-0.86,-3.59,8.78,0.4388888888888889,0.32,-0.6177777777777778,0.0625,-3.0625,115.1875
1589541830.7036624,-0.98,-3.65,8.73,0.4777777777777778,0.2733333333333333,-0.6322222222222222,-4.0625,-4.8125,110.25
1589541830.7120132,-0.91,-3.55,8.71,0.4777777777777778,0.2733333333333333,-0.6322222222222222,-0.6875,-1.3125,114.4375
1589541830.7235014,-0.94,-3.59,8.71,0.4777777777777778,0.2733333333333333,-0.6322222222222222,-3.5625,-4.8125,119.625
1589541830.732262,-0.93,-3.45,8.73,0.4777777777777778,0.2733333333333333,-0.6322222222222222,1.0625,-7.125,114.8125
1589541830.7458026,-0.95,-3.54,8.85,0.4777777777777778,0.2733333333333333,-0.6322222222222222,0.0625,-6.5625,115.1875
1589541830.7514873,-1.1,-3.58,8.86,0.5044444444444445,0.2344444444444445,-0.6177777777777778,-4.4375,-7.0,116.5625
1589541830.7608793,-1.22,-3.62,8.86,0.5044444444444445,0.2344444444444445,-0.6177777777777778,-3.9375,-11.75,122.125
1589541830.7667074,-1.22,-3.62,8.86,0.5044444444444445,0.2344444444444445,-0.6177777777777778,-3.9375,-11.75,122.125
1589541830.7786114,-1.27,-3.65,8.69,0.5044444444444445,0.2344444444444445,-0.6177777777777778,-0.8125,-8.625,119.25
1589541830.785585,-1.42,-3.54,8.74,0.5044444444444445,0.2344444444444445,-0.6177777777777778,0.0625,-4.1875,101.4375
1589541830.8002784,-1.4,-3.4,8.74,0.5044444444444445,0.2344444444444445,-0.6177777777777778,-8.875,-1.4375,104.4375
1589541830.8062785,-1.41,-3.49,8.78,0.5111111111111111,0.1811111111111111,-0.6466666666666666,-4.6875,-3.5625,113.9375
1589541830.8137364,-1.51,-3.51,8.78,0.5111111111111111,0.1811111111111111,-0.6466666666666666,2.3125,-8.125,108.0
1589541830.8218768,-1.6,-3.43,8.65,0.5111111111111111,0.1811111111111111,-0.6466666666666666,3.9375,0.8125,108.125
1589541830.837284,-1.59,-3.39,8.73,0.5111111111111111,0.1811111111111111,-0.6466666666666666,3.0625,-9.75,104.6875
1589541830.8454945,-1.6,-3.37,8.85,0.5111111111111111,0.1811111111111111,-0.6466666666666666,3.1875,-1.6875,103.4375
1589541830.8557456,-1.85,-3.54,8.86,0.5244444444444445,0.12777777777777774,-0.6533333333333333,0.9375,-1.0625,111.125
1589541830.8619807,-1.88,-3.53,8.81,0.5244444444444445,0.12777777777777774,-0.6533333333333333,0.9375,-5.1875,104.4375
1589541830.8724186,-1.99,-3.56,8.76,0.5244444444444445,0.12777777777777774,-0.6533333333333333,-2.1875,-0.1875,109.5
1589541830.883106,-2.02,-3.56,8.78,0.5244444444444445,0.12777777777777774,-0.6533333333333333,-0.0625,-4.0625,118.1875
1589541830.8959033,-2.04,-3.5,8.78,0.5244444444444445,0.12777777777777774,-0.6533333333333333,3.3125,-3.0625,105.625
1589541830.9023564,-1.96,-3.42,8.84,0.5111111111111111,0.10111111111111112,-0.6677777777777778,-4.9375,-5.9375,109.625
1589541830.9139216,-2.05,-3.43,8.78,0.5111111111111111,0.10111111111111112,-0.6677777777777778,-6.8125,-2.9375,108.125
1589541830.9242961,-2.19,-3.5,8.73,0.5111111111111111,0.10111111111111112,-0.6677777777777778,1.8125,-3.0625,100.3125
1589541830.934267,-2.27,-3.4,8.57,0.5111111111111111,0.10111111111111112,-0.6677777777777778,0.1875,-7.375,100.3125
1589541830.9507234,-2.43,-3.47,8.94,0.5111111111111111,0.10111111111111112,-0.6677777777777778,-0.5625,-5.3125,106.5
1589541830.9560895,-2.41,-3.41,8.93,0.5433333333333333,0.04777777777777778,-0.68,-0.5625,0.6875,98.9375
1589541830.9664707,-2.5,-3.21,8.75,0.5433333333333333,0.04777777777777778,-0.68,-2.1875,-5.3125,107.375
1589541830.9726207,-2.61,-3.28,9.15,0.5433333333333333,0.04777777777777778,-0.68,0.0625,-7.625,105.5
1589541830.978143,-2.61,-3.28,9.15,0.5433333333333333,0.04777777777777778,-0.68,0.0625,-7.625,105.5
1589541830.9888012,-2.68,-3.21,8.57,0.5433333333333333,0.04777777777777778,-0.68,-9.625,-16.3125,107.375
1589541830.9963224,-2.73,-3.11,9.18,0.5433333333333333,0.04777777777777778,-0.68,4.5625,2.0625,114.6875
1589541831.0029185,-2.92,-3.24,8.91,0.5511111111111111,0.008888888888888889,-0.6888888888888889,-1.4375,-5.1875,116.1875
1589541831.014607,-2.94,-3.25,8.6,0.5511111111111111,0.008888888888888889,-0.6888888888888889,-0.9375,-8.625,110.25
1589541831.024864,-3.0,-3.21,8.75,0.5511111111111111,0.008888888888888889,-0.6888888888888889,-6.5625,4.3125,118.3125
1589541831.033207,-3.06,-3.12,8.8,0.5511111111111111,0.008888888888888889,-0.6888888888888889,-2.1875,-6.6875,119.5
1589541831.0455306,-3.02,-3.02,8.81,0.5511111111111111,0.008888888888888889,-0.6888888888888889,-0.8125,-3.1875,119.375
1589541831.0531795,-3.01,-2.88,8.84,0.5222222222222223,-0.042222222222222223,-0.7088888888888889,5.1875,-1.9375,113.4375
1589541831.067706,-3.15,-2.84,9.02,0.5222222222222223,-0.042222222222222223,-0.7088888888888889,-0.4375,-5.0625,126.4375
1589541831.0739784,-3.22,-2.88,8.85,0.5222222222222223,-0.042222222222222223,-0.7088888888888889,-2.9375,-8.625,118.4375
1589541831.0847154,-3.26,-2.84,8.71,0.5222222222222223,-0.042222222222222223,-0.7088888888888889,-1.4375,-11.25,131.6875
1589541831.0959663,-3.19,-2.78,8.77,0.5222222222222223,-0.042222222222222223,-0.7088888888888889,1.8125,-9.875,129.0625
1589541831.1071546,-3.29,-2.58,9.13,0.51,-0.09333333333333334,-0.7155555555555555,5.5625,-3.8125,127.0625
1589541831.1199439,-3.58,-2.66,9.08,0.51,-0.09333333333333334,-0.7155555555555555,-7.25,7.0,140.9375
1589541831.126806,-3.49,-2.65,8.32,0.51,-0.09333333333333334,-0.7155555555555555,-4.8125,-11.5,140.8125
1589541831.140109,-3.38,-2.56,8.82,0.51,-0.09333333333333334,-0.7155555555555555,1.0625,-13.125,134.375
1589541831.1463385,-3.56,-2.41,8.78,0.51,-0.09333333333333334,-0.7155555555555555,4.9375,-7.125,144.5625
1589541831.1535118,-3.54,-2.34,8.88,0.4977777777777778,-0.14333333333333334,-0.73,-6.3125,-2.3125,143.1875
1589541831.1657078,-3.55,-2.31,8.95,0.4977777777777778,-0.14333333333333334,-0.73,-1.5625,-9.875,155.1875
1589541831.1748412,-3.6,-2.2,8.82,0.4977777777777778,-0.14333333333333334,-0.73,-4.0625,-1.4375,145.0625
1589541831.184575,-3.48,-2.07,8.58,0.4977777777777778,-0.14333333333333334,-0.73,1.3125,-9.375,145.3125
1589541831.1964846,-3.36,-1.98,8.89,0.4977777777777778,-0.14333333333333334,-0.73,4.5625,-2.6875,141.1875
1589541831.2030895,-3.42,-1.97,9.19,0.4488888888888889,-0.1955555555555556,-0.7511111111111111,1.1875,-4.4375,153.375
1589541831.208634,-3.42,-1.97,9.19,0.4488888888888889,-0.1955555555555556,-0.7511111111111111,1.1875,-4.4375,153.375
1589541831.219429,-3.63,-1.88,8.71,0.4488888888888889,-0.1955555555555556,-0.7511111111111111,-1.6875,-3.9375,155.1875
1589541831.2254946,-3.47,-1.8,8.71,0.4488888888888889,-0.1955555555555556,-0.7511111111111111,-8.5,-11.125,143.1875
1589541831.2348745,-3.29,-1.68,8.77,0.4488888888888889,-0.1955555555555556,-0.7511111111111111,-2.1875,-9.0,153.375
1589541831.2462153,-3.09,-1.48,8.98,0.4488888888888889,-0.1955555555555556,-0.7511111111111111,-4.6875,-9.125,142.9375
1589541831.2573655,-3.07,-1.45,9.13,0.43,-0.2577777777777778,-0.7655555555555555,0.8125,-6.6875,144.3125
1589541831.265176,-3.37,-1.37,9.0,0.43,-0.2577777777777778,-0.7655555555555555,-7.25,-10.0,138.75
1589541831.2752323,-3.34,-1.28,8.76,0.43,-0.2577777777777778,-0.7655555555555555,-4.6875,-12.875,141.6875
1589541831.2842484,-2.82,-1.17,9.15,0.43,-0.2577777777777778,-0.7655555555555555,3.1875,-8.625,136.75
1589541831.2967706,-3.21,-1.08,8.83,0.43,-0.2577777777777778,-0.7655555555555555,-2.1875,-11.125,139.625
1589541831.3045619,-3.22,-1.04,9.1,0.3511111111111111,-0.35,-0.7944444444444444,0.1875,0.4375,130.4375
1589541831.317002,-3.32,-1.03,9.02,0.3511111111111111,-0.35,-0.7944444444444444,-0.6875,-3.1875,129.9375
1589541831.3297675,-3.3,-0.84,8.61,0.3511111111111111,-0.35,-0.7944444444444444,0.3125,-10.25,116.3125
1589541831.3364074,-3.35,-0.86,9.07,0.3511111111111111,-0.35,-0.7944444444444444,0.3125,-6.1875,109.625
1589541831.3509169,-3.53,-0.77,8.91,0.3511111111111111,-0.35,-0.7944444444444444,0.5625,-8.5,117.0625
1589541831.3565302,-3.58,-0.6,8.91,0.28,-0.3955555555555556,-0.7866666666666666,3.3125,-1.1875,98.6875
1589541831.3694932,-3.63,-0.56,9.0,0.28,-0.3955555555555556,-0.7866666666666666,-0.5625,1.4375,110.0
1589541831.3756812,-3.8,-0.45,8.87,0.28,-0.3955555555555556,-0.7866666666666666,1.3125,-1.8125,93.75
1589541831.3858805,-3.83,-0.4,8.78,0.28,-0.3955555555555556,-0.7866666666666666,-2.4375,-5.8125,99.3125
1589541831.3970187,-3.82,-0.26,9.0,0.28,-0.3955555555555556,-0.7866666666666666,9.5,-0.0625,87.1875
1589541831.4057238,-3.79,-0.21,8.89,0.22333333333333333,-0.4388888888888889,-0.78,-3.0625,-4.5625,84.1875
1589541831.4157653,-3.75,-0.2,9.02,0.22333333333333333,-0.4388888888888889,-0.78,-7.125,-2.9375,81.625
1589541831.4260745,-3.47,-0.06,8.89,0.22333333333333333,-0.4388888888888889,-0.78,-7.375,-4.4375,74.4375
1589541831.4354155,-3.63,0.0,8.92,0.22333333333333333,-0.4388888888888889,-0.78,-2.0625,-1.6875,61.6875
1589541831.4472394,-3.59,-0.01,8.93,0.22333333333333333,-0.4388888888888889,-0.78,3.0625,1.6875,56.0625
1589541831.454799,-3.39,-0.05,9.07,0.16666666666666666,-0.48,-0.7866666666666666,0.5625,-0.4375,56.3125
1589541831.4692812,-3.59,0.1,8.89,0.16666666666666666,-0.48,-0.7866666666666666,-2.8125,-1.5625,56.8125
1589541831.4763095,-3.49,0.06,8.82,0.16666666666666666,-0.48,-0.7866666666666666,3.9375,-1.6875,52.25
1589541831.4888356,-3.5,0.08,9.09,0.16666666666666666,-0.48,-0.7866666666666666,7.75,-1.0625,60.5625
1589541831.4995148,-3.99,0.32,8.93,0.16666666666666666,-0.48,-0.7866666666666666,3.9375,-9.75,47.6875
1589541831.506198,-3.61,0.24,8.93,0.06,-0.4866666666666667,-0.8011111111111111,0.0625,3.9375,42.3125
1589541831.5208776,-3.63,0.23,9.2,0.06,-0.4866666666666667,-0.8011111111111111,-1.8125,0.0625,34.5625
1589541831.5271895,-3.28,0.29,8.77,0.06,-0.4866666666666667,-0.8011111111111111,-5.1875,-0.9375,30.1875
1589541831.5399928,-3.65,0.29,9.09,0.06,-0.4866666666666667,-0.8011111111111111,1.5625,-2.3125,28.5625
1589541831.5486894,-3.75,0.38,9.0,0.06,-0.4866666666666667,-0.8011111111111111,3.9375,5.0625,17.5625
1589541831.556992,-3.67,0.4,8.93,0.03,-0.4655555555555556,-0.7033333333333334,-6.6875,-2.3125,25.625
1589541831.5663786,-3.42,0.26,9.09,0.03,-0.4655555555555556,-0.7033333333333334,2.6875,-2.4375,5.9375
1589541831.5777256,-3.6,0.41,8.92,0.03,-0.4655555555555556,-0.7033333333333334,5.4375,-1.5625,1.4375
1589541831.5879588,-3.74,0.48,8.88,0.03,-0.4655555555555556,-0.7033333333333334,-5.8125,6.6875,-2.9375
1589541831.5990431,-3.65,0.43,9.08,0.03,-0.4655555555555556,-0.7033333333333334,-2.1875,-0.5625,-7.875
1589541831.6061301,-3.73,0.4,9.13,0.045555555555555564,-0.4577777777777778,-0.6677777777777778,0.1875,3.6875,-15.9375
1589541831.6175172,-3.74,0.42,9.06,0.045555555555555564,-0.4577777777777778,-0.6677777777777778,7.125,2.6875,-23.5
1589541831.6271074,-3.89,0.47,8.72,0.045555555555555564,-0.4577777777777778,-0.6677777777777778,3.1875,-3.6875,-27.0
1589541831.6393907,-3.93,0.42,8.98,0.045555555555555564,-0.4577777777777778,-0.6677777777777778,5.0625,3.0625,-30.4375
1589541831.650594,-4.1,0.42,8.89,0.045555555555555564,-0.4577777777777778,-0.6677777777777778,-7.0,-2.3125,-29.5625
1589541831.6562972,-3.16,0.19,8.44,0.07777777777777778,-0.44222222222222224,-0.6588888888888889,7.0,0.1875,-30.0625
1589541831.6617525,-3.16,0.19,8.44,0.07777777777777778,-0.44222222222222224,-0.6588888888888889,7.0,0.1875,-30.0625
1589541831.6727715,-3.79,0.08,9.44,0.07777777777777778,-0.44222222222222224,-0.6588888888888889,3.9375,5.0625,-31.9375
1589541831.6791248,-3.67,0.24,8.75,0.07777777777777778,-0.44222222222222224,-0.6588888888888889,-0.6875,3.1875,-38.75
1589541831.691668,-3.62,0.49,9.16,0.07777777777777778,-0.44222222222222224,-0.6588888888888889,-2.8125,-1.0625,-43.1875
1589541831.6986609,-4.42,0.49,9.33,0.07777777777777778,-0.44222222222222224,-0.6588888888888889,-1.4375,3.4375,-53.125
1589541831.7110245,-4.17,0.44,8.81,0.12444444444444445,-0.4488888888888889,-0.6111111111111112,-1.1875,-1.0625,-53.375
1589541831.7171125,-3.81,0.16,9.01,0.12444444444444445,-0.4488888888888889,-0.6111111111111112,1.9375,-0.8125,-64.0
1589541831.7306724,-3.7,0.05,8.95,0.12444444444444445,-0.4488888888888889,-0.6111111111111112,4.3125,7.875,-72.0625
1589541831.737053,-3.75,-0.12,9.08,0.12444444444444445,-0.4488888888888889,-0.6111111111111112,-3.4375,3.3125,-79.375
1589541831.749696,-3.58,-0.03,8.99,0.12444444444444445,-0.4488888888888889,-0.6111111111111112,-0.6875,4.0625,-101.3125
1589541831.7562132,-3.73,-0.18,9.02,0.16333333333333333,-0.4711111111111111,-0.6255555555555555,4.3125,8.25,-106.0
1589541831.7668965,-3.73,-0.18,9.02,0.16333333333333333,-0.4711111111111111,-0.6255555555555555,4.3125,8.25,-106.0
1589541831.7770727,-3.58,-0.36,8.92,0.16333333333333333,-0.4711111111111111,-0.6255555555555555,2.0625,12.25,-122.75
1589541831.7869258,-4.17,-0.51,9.03,0.16333333333333333,-0.4711111111111111,-0.6255555555555555,-0.9375,3.8125,-109.0
1589541831.8041394,-4.06,-0.54,8.79,0.16333333333333333,-0.4711111111111111,-0.6255555555555555,-2.1875,3.3125,-106.5
1589541831.8108814,-4.35,-0.64,9.17,0.23555555555555555,-0.43,-0.6255555555555555,3.6875,6.6875,-104.3125
1589541831.8228807,-4.23,-0.58,9.0,0.23555555555555555,-0.43,-0.6255555555555555,-1.5625,-2.1875,-108.25
1589541831.8290207,-3.67,-0.81,9.36,0.23555555555555555,-0.43,-0.6255555555555555,2.6875,4.1875,-115.1875
1589541831.837755,-3.43,-0.79,8.85,0.23555555555555555,-0.43,-0.6255555555555555,4.9375,0.3125,-102.1875
1589541831.849349,-4.05,-0.78,8.96,0.23555555555555555,-0.43,-0.6255555555555555,4.3125,6.8125,-97.375
1589541831.8584006,-4.02,-0.88,8.9,0.2822222222222222,-0.41,-0.6322222222222222,4.6875,5.0625,-89.5625
1589541831.8674026,-4.15,-0.92,9.08,0.2822222222222222,-0.41,-0.6322222222222222,-1.9375,8.375,-85.9375
1589541831.8817909,-4.55,-0.91,8.87,0.2822222222222222,-0.41,-0.6322222222222222,2.0625,-3.6875,-88.1875
1589541831.887786,-3.79,-0.9,8.45,0.2822222222222222,-0.41,-0.6322222222222222,0.4375,5.9375,-82.375
1589541831.9009345,-4.34,-1.03,9.41,0.2822222222222222,-0.41,-0.6322222222222222,1.8125,11.5,-75.3125
1589541831.9077775,-4.3,-1.02,8.94,0.3144444444444445,-0.3911111111111111,-0.6555555555555556,-3.6875,0.3125,-66.5
1589541831.9177244,-4.88,-1.13,9.0,0.3144444444444445,-0.3911111111111111,-0.6555555555555556,-2.1875,0.9375,-51.25
1589541831.927763,-4.48,-1.11,8.7,0.3144444444444445,-0.3911111111111111,-0.6555555555555556,-2.9375,0.5625,-48.6875
1589541831.9396534,-4.37,-1.12,9.03,0.3144444444444445,-0.3911111111111111,-0.6555555555555556,3.1875,7.125,-46.6875
1589541831.9497626,-4.26,-1.15,9.01,0.3144444444444445,-0.3911111111111111,-0.6555555555555556,6.6875,4.0625,-30.9375
1589541831.9583926,-4.91,-1.25,8.97,0.3411111111111111,-0.3588888888888889,-0.64,2.4375,7.25,-21.75
1589541831.9741054,-4.65,-1.21,9.02,0.3411111111111111,-0.3588888888888889,-0.64,4.1875,1.3125,-11.25
1589541831.980223,-4.14,-1.1,8.58,0.3411111111111111,-0.3588888888888889,-0.64,1.4375,-3.5625,-8.5
1589541831.9886198,-4.15,-1.18,8.93,0.3411111111111111,-0.3588888888888889,-0.64,2.3125,-1.0625,-5.0625
1589541832.0002792,-4.31,-1.22,9.01,0.3411111111111111,-0.3588888888888889,-0.64,4.0625,3.0625,4.5625
1589541832.0126874,-3.9,-1.23,9.01,0.3744444444444445,-0.3511111111111111,-0.6411111111111111,-4.5625,1.5625,2.0625
1589541832.0184927,-3.68,-1.18,8.96,0.3744444444444445,-0.3511111111111111,-0.6411111111111111,1.9375,0.6875,1.9375
1589541832.0326376,-4.01,-1.19,8.96,0.3744444444444445,-0.3511111111111111,-0.6411111111111111,-0.5625,-1.0625,9.25
1589541832.038563,-3.95,-1.16,8.87,0.3744444444444445,-0.3511111111111111,-0.6411111111111111,-3.1875,-3.8125,11.625
1589541832.0511186,-3.49,-1.18,9.09,0.3744444444444445,-0.3511111111111111,-0.6411111111111111,-5.9375,1.3125,12.0
1589541832.0581985,-3.7,-1.19,8.99,0.3744444444444445,-0.38,-0.6555555555555556,-2.8125,-6.1875,8.375
1589541832.068334,-3.33,-1.07,8.63,0.3744444444444445,-0.38,-0.6555555555555556,-3.5625,1.0625,15.3125
1589541832.07597,-3.33,-1.07,8.63,0.3744444444444445,-0.38,-0.6555555555555556,-3.5625,1.0625,15.3125
1589541832.082282,-3.67,-1.27,9.09,0.3744444444444445,-0.38,-0.6555555555555556,2.4375,10.0,27.25
1589541832.0944002,-3.41,-1.21,8.93,0.3744444444444445,-0.38,-0.6555555555555556,-1.5625,-4.1875,15.0625
1589541832.1018775,-3.5,-1.22,8.68,0.3744444444444445,-0.38,-0.6555555555555556,-3.0625,-5.0625,8.75
1589541832.1142714,-3.07,-1.17,9.05,0.38,-0.3855555555555555,-0.67,-2.5625,-1.8125,19.9375
1589541832.1266696,-3.67,-1.29,9.3,0.38,-0.3855555555555555,-0.67,-0.3125,-2.1875,17.8125
1589541832.1325731,-2.65,-1.15,8.39,0.38,-0.3855555555555555,-0.67,-0.0625,-3.3125,1.0625
1589541832.1395845,-2.93,-1.18,9.32,0.38,-0.3855555555555555,-0.67,-1.3125,1.8125,-11.875
1589541832.1508975,-2.67,-1.13,8.97,0.38,-0.3855555555555555,-0.67,-5.9375,-3.8125,-1.1875
1589541832.1582491,-2.52,-1.08,8.68,0.3511111111111111,-0.4388888888888889,-0.6488888888888888,0.6875,7.625,-23.0
1589541832.1693568,-2.52,-1.08,8.68,0.3511111111111111,-0.4388888888888889,-0.6488888888888888,0.6875,7.625,-23.0
1589541832.1832213,-2.53,-1.09,8.71,0.3511111111111111,-0.4388888888888889,-0.6488888888888888,-5.1875,2.4375,-23.875
1589541832.1891973,-2.78,-1.24,8.88,0.3511111111111111,-0.4388888888888889,-0.6488888888888888,-0.6875,-1.6875,-38.0
1589541832.2031307,-2.61,-1.22,8.79,0.3511111111111111,-0.4388888888888889,-0.6488888888888888,0.8125,0.9375,-31.6875
1589541832.210276,-3.08,-1.31,9.13,0.32666666666666666,-0.5311111111111111,-0.6555555555555556,-3.4375,-12.0,-45.3125
1589541832.2254019,-2.5,-1.3,8.97,0.32666666666666666,-0.5311111111111111,-0.6555555555555556,2.1875,3.4375,-56.0625
1589541832.231892,-2.74,-1.33,9.12,0.32666666666666666,-0.5311111111111111,-0.6555555555555556,7.625,3.0625,-53.375
1589541832.2406752,-2.82,-1.17,8.34,0.32666666666666666,-0.5311111111111111,-0.6555555555555556,0.5625,0.5625,-58.9375
1589541832.252307,-2.61,-1.36,9.3,0.32666666666666666,-0.5311111111111111,-0.6555555555555556,12.625,7.5,-57.8125
1589541832.2634964,-2.85,-1.27,8.6,0.2588888888888889,-0.7555555555555555,-0.57,-4.9375,4.8125,-64.0
1589541832.2691488,-2.59,-1.34,8.82,0.2588888888888889,-0.7555555555555555,-0.57,-3.5625,8.25,-74.1875
1589541832.279684,-2.59,-1.34,8.82,0.2588888888888889,-0.7555555555555555,-0.57,-3.5625,8.25,-74.1875
1589541832.2902265,-2.91,-1.53,8.87,0.2588888888888889,-0.7555555555555555,-0.57,3.6875,0.6875,-73.9375
1589541832.3016875,-2.53,-1.42,8.68,0.2588888888888889,-0.7555555555555555,-0.57,0.6875,3.5625,-91.625
1589541832.3096747,-2.87,-1.63,9.5,0.41,-1.2988888888888892,0.021111111111111112,5.4375,9.875,-84.6875
1589541832.321121,-2.73,-1.52,8.66,0.41,-1.2988888888888892,0.021111111111111112,3.9375,4.5625,-85.3125
1589541832.3341472,-2.77,-1.64,8.88,0.41,-1.2988888888888892,0.021111111111111112,5.0625,-2.3125,-86.4375
1589541832.3403563,-2.84,-1.76,9.12,0.41,-1.2988888888888892,0.021111111111111112,0.9375,2.1875,-101.9375
1589541832.3557467,-2.66,-1.73,8.47,0.41,-1.2988888888888892,0.021111111111111112,0.8125,3.8125,-111.9375
1589541832.361973,-2.92,-1.98,9.52,0.94,-0.8355555555555556,-0.4922222222222222,9.125,7.75,-108.625
1589541832.3707454,-2.89,-1.99,8.52,0.94,-0.8355555555555556,-0.4922222222222222,-0.4375,1.3125,-122.625
1589541832.3803322,-2.76,-2.08,8.67,0.94,-0.8355555555555556,-0.4922222222222222,0.6875,-0.0625,-125.125
1589541832.3927135,-2.52,-2.06,9.02,0.94,-0.8355555555555556,-0.4922222222222222,-4.0625,0.3125,-132.3125
1589541832.4028687,-2.39,-2.16,9.23,0.94,-0.8355555555555556,-0.4922222222222222,10.5,12.75,-129.5625
1589541832.414386,-2.77,-2.4,8.97,0.62,-0.4355555555555555,-0.6711111111111111,-2.9375,7.375,-142.0625
1589541832.4205039,-2.72,-2.4,8.36,0.62,-0.4355555555555555,-0.6711111111111111,-2.9375,-0.8125,-141.3125
1589541832.4344096,-2.2,-2.41,9.01,0.62,-0.4355555555555555,-0.6711111111111111,6.1875,14.3125,-148.5
1589541832.4412177,-2.21,-2.49,8.55,0.62,-0.4355555555555555,-0.6711111111111111,4.5625,0.8125,-153.5
1589541832.45237,-2.23,-2.69,8.71,0.62,-0.4355555555555555,-0.6711111111111111,2.3125,11.0,-163.25
1589541832.45968,-2.3,-2.75,9.34,0.5755555555555556,-0.2611111111111111,-0.6822222222222222,0.4375,18.4375,-164.625
1589541832.4707394,-2.3,-2.75,9.34,0.5755555555555556,-0.2611111111111111,-0.6822222222222222,0.4375,18.4375,-164.625
1589541832.4809313,-2.5,-2.98,8.92,0.5755555555555556,-0.2611111111111111,-0.6822222222222222,0.4375,13.0,-171.8125
1589541832.4928975,-2.12,-2.96,8.96,0.5755555555555556,-0.2611111111111111,-0.6822222222222222,0.9375,10.875,-169.6875
1589541832.507444,-2.38,-3.02,8.75,0.5755555555555556,-0.2611111111111111,-0.6822222222222222,-2.9375,12.125,-167.625
1589541832.513815,-2.52,-3.37,9.49,0.5688888888888889,-0.1688888888888889,-0.6911111111111111,10.875,20.5625,-158.5625
1589541832.5219092,-2.46,-3.39,8.78,0.5688888888888889,-0.1688888888888889,-0.6911111111111111,3.1875,4.1875,-170.9375
1589541832.5328205,-2.25,-3.22,8.08,0.5688888888888889,-0.1688888888888889,-0.6911111111111111,-6.8125,-8.75,-160.3125
1589541832.5462918,-2.11,-3.47,9.72,0.5688888888888889,-0.1688888888888889,-0.6911111111111111,9.0,14.9375,-155.6875
1589541832.553332,-2.31,-3.43,8.49,0.5688888888888889,-0.1688888888888889,-0.6911111111111111,7.25,4.4375,-158.3125
1589541832.5659792,-2.29,-3.6,8.3,0.5955555555555555,-0.07222222222222223,-0.7111111111111111,3.1875,10.875,-162.75
1589541832.5725086,-2.12,-3.62,9.3,0.5955555555555555,-0.07222222222222223,-0.7111111111111111,-6.8125,1.6875,-154.1875
1589541832.5855556,-1.97,-3.66,8.83,0.5955555555555555,-0.07222222222222223,-0.7111111111111111,-0.5625,8.25,-162.75
1589541832.5918539,-2.14,-3.82,8.83,0.5955555555555555,-0.07222222222222223,-0.7111111111111111,6.5625,7.25,-148.875
1589541832.6031818,-2.06,-3.81,8.71,0.5955555555555555,-0.07222222222222223,-0.7111111111111111,5.9375,8.0,-149.5
1589541832.610656,-1.89,-3.81,8.69,0.5811111111111111,-0.004444444444444445,-0.7055555555555556,-1.3125,-1.0625,-154.6875
1589541832.6223314,-1.89,-3.81,8.69,0.5811111111111111,-0.004444444444444445,-0.7055555555555556,-1.3125,-1.0625,-154.6875
1589541832.6317494,-1.99,-4.18,8.6,0.5811111111111111,-0.004444444444444445,-0.7055555555555556,-0.0625,9.25,-153.125
1589541832.6416268,-1.88,-4.13,8.39,0.5811111111111111,-0.004444444444444445,-0.7055555555555556,3.6875,0.5625,-160.0625
1589541832.656033,-1.92,-4.27,9.31,0.5811111111111111,-0.004444444444444445,-0.7055555555555556,9.125,17.0625,-160.4375
1589541832.6646225,-1.91,-4.25,8.47,0.5788888888888889,0.07222222222222223,-0.6888888888888889,0.4375,1.8125,-155.8125
1589541832.6722095,-1.71,-4.09,8.66,0.5788888888888889,0.07222222222222223,-0.6888888888888889,11.375,5.1875,-147.0
1589541832.6846645,-1.63,-4.18,9.15,0.5788888888888889,0.07222222222222223,-0.6888888888888889,9.125,7.75,-141.0625
1589541832.696812,-16.43,-22.36,11.63,0.5788888888888889,0.07222222222222223,-0.6888888888888889,-63.125,114.1875,-120.25
1589541832.703959,-10.13,-17.14,3.6,0.5788888888888889,0.07222222222222223,-0.6888888888888889,-27.625,29.8125,-232.25
1589541832.7160184,3.75,8.24,-0.57,0.5422222222222223,0.17333333333333334,-0.6822222222222222,42.1875,-63.375,-221.375
1589541832.7220914,-0.24,-0.76,7.3,0.5422222222222223,0.17333333333333334,-0.6822222222222222,78.5,-38.875,-200.1875
1589541832.73752,1.59,0.31,14.35,0.5422222222222223,0.17333333333333334,-0.6822222222222222,-15.0625,6.6875,-167.75
1589541832.744325,-0.06,2.24,9.51,0.5422222222222223,0.17333333333333334,-0.6822222222222222,-29.0625,11.375,-144.6875
1589541832.7565851,0.79,-0.31,7.86,0.5422222222222223,0.17333333333333334,-0.6822222222222222,25.125,21.125,-141.6875
1589541832.7620625,0.0,-0.02,8.03,0.5222222222222223,0.2788888888888889,-0.6466666666666666,-0.9375,-14.3125,-127.1875
1589541832.7761483,-0.39,-0.64,8.89,0.5222222222222223,0.2788888888888889,-0.6466666666666666,-13.25,-3.5625,-78.375
1589541832.7821767,-0.92,-1.78,9.95,0.5222222222222223,0.2788888888888889,-0.6466666666666666,6.3125,4.1875,-61.8125
1589541832.79231,0.11,-2.33,8.33,0.5222222222222223,0.2788888888888889,-0.6466666666666666,-3.5625,-10.25,-51.75
1589541832.804899,-0.53,-2.75,9.43,0.5222222222222223,0.2788888888888889,-0.6466666666666666,-2.6875,5.9375,-39.0
1589541832.8139546,-0.5,-2.87,8.94,0.4922222222222222,0.3288888888888889,-0.6677777777777778,5.8125,6.5625,-31.5625
1589541832.8225956,-0.4,-2.93,8.49,0.4922222222222222,0.3288888888888889,-0.6677777777777778,2.4375,2.5625,-13.25
1589541832.8328195,-0.54,-3.22,8.72,0.4922222222222222,0.3288888888888889,-0.6677777777777778,-5.5625,-4.5625,-1.9375
1589541832.843306,-0.28,-3.2,8.84,0.4922222222222222,0.3288888888888889,-0.6677777777777778,6.1875,4.6875,-4.0625
1589541832.8547616,-0.2,-3.08,8.85,0.4922222222222222,0.3288888888888889,-0.6677777777777778,-5.0625,-10.0,7.75
1589541832.8679776,-0.31,-3.21,8.74,0.4666666666666667,0.3511111111111111,-0.6533333333333333,4.5625,-2.3125,1.8125
1589541832.8748484,-0.39,-3.09,8.82,0.4666666666666667,0.3511111111111111,-0.6533333333333333,4.3125,-4.6875,5.5625
1589541832.888885,-0.46,-3.27,8.66,0.4666666666666667,0.3511111111111111,-0.6533333333333333,3.9375,0.1875,8.75
1589541832.894667,0.75,-7.04,7.93,0.4666666666666667,0.3511111111111111,-0.6533333333333333,-6.8125,-4.9375,-40.375
1589541832.9052172,-0.2,1.76,4.17,0.4666666666666667,0.3511111111111111,-0.6533333333333333,28.1875,13.375,-29.0625
1589541832.9123275,0.34,-1.54,12.09,0.4566666666666666,0.3622222222222222,-0.6588888888888889,-14.9375,-0.9375,-11.875
1589541832.9272823,-0.26,-3.37,9.06,0.4566666666666666,0.3622222222222222,-0.6588888888888889,-5.1875,6.1875,-11.0
1589541832.9334428,-0.33,-4.53,8.19,0.4566666666666666,0.3622222222222222,-0.6588888888888889,9.75,2.4375,4.6875
1589541832.9474616,-0.43,-4.37,8.56,0.4566666666666666,0.3622222222222222,-0.6588888888888889,-2.1875,-3.0625,4.8125
1589541832.9555633,-0.12,-3.79,9.22,0.4566666666666666,0.3622222222222222,-0.6588888888888889,-5.6875,1.6875,-0.9375
1589541832.9652145,-0.35,-4.59,8.65,0.4577777777777778,0.3644444444444445,-0.6588888888888889,6.8125,1.4375,-5.1875
1589541832.9741075,-0.38,-4.35,8.73,0.4577777777777778,0.3644444444444445,-0.6588888888888889,0.9375,-0.9375,11.125
1589541832.983822,-0.22,-4.25,8.72,0.4577777777777778,0.3644444444444445,-0.6588888888888889,4.8125,0.4375,-4.4375
1589541832.993432,-0.26,-4.49,8.65,0.4577777777777778,0.3644444444444445,-0.6588888888888889,2.3125,0.4375,-3.1875
1589541833.0089915,-0.33,-4.39,8.66,0.4577777777777778,0.3644444444444445,-0.6588888888888889,2.4375,-0.8125,5.9375
1589541833.0146794,-0.28,-4.32,8.81,0.4655555555555556,0.3711111111111111,-0.6666666666666666,-4.8125,-3.3125,-3.0625
1589541833.0268688,-0.28,-4.46,8.67,0.4655555555555556,0.3711111111111111,-0.6666666666666666,3.1875,3.4375,-4.8125
1589541833.0403285,-0.33,-4.44,8.56,0.4655555555555556,0.3711111111111111,-0.6666666666666666,10.875,6.1875,0.5625
1589541833.0470126,-0.26,-4.39,8.74,0.4655555555555556,0.3711111111111111,-0.6666666666666666,-3.3125,-3.5625,-5.8125
1589541833.0612993,-0.28,-4.38,8.72,0.4655555555555556,0.3711111111111111,-0.6666666666666666,7.125,2.5625,-5.4375
1589541833.0682106,-0.29,-4.36,8.78,0.4722222222222222,0.3711111111111111,-0.6522222222222223,4.8125,-7.375,-3.6875
1589541833.078745,-0.3,-4.35,8.77,0.4722222222222222,0.3711111111111111,-0.6522222222222223,-4.1875,-0.0625,5.8125
1589541833.084867,-0.29,-4.42,8.58,0.4722222222222222,0.3711111111111111,-0.6522222222222223,2.3125,0.9375,-0.5625
1589541833.0989985,-0.31,-4.4,8.68,0.4722222222222222,0.3711111111111111,-0.6522222222222223,-4.8125,3.5625,5.6875
1589541833.1072304,-0.29,-4.37,8.74,0.4722222222222222,0.3711111111111111,-0.6522222222222223,-7.25,-3.5625,6.4375
1589541833.1166856,-0.3,-4.38,8.78,0.4655555555555556,0.38,-0.6711111111111111,4.9375,1.0625,-4.9375
1589541833.1243207,-0.3,-4.39,8.72,0.4655555555555556,0.38,-0.6711111111111111,-1.4375,-3.5625,3.9375
1589541833.1385286,-0.31,-4.4,8.6,0.4655555555555556,0.38,-0.6711111111111111,7.625,1.6875,0.1875
1589541833.1453714,-0.29,-4.44,8.62,0.4655555555555556,0.38,-0.6711111111111111,-0.3125,-1.4375,-1.4375
1589541833.1571846,-0.28,-4.37,8.74,0.4655555555555556,0.38,-0.6711111111111111,1.1875,7.75,-3.9375
1589541833.1691375,-0.29,-4.36,8.76,0.4811111111111111,0.38,-0.6666666666666666,-0.0625,-2.3125,-2.9375
1589541833.174674,-0.3,-4.35,8.76,0.4811111111111111,0.38,-0.6666666666666666,-5.8125,1.8125,0.0625
1589541833.185758,-0.29,-4.41,8.62,0.4811111111111111,0.38,-0.6666666666666666,1.3125,1.3125,2.1875
1589541833.1977475,-0.3,-4.41,8.67,0.4811111111111111,0.38,-0.6666666666666666,1.9375,-2.3125,0.3125
1589541833.2124279,-0.31,-4.39,8.73,0.4811111111111111,0.38,-0.6666666666666666,-0.1875,-5.4375,5.8125
1589541833.2184148,-0.28,-4.34,8.74,0.4744444444444445,0.38,-0.6444444444444445,-0.1875,-1.6875,-4.5625
1589541833.2299693,-0.29,-4.39,8.72,0.4744444444444445,0.38,-0.6444444444444445,-6.4375,-2.6875,-1.6875
1589541833.2360005,-0.27,-4.4,8.62,0.4744444444444445,0.38,-0.6444444444444445,-3.6875,0.1875,-5.9375
1589541833.2500653,-0.29,-4.38,8.62,0.4744444444444445,0.38,-0.6444444444444445,-1.8125,-4.1875,-2.8125
1589541833.2580152,-0.3,-4.4,8.71,0.4744444444444445,0.38,-0.6444444444444445,-0.4375,0.6875,5.1875
1589541833.269835,-0.29,-4.35,8.78,0.4811111111111111,0.38666666666666666,-0.6711111111111111,-8.25,1.3125,2.4375
1589541833.275557,-0.31,-4.37,8.76,0.4811111111111111,0.38666666666666666,-0.6711111111111111,-1.0625,3.1875,-0.6875
1589541833.2860506,-0.3,-4.39,8.63,0.4811111111111111,0.38666666666666666,-0.6711111111111111,6.3125,2.1875,3.9375
1589541833.2955465,-0.3,-4.4,8.67,0.4811111111111111,0.38666666666666666,-0.6711111111111111,8.375,4.1875,-9.0
1589541833.3081136,-0.3,-4.39,8.73,0.4811111111111111,0.38666666666666666,-0.6711111111111111,-3.5625,2.5625,0.5625
1589541833.315485,-0.29,-4.38,8.78,0.4666666666666667,0.38,-0.6666666666666666,-0.6875,0.8125,9.0
1589541833.326611,-0.26,-4.36,8.78,0.4666666666666667,0.38,-0.6666666666666666,0.9375,-7.125,-1.5625
1589541833.3361824,-0.29,-4.39,8.65,0.4666666666666667,0.38,-0.6666666666666666,0.6875,2.1875,-1.6875
1589541833.3482153,-0.29,-4.39,8.67,0.4666666666666667,0.38,-0.6666666666666666,1.6875,-2.6875,-6.0625
1589541833.3630855,-0.29,-4.39,8.72,0.4666666666666667,0.38,-0.6666666666666666,3.1875,3.3125,-2.0625
1589541833.368718,-0.29,-4.37,8.78,0.4744444444444445,0.36777777777777776,-0.6577777777777778,-3.5625,-1.4375,-3.4375
1589541833.3816,-0.28,-4.37,8.74,0.4744444444444445,0.36777777777777776,-0.6577777777777778,-2.8125,5.3125,6.6875
1589541833.3874226,-0.3,-4.38,8.61,0.4744444444444445,0.36777777777777776,-0.6577777777777778,-1.1875,-2.8125,1.3125
1589541833.4009204,-0.29,-4.39,8.63,0.4744444444444445,0.36777777777777776,-0.6577777777777778,-3.4375,-1.8125,-0.5625
1589541833.4085734,-0.28,-4.39,8.71,0.4744444444444445,0.36777777777777776,-0.6577777777777778,4.4375,1.6875,0.9375
1589541833.4203804,-0.27,-4.39,8.75,0.4622222222222222,0.37333333333333335,-0.6711111111111111,-3.0625,0.5625,0.5625
1589541833.4266114,-0.29,-4.37,8.79,0.4622222222222222,0.37333333333333335,-0.6711111111111111,3.1875,-1.4375,1.9375
1589541833.4405775,-0.31,-4.39,8.61,0.4622222222222222,0.37333333333333335,-0.6711111111111111,-3.4375,-0.4375,8.25
1589541833.4467404,-0.29,-4.39,8.67,0.4622222222222222,0.37333333333333335,-0.6711111111111111,3.0625,-5.3125,-6.3125
1589541833.4587119,-0.27,-4.39,8.7,0.4622222222222222,0.37333333333333335,-0.6711111111111111,-4.4375,2.5625,1.4375
1589541833.466369,-0.28,-4.36,8.71,0.4811111111111111,0.37333333333333335,-0.6666666666666666,-1.4375,-0.1875,5.8125
1589541833.4796753,-0.29,-4.37,8.72,0.4811111111111111,0.37333333333333335,-0.6666666666666666,-2.5625,3.5625,10.75
1589541833.4868355,-0.31,-4.37,8.64,0.4811111111111111,0.37333333333333335,-0.6666666666666666,-0.9375,-4.1875,-0.6875
1589541833.4979744,-0.3,-4.4,8.65,0.4811111111111111,0.37333333333333335,-0.6666666666666666,-0.3125,5.4375,-1.3125
1589541833.50938,-0.29,-4.39,8.69,0.4811111111111111,0.37333333333333335,-0.6666666666666666,1.9375,-0.9375,5.3125
1589541833.5187044,-0.29,-4.38,8.73,0.4744444444444445,0.38666666666666666,-0.6666666666666666,1.0625,1.5625,5.9375
1589541833.5270224,-0.3,-4.37,8.76,0.4744444444444445,0.38666666666666666,-0.6666666666666666,2.5625,5.9375,2.0625
1589541833.5370054,-0.28,-4.39,8.67,0.4744444444444445,0.38666666666666666,-0.6666666666666666,5.5625,-2.6875,1.8125
1589541833.5512028,-0.3,-4.39,8.7,0.4744444444444445,0.38666666666666666,-0.6666666666666666,1.8125,2.1875,7.0
1589541833.559252,-0.29,-4.4,8.7,0.4744444444444445,0.38666666666666666,-0.6666666666666666,1.5625,-1.0625,9.5
1589541833.5721102,-0.29,-4.38,8.72,0.4744444444444445,0.36777777777777776,-0.6666666666666666,3.8125,9.625,-1.4375
1589541833.5790696,-0.29,-4.38,8.74,0.4744444444444445,0.36777777777777776,-0.6666666666666666,-1.0625,-1.9375,3.6875
1589541833.5910707,-0.3,-4.37,8.65,0.4744444444444445,0.36777777777777776,-0.6666666666666666,3.3125,3.0625,1.0625
1589541833.5972743,-0.29,-4.38,8.67,0.4744444444444445,0.36777777777777776,-0.6666666666666666,4.8125,-4.0625,1.3125
1589541833.609608,-0.29,-4.39,8.7,0.4744444444444445,0.36777777777777776,-0.6666666666666666,-1.9375,-2.3125,-1.5625
1589541833.617283,-0.27,-4.39,8.74,0.4666666666666667,0.37333333333333335,-0.6522222222222223,-1.5625,-4.1875,1.3125
1589541833.6308885,-0.3,-4.38,8.73,0.4666666666666667,0.37333333333333335,-0.6522222222222223,-2.9375,-1.5625,-1.9375
1589541833.6373177,-0.3,-4.35,8.65,0.4666666666666667,0.37333333333333335,-0.6522222222222223,-4.5625,0.5625,2.6875
1589541833.6476448,-0.31,-4.39,8.66,0.4666666666666667,0.37333333333333335,-0.6522222222222223,-0.6875,-0.8125,-0.6875
1589541833.6599438,-0.28,-4.38,8.7,0.4666666666666667,0.37333333333333335,-0.6522222222222223,0.1875,-5.5625,-0.1875
1589541833.6703415,-0.28,-4.39,8.74,0.4811111111111111,0.38,-0.6666666666666666,-3.4375,-4.3125,-0.9375
1589541833.6773114,-0.3,-4.4,8.75,0.4811111111111111,0.38,-0.6666666666666666,2.0625,-1.9375,8.5
1589541833.6880727,-0.3,-4.38,8.65,0.4811111111111111,0.38,-0.6666666666666666,-0.5625,-5.4375,0.5625
1589541833.7018304,-0.3,-4.36,8.7,0.4811111111111111,0.38,-0.6666666666666666,1.5625,-4.4375,-1.6875
1589541833.710211,-0.3,-4.38,8.71,0.4811111111111111,0.38,-0.6666666666666666,3.1875,-3.3125,-4.4375
1589541833.7169893,-0.31,-4.38,8.73,0.4744444444444445,0.38,-0.6522222222222223,2.8125,-2.6875,-2.1875
1589541833.7288606,-0.31,-4.38,8.69,0.4744444444444445,0.38,-0.6522222222222223,-2.8125,-0.9375,0.9375
1589541833.7437215,-0.27,-4.38,8.63,0.4744444444444445,0.38,-0.6522222222222223,4.1875,0.3125,-4.4375
1589541833.7506368,-0.29,-4.37,8.67,0.4744444444444445,0.38,-0.6522222222222223,4.0625,4.0625,-1.1875
1589541833.7610345,-0.29,-4.37,8.72,0.4744444444444445,0.38,-0.6522222222222223,2.3125,2.6875,2.8125
1589541833.7678432,-0.29,-4.39,8.73,0.4744444444444445,0.38666666666666666,-0.6522222222222223,3.4375,0.9375,-0.8125
1589541833.7825336,-0.3,-4.38,8.73,0.4744444444444445,0.38666666666666666,-0.6522222222222223,1.5625,-0.3125,2.1875
1589541833.7889388,-0.29,-4.39,8.64,0.4744444444444445,0.38666666666666666,-0.6522222222222223,-8.75,4.1875,9.875
1589541833.802798,-0.29,-4.36,8.7,0.4744444444444445,0.38666666666666666,-0.6522222222222223,-1.3125,7.75,-2.6875
1589541833.8106372,-0.3,-4.36,8.73,0.4744444444444445,0.38666666666666666,-0.6522222222222223,2.8125,-4.6875,8.75
1589541833.8212125,-0.3,-4.39,8.71,0.4933333333333334,0.38,-0.6666666666666666,-2.3125,0.8125,0.6875
1589541833.8292625,-0.3,-4.4,8.75,0.4933333333333334,0.38,-0.6666666666666666,0.5625,-3.9375,4.8125
1589541833.8385415,-0.29,-4.39,8.64,0.4933333333333334,0.38,-0.6666666666666666,-4.0625,-6.8125,4.3125
1589541833.853151,-0.3,-4.37,8.71,0.4933333333333334,0.38,-0.6666666666666666,-3.0625,-0.0625,5.4375
1589541833.8606865,-0.29,-4.37,8.73,0.4933333333333334,0.38,-0.6666666666666666,2.3125,4.0625,1.1875
1589541833.8690805,-0.3,-4.4,8.73,0.4666666666666667,0.36777777777777776,-0.6666666666666666,9.25,8.5,6.1875
1589541833.8811321,-0.27,-4.36,8.7,0.4666666666666667,0.36777777777777776,-0.6666666666666666,-3.8125,-3.5625,-1.5625
1589541833.8898027,-0.31,-4.42,8.67,0.4666666666666667,0.36777777777777776,-0.6666666666666666,0.6875,-4.4375,1.3125
1589541833.9000769,-0.29,-4.38,8.66,0.4666666666666667,0.36777777777777776,-0.6666666666666666,-1.5625,-1.8125,-6.8125
1589541833.9116757,-0.29,-4.38,8.72,0.4666666666666667,0.36777777777777776,-0.6666666666666666,2.1875,1.8125,7.375
1589541833.9184384,-0.29,-4.38,8.75,0.4666666666666667,0.36777777777777776,-0.6522222222222223,2.0625,-2.8125,-9.625
1589541833.933061,-0.31,-4.38,8.74,0.4666666666666667,0.36777777777777776,-0.6522222222222223,-0.6875,-1.9375,4.6875
1589541833.9392712,-0.29,-4.39,8.63,0.4666666666666667,0.36777777777777776,-0.6522222222222223,-2.9375,7.625,1.1875
1589541833.9535162,-0.29,-4.37,8.7,0.4666666666666667,0.36777777777777776,-0.6522222222222223,0.9375,-6.6875,-6.3125
1589541833.9614155,-0.3,-4.37,8.73,0.4666666666666667,0.36777777777777776,-0.6522222222222223,-4.4375,5.4375,2.3125
1589541833.9719794,-0.28,-4.39,8.75,0.4744444444444445,0.38,-0.6588888888888889,13.75,4.6875,3.5625
1589541833.9789627,-0.3,-4.41,8.68,0.4744444444444445,0.38,-0.6588888888888889,-2.9375,-1.0625,0.4375
1589541833.992107,-0.28,-4.38,8.66,0.4744444444444445,0.38,-0.6588888888888889,-5.8125,2.1875,4.1875
1589541833.999425,-0.26,-4.38,8.7,0.4744444444444445,0.38,-0.6588888888888889,-0.6875,0.1875,-2.5625
1589541834.0123515,-0.27,-4.39,8.72,0.4744444444444445,0.38,-0.6588888888888889,-2.4375,0.1875,-2.1875
1589541834.0190954,-0.28,-4.4,8.75,0.4666666666666667,0.38666666666666666,-0.6877777777777778,-1.3125,1.0625,-2.9375
1589541834.030774,-0.3,-4.4,8.72,0.4666666666666667,0.38666666666666666,-0.6877777777777778,9.375,-3.5625,2.4375
1589541834.03984,-0.3,-4.38,8.63,0.4666666666666667,0.38666666666666666,-0.6877777777777778,-0.6875,-1.6875,7.375
1589541834.0502262,-0.28,-4.37,8.7,0.4666666666666667,0.38666666666666666,-0.6877777777777778,-1.6875,3.9375,-2.3125
1589541834.0620036,-0.3,-4.38,8.72,0.4666666666666667,0.38666666666666666,-0.6877777777777778,1.6875,-4.1875,-1.6875
1589541834.0696983,-0.28,-4.38,8.76,0.4666666666666667,0.38,-0.6577777777777778,-1.1875,-5.9375,7.75
1589541834.083808,-0.28,-4.39,8.74,0.4666666666666667,0.38,-0.6577777777777778,-1.0625,-1.1875,-4.0625
1589541834.089803,-0.29,-4.39,8.63,0.4666666666666667,0.38,-0.6577777777777778,-5.5625,1.5625,-0.1875
1589541834.1040993,-0.27,-4.37,8.68,0.4666666666666667,0.38,-0.6577777777777778,6.1875,3.1875,-3.0625
1589541834.1124535,-0.27,-4.4,8.73,0.4666666666666667,0.38,-0.6577777777777778,-1.1875,-3.0625,-0.9375
1589541834.1232948,-0.29,-4.39,8.75,0.4888888888888889,0.37333333333333335,-0.6522222222222223,-0.4375,-1.1875,-0.8125
1589541834.130172,-0.3,-4.38,8.71,0.4888888888888889,0.37333333333333335,-0.6522222222222223,7.75,-2.4375,-2.8125
1589541834.1406894,-0.3,-4.39,8.6,0.4888888888888889,0.37333333333333335,-0.6522222222222223,-2.9375,-5.6875,-4.5625
1589541834.1506267,-0.3,-4.38,8.66,0.4888888888888889,0.37333333333333335,-0.6522222222222223,-3.1875,0.5625,-5.4375
1589541834.1621776,-0.29,-4.39,8.74,0.4888888888888889,0.37333333333333335,-0.6522222222222223,0.0625,-6.0625,9.0
1589541834.1701796,-0.31,-4.38,8.73,0.4811111111111111,0.38,-0.6577777777777778,3.4375,-0.4375,-3.1875
1589541834.182345,-0.28,-4.39,8.76,0.4811111111111111,0.38,-0.6577777777777778,-5.9375,-3.3125,7.875
1589541834.1909325,-0.31,-4.41,8.66,0.4811111111111111,0.38,-0.6577777777777778,-2.3125,1.6875,9.75
1589541834.2043006,-0.29,-4.36,8.68,0.4811111111111111,0.38,-0.6577777777777778,0.4375,1.3125,2.4375
1589541834.2134724,-0.29,-4.37,8.73,0.4811111111111111,0.38,-0.6577777777777778,0.4375,-5.9375,-4.4375
1589541834.224873,-0.29,-4.4,8.74,0.4622222222222222,0.38,-0.6522222222222223,-0.4375,-0.5625,-0.5625
1589541834.2359009,-0.31,-4.37,8.71,0.4622222222222222,0.38,-0.6522222222222223,-3.1875,1.0625,2.6875
1589541834.2415452,-0.3,-4.38,8.61,0.4622222222222222,0.38,-0.6522222222222223,-2.4375,-2.5625,1.3125
1589541834.2564285,-0.28,-4.38,8.66,0.4622222222222222,0.38,-0.6522222222222223,-1.6875,3.5625,6.1875
1589541834.263059,-0.26,-4.39,8.7,0.4622222222222222,0.38,-0.6522222222222223,-2.3125,3.9375,-4.5625
1589541834.2715008,-0.29,-4.37,8.74,0.4744444444444445,0.38,-0.6666666666666666,0.9375,5.9375,2.9375
1589541834.281691,-0.28,-4.37,8.73,0.4744444444444445,0.38,-0.6666666666666666,1.8125,-5.8125,-4.3125
1589541834.2946146,-0.31,-4.39,8.62,0.4744444444444445,0.38,-0.6666666666666666,7.75,2.1875,-4.0625
1589541834.3009744,-0.31,-4.38,8.67,0.4744444444444445,0.38,-0.6666666666666666,-0.5625,4.4375,4.3125
1589541834.3162775,-0.28,-4.36,8.74,0.4744444444444445,0.38,-0.6666666666666666,1.8125,6.6875,1.6875
1589541834.3223536,-0.28,-4.38,8.74,0.4566666666666666,0.38,-0.6666666666666666,3.4375,-0.9375,-6.3125
1589541834.3338811,-0.29,-4.38,8.76,0.4566666666666666,0.38,-0.6666666666666666,1.8125,-2.6875,-2.3125
1589541834.3413365,-0.3,-4.4,8.64,0.4566666666666666,0.38,-0.6666666666666666,-0.9375,-5.0625,1.3125
1589541834.3511193,-0.29,-4.4,8.68,0.4566666666666666,0.38,-0.6666666666666666,7.25,2.5625,-7.75
1589541834.363236,-0.26,-4.39,8.72,0.4566666666666666,0.38,-0.6666666666666666,2.8125,-4.1875,5.1875
1589541834.3752048,-0.27,-4.39,8.75,0.4888888888888889,0.38,-0.6711111111111111,3.1875,-3.9375,1.3125
1589541834.3812444,-0.3,-4.38,8.72,0.4888888888888889,0.38,-0.6711111111111111,-1.4375,-1.1875,-6.1875
1589541834.3929613,-0.3,-4.39,8.62,0.4888888888888889,0.38,-0.6711111111111111,-0.3125,2.4375,3.9375
1589541834.4018855,-0.31,-4.4,8.64,0.4888888888888889,0.38,-0.6711111111111111,-1.9375,5.6875,-6.3125
1589541834.4135327,-0.3,-4.38,8.74,0.4888888888888889,0.38,-0.6711111111111111,3.5625,5.4375,-3.8125
1589541834.42085,-0.29,-4.37,8.74,0.4566666666666666,0.37333333333333335,-0.6444444444444445,3.0625,4.4375,-2.3125
1589541834.4330962,-0.3,-4.38,8.72,0.4566666666666666,0.37333333333333335,-0.6444444444444445,-1.3125,0.4375,5.8125
1589541834.4460745,-0.32,-4.38,8.65,0.4566666666666666,0.37333333333333335,-0.6444444444444445,-4.0625,-1.5625,9.625
1589541834.4519727,-0.28,-4.37,8.71,0.4566666666666666,0.37333333333333335,-0.6444444444444445,6.3125,-0.0625,-6.5625
1589541834.4647224,-0.28,-4.37,8.72,0.4566666666666666,0.37333333333333335,-0.6444444444444445,-0.8125,-2.0625,-6.8125
1589541834.471715,-0.33,-4.36,8.74,0.4744444444444445,0.36777777777777776,-0.6588888888888889,-3.6875,4.0625,6.0625
1589541834.4858751,-0.28,-4.39,8.69,0.4744444444444445,0.36777777777777776,-0.6588888888888889,-2.1875,-0.6875,1.1875
1589541834.4920616,-0.27,-4.39,8.65,0.4744444444444445,0.36777777777777776,-0.6588888888888889,-1.3125,-1.5625,2.3125
1589541834.5024087,-0.27,-4.38,8.67,0.4744444444444445,0.36777777777777776,-0.6588888888888889,2.9375,-0.5625,-0.6875
1589541834.5139186,-0.31,-4.39,8.71,0.4744444444444445,0.36777777777777776,-0.6588888888888889,-5.3125,-0.3125,1.3125
1589541834.5252333,-0.31,-4.39,8.74,0.4744444444444445,0.37333333333333335,-0.6588888888888889,0.1875,-2.5625,4.6875
1589541834.5373266,-0.29,-4.38,8.73,0.4744444444444445,0.37333333333333335,-0.6588888888888889,0.0625,0.6875,-0.9375
