time,acc_x,acc_y,acc_z,mag_x,mag_y,mag_z,gyr_x,gyr_y,gyr_z
1589541842.4863524,-0.13,-4.29,8.71,0.46,0.32,-0.5933333333333334,-8.375,-3.0625,-0.6875
1589541842.4942956,-0.17,-4.29,8.75,0.46,0.32,-0.5933333333333334,9.875,6.1875,3.4375
1589541842.506183,-0.19,-4.29,8.73,0.46,0.32,-0.5933333333333334,-0.1875,-5.6875,-0.8125
1589541842.5132267,-0.18,-4.3,8.73,0.4777777777777778,0.32666666666666666,-0.6077777777777778,-3.0625,-9.375,-0.8125
1589541842.5235784,-0.16,-4.3,8.81,0.4777777777777778,0.32666666666666666,-0.6077777777777778,1.9375,4.9375,-6.8125
1589541842.5367773,-0.12,-4.3,8.61,0.4777777777777778,0.32666666666666666,-0.6077777777777778,1.6875,3.9375,-4.6875
1589541842.5443134,-0.14,-4.32,8.69,0.4777777777777778,0.32666666666666666,-0.6077777777777778,5.6875,-0.6875,-0.3125
1589541842.5570426,-0.14,-4.28,8.73,0.4777777777777778,0.32666666666666666,-0.6077777777777778,-0.1875,1.3125,3.5625
1589541842.563932,-0.19,-4.3,8.78,0.4977777777777778,0.32,-0.5866666666666667,-2.0625,4.0625,5.1875
1589541842.5793593,-0.17,-4.3,8.78,0.4977777777777778,0.32,-0.5866666666666667,-2.4375,-1.1875,-1.5625
1589541842.5855772,-0.15,-4.3,8.68,0.4977777777777778,0.32,-0.5866666666666667,1.9375,1.5625,0.3125
1589541842.5944955,-0.15,-4.29,8.67,0.4977777777777778,0.32,-0.5866666666666667,-4.4375,6.3125,0.5625
1589541842.6068738,-0.12,-4.31,8.78,0.4977777777777778,0.32,-0.5866666666666667,-8.0,-0.4375,-0.6875
1589541842.618016,-0.1,-4.3,8.79,0.4777777777777778,0.3322222222222222,-0.5933333333333334,4.9375,-4.6875,2.8125
1589541842.6241732,-0.16,-4.32,8.84,0.4777777777777778,0.3322222222222222,-0.5933333333333334,-2.8125,-1.9375,-6.8125
1589541842.6346445,-0.15,-4.3,8.66,0.4777777777777778,0.3322222222222222,-0.5933333333333334,0.1875,2.6875,-7.625
1589541842.6448035,-0.14,-4.31,8.68,0.4777777777777778,0.3322222222222222,-0.5933333333333334,2.4375,0.0625,-3.9375
1589541842.6569848,-0.15,-4.3,8.68,0.4777777777777778,0.3322222222222222,-0.5933333333333334,5.6875,5.4375,-2.5625
1589541842.664702,-0.13,-4.33,8.67,0.5044444444444445,0.32666666666666666,-0.6077777777777778,-0.3125,-3.6875,14.0625
1589541842.6746852,-0.15,-4.31,8.7,0.5044444444444445,0.32666666666666666,-0.6077777777777778,3.0625,-0.0625,0.0625
1589541842.6876926,-0.15,-4.31,8.62,0.5044444444444445,0.32666666666666666,-0.6077777777777778,1.6875,5.6875,-1.4375
1589541842.6953676,-0.15,-4.3,8.7,0.5044444444444445,0.32666666666666666,-0.6077777777777778,-0.1875,-4.6875,-2.6875
1589541842.7117321,-0.16,-4.31,8.76,0.5044444444444445,0.32666666666666666,-0.6077777777777778,7.875,10.0,3.5625
1589541842.717442,-0.15,-4.33,8.88,0.4711111111111111,0.32,-0.6288888888888889,3.4375,-3.8125,2.3125
1589541842.7302833,-0.16,-4.32,8.86,0.4711111111111111,0.32,-0.6288888888888889,2.0625,1.1875,7.25
1589541842.7369163,-0.18,-4.3,8.69,0.4711111111111111,0.32,-0.6288888888888889,-3.6875,3.9375,8.5
1589541842.7491374,-0.15,-4.32,8.67,0.4711111111111111,0.32,-0.6288888888888889,-2.0625,5.3125,10.0
1589541842.757568,-0.12,-4.31,8.69,0.4711111111111111,0.32,-0.6288888888888889,4.1875,-2.9375,1.3125
1589541842.7691052,-0.12,-4.29,8.7,0.4777777777777778,0.32666666666666666,-0.6144444444444445,-9.75,-5.1875,-2.5625
1589541842.7756805,-0.15,-4.33,8.67,0.4777777777777778,0.32666666666666666,-0.6144444444444445,-2.1875,0.3125,-4.4375
1589541842.7890835,-0.16,-4.32,8.67,0.4777777777777778,0.32666666666666666,-0.6144444444444445,4.3125,2.9375,-1.6875
1589541842.7955244,-0.23,-4.35,8.87,0.4777777777777778,0.32666666666666666,-0.6144444444444445,-0.6875,0.1875,2.3125
1589541842.80771,-0.19,-4.3,8.68,0.4777777777777778,0.32666666666666666,-0.6144444444444445,3.8125,1.1875,0.4375
1589541842.8148036,-0.15,-4.33,8.77,0.4777777777777778,0.32,-0.6077777777777778,-5.1875,-0.6875,-1.9375
1589541842.8285756,-0.14,-4.32,8.72,0.4777777777777778,0.32,-0.6077777777777778,-2.0625,-1.9375,4.9375
1589541842.8365355,-0.15,-4.32,8.65,0.4777777777777778,0.32,-0.6077777777777778,-3.6875,0.9375,2.0625
1589541842.8473597,-0.16,-4.32,8.65,0.4777777777777778,0.32,-0.6077777777777778,10.875,-1.0625,2.5625
1589541842.862828,-0.16,-4.33,8.68,0.4777777777777778,0.32,-0.6077777777777778,-4.5625,-3.1875,-3.5625
1589541842.8689313,-0.17,-4.33,8.72,0.4711111111111111,0.32666666666666666,-0.6077777777777778,-0.6875,1.3125,6.3125
1589541842.8765054,-0.15,-4.31,8.77,0.4711111111111111,0.32666666666666666,-0.6077777777777778,1.4375,-4.8125,-6.5625
1589541842.8881814,-0.16,-4.33,8.7,0.4711111111111111,0.32666666666666666,-0.6077777777777778,-2.3125,0.9375,-2.8125
1589541842.8981028,-0.18,-4.3,8.77,0.4711111111111111,0.32666666666666666,-0.6077777777777778,2.4375,-1.3125,-5.5625
1589541842.9076653,-0.18,-4.29,8.78,0.4711111111111111,0.32666666666666666,-0.6077777777777778,-1.4375,-1.0625,-6.6875
1589541842.9202526,-0.12,-4.3,8.79,0.4777777777777778,0.3144444444444445,-0.6222222222222222,0.5625,5.3125,-0.4375
1589541842.9271035,-0.14,-4.31,8.7,0.4777777777777778,0.3144444444444445,-0.6222222222222222,-7.0,-1.5625,0.3125
1589541842.9408054,-0.14,-4.3,8.62,0.4777777777777778,0.3144444444444445,-0.6222222222222222,-1.6875,-0.4375,1.9375
1589541842.9478028,-0.17,-4.29,8.7,0.4777777777777778,0.3144444444444445,-0.6222222222222222,-3.5625,-2.1875,3.1875
1589541842.9580133,-0.21,-4.33,8.72,0.4777777777777778,0.3144444444444445,-0.6222222222222222,-2.3125,3.3125,-8.25
1589541842.9657552,-0.24,-4.32,8.71,0.4777777777777778,0.32666666666666666,-0.6288888888888889,3.6875,1.3125,4.5625
1589541842.9803367,-0.23,-4.28,8.75,0.4777777777777778,0.32666666666666666,-0.6288888888888889,5.0625,-0.8125,3.5625
1589541842.987099,-0.22,-4.28,8.64,0.4777777777777778,0.32666666666666666,-0.6288888888888889,-1.4375,-4.8125,10.625
1589541842.996491,-0.16,-4.17,8.72,0.4777777777777778,0.32666666666666666,-0.6288888888888889,2.1875,0.0625,-5.6875
1589541843.0108864,-0.2,-4.24,8.71,0.4777777777777778,0.32666666666666666,-0.6288888888888889,-3.8125,-2.3125,-1.3125
1589541843.0183713,-0.22,-4.21,8.77,0.4655555555555556,0.32,-0.6222222222222222,0.9375,0.5625,1.5625
1589541843.0270965,-0.19,-4.23,8.73,0.4655555555555556,0.32,-0.6222222222222222,0.8125,8.0,-3.3125
1589541843.0397544,-0.14,-4.24,8.71,0.4655555555555556,0.32,-0.6222222222222222,6.4375,1.5625,1.4375
1589541843.0475821,-0.14,-4.26,8.74,0.4655555555555556,0.32,-0.6222222222222222,2.6875,5.3125,3.4375
1589541843.059122,-0.05,-4.3,8.78,0.4655555555555556,0.32,-0.6222222222222222,2.4375,-1.0625,-6.4375
1589541843.0708206,-0.1,-4.41,8.73,0.4922222222222222,0.32,-0.5933333333333334,-2.6875,0.4375,7.125
1589541843.0769346,-0.11,-4.38,8.67,0.4922222222222222,0.32,-0.5933333333333334,1.1875,-6.3125,-0.4375
1589541843.091867,-0.12,-4.38,8.57,0.4922222222222222,0.32,-0.5933333333333334,-5.4375,-4.9375,-0.9375
1589541843.0979972,-0.06,-4.37,8.61,0.4922222222222222,0.32,-0.5933333333333334,1.9375,3.1875,-11.625
1589541843.1099591,-0.11,-4.31,8.75,0.4922222222222222,0.32,-0.5933333333333334,0.9375,-4.0625,0.4375
1589541843.1172767,-0.12,-4.35,8.85,0.4922222222222222,0.30666666666666664,-0.6222222222222222,-2.0625,7.875,-4.3125
1589541843.1287403,-0.11,-4.33,8.89,0.4922222222222222,0.30666666666666664,-0.6222222222222222,-1.0625,2.5625,4.9375
1589541843.1379626,-0.11,-4.43,8.74,0.4922222222222222,0.30666666666666664,-0.6222222222222222,-5.5625,-4.1875,-0.4375
1589541843.148868,-0.12,-4.41,8.73,0.4922222222222222,0.30666666666666664,-0.6222222222222222,3.0625,-6.0625,8.375
1589541843.1633413,-0.12,-4.41,8.75,0.4922222222222222,0.30666666666666664,-0.6222222222222222,4.8125,3.9375,1.9375
1589541843.1688585,-0.13,-4.37,8.77,0.4777777777777778,0.32,-0.6,-1.1875,-11.25,1.0625
1589541843.1784534,-0.13,-4.32,8.66,0.4777777777777778,0.32,-0.6,1.8125,1.3125,-2.6875
1589541843.190037,-0.16,-4.33,8.57,0.4777777777777778,0.32,-0.6,7.5,-0.1875,-4.6875
1589541843.198902,-0.18,-4.33,8.59,0.4777777777777778,0.32,-0.6,-1.8125,2.5625,-0.3125
1589541843.2103846,-0.14,-4.32,8.75,0.4777777777777778,0.32,-0.6,-2.9375,1.4375,5.6875
1589541843.2207706,-0.15,-4.31,8.78,0.4977777777777778,0.32666666666666666,-0.6,-2.9375,2.5625,5.1875
1589541843.2281895,-0.13,-4.34,8.79,0.4977777777777778,0.32666666666666666,-0.6,3.9375,3.5625,-9.75
1589541843.243775,-0.13,-4.34,8.68,0.4977777777777778,0.32666666666666666,-0.6,-0.6875,5.4375,2.4375
1589541843.2502053,-0.16,-4.32,8.77,0.4977777777777778,0.32666666666666666,-0.6,-0.5625,0.6875,7.25
1589541843.2641375,-0.17,-4.3,8.8,0.4977777777777778,0.32666666666666666,-0.6,-4.1875,-4.8125,7.75
1589541843.2696586,-0.17,-4.3,8.79,0.4777777777777778,0.32666666666666666,-0.5866666666666667,-3.8125,0.4375,5.4375
1589541843.2819128,-0.21,-4.23,8.67,0.4777777777777778,0.32666666666666666,-0.5866666666666667,-2.1875,-7.0,-0.8125
1589541843.289899,-0.5,-3.76,8.39,0.4777777777777778,0.32666666666666666,-0.5866666666666667,-5.0625,-0.4375,1.1875
1589541843.301649,0.01,-4.14,9.11,0.4777777777777778,0.32666666666666666,-0.5866666666666667,-1.6875,-0.4375,-0.9375
1589541843.3105257,-0.18,-3.98,8.37,0.4777777777777778,0.32666666666666666,-0.5866666666666667,0.9375,2.6875,3.5625
1589541843.3195775,-0.1,-3.85,8.75,0.4844444444444445,0.32666666666666666,-0.6,-4.1875,7.125,-7.5
1589541843.3282588,-0.12,-3.78,8.75,0.4844444444444445,0.32666666666666666,-0.6,-0.8125,1.8125,-5.9375
1589541843.3396964,-0.2,-3.66,8.77,0.4844444444444445,0.32666666666666666,-0.6,0.8125,-1.8125,-7.875
1589541843.3480642,-0.33,-3.5,8.74,0.4844444444444445,0.32666666666666666,-0.6,-3.8125,3.1875,-13.0
1589541843.3635745,-0.36,-3.37,8.79,0.4844444444444445,0.32666666666666666,-0.6,-2.0625,-6.4375,-12.375
1589541843.3749738,-0.28,-3.23,8.88,0.4777777777777778,0.3144444444444445,-0.6077777777777778,-3.3125,-1.1875,-10.875
1589541843.38132,-0.24,-3.07,8.88,0.4777777777777778,0.3144444444444445,-0.6077777777777778,5.3125,5.3125,-2.4375
1589541843.39383,-0.67,-2.66,8.41,0.4777777777777778,0.3144444444444445,-0.6077777777777778,-1.9375,-8.5,16.9375
1589541843.3999286,-0.44,-2.98,8.51,0.4777777777777778,0.3144444444444445,-0.6077777777777778,-5.6875,-2.1875,22.125
1589541843.4148276,-0.37,-3.13,8.8,0.4777777777777778,0.3144444444444445,-0.6077777777777778,-1.1875,0.3125,21.75
1589541843.420359,-0.36,-3.21,8.74,0.4777777777777778,0.32666666666666666,-0.6077777777777778,-2.9375,-5.1875,40.125
1589541843.4328911,-0.34,-3.34,8.78,0.4777777777777778,0.32666666666666666,-0.6077777777777778,-1.6875,-3.4375,40.25
1589541843.4395282,-0.35,-3.38,8.75,0.4777777777777778,0.32666666666666666,-0.6077777777777778,-7.875,4.3125,36.375
1589541843.4525664,-0.38,-3.43,8.77,0.4777777777777778,0.32666666666666666,-0.6077777777777778,-1.6875,0.4375,49.625
1589541843.4606335,-0.46,-3.38,8.87,0.4777777777777778,0.32666666666666666,-0.6077777777777778,1.6875,-0.8125,49.25
1589541843.4734178,-0.49,-3.45,8.86,0.4777777777777778,0.32,-0.5933333333333334,-2.3125,-5.8125,52.0
1589541843.479692,-0.58,-3.5,8.82,0.4777777777777778,0.32,-0.5933333333333334,1.0625,-3.6875,65.5
1589541843.4916012,-0.64,-3.44,8.65,0.4777777777777778,0.32,-0.5933333333333334,-0.9375,3.4375,75.9375
1589541843.4998145,-0.65,-3.11,8.75,0.4777777777777778,0.32,-0.5933333333333334,-3.9375,-11.875,56.5625
1589541843.5109098,-0.59,-3.08,8.7,0.4777777777777778,0.32,-0.5933333333333334,-0.3125,-3.8125,78.5
1589541843.5187488,-0.56,-3.18,8.78,0.4977777777777778,0.32,-0.6,1.5625,1.4375,82.0
1589541843.53098,-0.44,-3.21,8.61,0.4977777777777778,0.32,-0.6,-4.0625,-4.4375,80.625
1589541843.5456164,-0.52,-3.22,8.78,0.4977777777777778,0.32,-0.6,4.5625,-7.5,86.9375
1589541843.5519884,-0.5,-3.21,8.76,0.4977777777777778,0.32,-0.6,-2.1875,-10.625,82.25
1589541843.5669608,-0.65,-3.13,8.84,0.4977777777777778,0.32,-0.6,4.6875,-4.6875,97.75
1589541843.57265,-0.74,-3.47,8.85,0.5166666666666667,0.2877777777777778,-0.6288888888888889,-1.1875,-9.5,102.9375
1589541843.5837572,-0.76,-3.54,8.88,0.5166666666666667,0.2877777777777778,-0.6288888888888889,3.1875,3.0625,102.6875
1589541843.5898645,-0.88,-3.5,8.68,0.5166666666666667,0.2877777777777778,-0.6288888888888889,-5.4375,-8.5,100.0625
1589541843.6031356,-0.86,-3.53,8.74,0.5166666666666667,0.2877777777777778,-0.6288888888888889,-0.9375,0.0625,99.0625
1589541843.6116247,-0.87,-3.67,8.75,0.5166666666666667,0.2877777777777778,-0.6288888888888889,2.3125,-12.625,111.25
1589541843.6235242,-0.87,-3.66,8.73,0.5222222222222223,0.26666666666666666,-0.6077777777777778,1.0625,1.3125,99.8125
1589541843.6299589,-0.97,-3.76,8.78,0.5222222222222223,0.26666666666666666,-0.6077777777777778,-4.0625,-2.4375,109.25
1589541843.6425116,-1.14,-3.81,8.69,0.5222222222222223,0.26666666666666666,-0.6077777777777778,0.9375,-0.0625,97.9375
1589541843.6505535,-1.13,-3.82,8.75,0.5222222222222223,0.26666666666666666,-0.6077777777777778,4.1875,-2.5625,106.75
1589541843.6627052,-1.12,-3.75,8.71,0.5222222222222223,0.26666666666666666,-0.6077777777777778,-6.8125,-7.25,106.0
1589541843.6690948,-1.21,-3.86,8.83,0.5288888888888889,0.2222222222222222,-0.6355555555555555,-2.0625,-4.0625,103.6875
1589541843.6805322,-1.48,-3.93,8.81,0.5288888888888889,0.2222222222222222,-0.6355555555555555,-1.4375,-10.0,110.625
1589541843.6897285,-1.5,-3.9,8.73,0.5288888888888889,0.2222222222222222,-0.6355555555555555,-4.5625,-6.6875,109.25
1589541843.6999354,-1.57,-3.92,8.73,0.5288888888888889,0.2222222222222222,-0.6355555555555555,-6.1875,-3.0625,109.875
1589541843.715924,-1.68,-4.06,8.75,0.5288888888888889,0.2222222222222222,-0.6355555555555555,-3.6875,-10.375,109.375
1589541843.7218082,-1.84,-4.11,8.78,0.5666666666666667,0.1688888888888889,-0.6411111111111111,0.6875,-2.6875,123.625
1589541843.730586,-1.73,-3.98,8.79,0.5666666666666667,0.1688888888888889,-0.6411111111111111,-3.3125,-7.375,114.8125
1589541843.7409265,-1.65,-3.85,8.65,0.5666666666666667,0.1688888888888889,-0.6411111111111111,1.5625,-2.1875,113.1875
1589541843.7543664,-1.76,-3.63,8.78,0.5666666666666667,0.1688888888888889,-0.6411111111111111,-4.9375,-6.5625,111.5
1589541843.762245,-1.6,-3.54,8.74,0.5666666666666667,0.1688888888888889,-0.6411111111111111,-2.9375,-2.4375,117.0625
1589541843.7740679,-1.78,-3.58,8.87,0.5733333333333334,0.14222222222222222,-0.6622222222222223,-6.8125,-0.6875,118.3125
1589541843.7808952,-2.12,-3.65,8.79,0.5733333333333334,0.14222222222222222,-0.6622222222222223,-6.1875,-8.0,119.0
1589541843.7913506,-2.12,-3.65,8.73,0.5733333333333334,0.14222222222222222,-0.6622222222222223,-2.4375,-3.9375,110.25
1589541843.8011756,-2.04,-3.56,8.72,0.5733333333333334,0.14222222222222222,-0.6622222222222223,-1.8125,-0.6875,110.125
1589541843.8136055,-2.11,-3.61,8.87,0.5733333333333334,0.14222222222222222,-0.6622222222222223,-1.4375,-4.1875,113.8125
1589541843.820043,-2.27,-3.59,9.01,0.5988888888888889,0.08333333333333333,-0.65,0.6875,-1.9375,126.1875
1589541843.8332946,-2.34,-3.64,8.67,0.5988888888888889,0.08333333333333333,-0.65,-2.1875,-3.3125,117.6875
1589541843.8407974,-2.31,-3.63,8.49,0.5988888888888889,0.08333333333333333,-0.65,2.0625,-8.75,129.8125
1589541843.8519068,-2.45,-3.72,8.83,0.5988888888888889,0.08333333333333333,-0.65,-3.4375,-6.6875,123.125
1589541843.868555,-2.71,-3.72,8.78,0.5988888888888889,0.08333333333333333,-0.65,2.4375,-3.8125,122.875
1589541843.8742778,-2.72,-3.66,8.84,0.59,0.03,-0.6933333333333334,3.8125,-7.5,118.0625
1589541843.8810735,-2.79,-3.66,8.71,0.59,0.03,-0.6933333333333334,-0.0625,-13.125,116.3125
1589541843.8907475,-2.72,-3.43,8.8,0.59,0.03,-0.6933333333333334,0.0625,-7.25,114.0625
1589541843.8970778,-2.72,-3.43,8.8,0.59,0.03,-0.6933333333333334,0.0625,-7.25,114.0625
1589541843.9078882,-2.89,-3.53,8.88,0.59,0.03,-0.6933333333333334,-1.8125,3.1875,119.125
1589541843.914476,-2.71,-3.32,8.67,0.59,0.03,-0.6933333333333334,4.5625,-1.0625,102.9375
1589541843.9257653,-2.63,-3.18,8.81,0.5777777777777777,-0.008888888888888889,-0.6933333333333334,8.25,-7.75,104.5625
1589541843.9324565,-2.8,-3.17,8.76,0.5777777777777777,-0.008888888888888889,-0.6933333333333334,0.9375,-1.5625,97.125
1589541843.946019,-2.87,-3.11,8.74,0.5777777777777777,-0.008888888888888889,-0.6933333333333334,-5.4375,0.9375,100.3125
1589541843.9522347,-2.95,-3.08,8.78,0.5777777777777777,-0.008888888888888889,-0.6933333333333334,4.1875,-1.0625,95.0
1589541843.963393,-2.91,-2.97,8.82,0.5777777777777777,-0.008888888888888889,-0.6933333333333334,1.3125,-3.0625,91.0
1589541843.9711852,-2.96,-2.9,8.97,0.5488888888888889,-0.06222222222222223,-0.7055555555555556,-0.6875,-7.5,99.8125
1589541843.9848814,-2.96,-2.81,8.9,0.5488888888888889,-0.06222222222222223,-0.7055555555555556,-3.1875,-4.8125,86.6875
1589541843.9920807,-2.96,-2.74,8.79,0.5488888888888889,-0.06222222222222223,-0.7055555555555556,3.4375,-0.9375,80.125
1589541844.0030315,-3.14,-2.79,8.76,0.5488888888888889,-0.06222222222222223,-0.7055555555555556,-6.6875,-7.25,84.8125
1589541844.013389,-2.95,-2.63,8.86,0.5488888888888889,-0.06222222222222223,-0.7055555555555556,-7.125,-8.5,87.9375
1589541844.0230913,-2.98,-2.61,8.96,0.56,-0.09,-0.7333333333333333,-2.1875,-5.5625,80.625
1589541844.0324705,-3.19,-2.67,8.85,0.56,-0.09,-0.7333333333333333,-4.8125,-8.75,66.875
1589541844.0441794,-3.4,-2.7,8.77,0.56,-0.09,-0.7333333333333333,3.5625,0.3125,80.625
1589541844.0547378,-3.51,-2.71,8.81,0.56,-0.09,-0.7333333333333333,5.1875,-0.9375,76.6875
1589541844.06394,-3.57,-2.67,8.82,0.56,-0.09,-0.7333333333333333,-2.4375,-5.8125,74.5625
1589541844.0719392,-3.24,-2.41,8.85,0.5255555555555556,-0.13444444444444445,-0.7477777777777778,6.0625,-5.3125,75.1875
1589541844.0834115,-3.35,-2.43,9.03,0.5255555555555556,-0.13444444444444445,-0.7477777777777778,-2.3125,-6.6875,80.25
1589541844.0978358,-3.19,-2.33,8.71,0.5255555555555556,-0.13444444444444445,-0.7477777777777778,0.6875,-8.125,76.5625
1589541844.1037376,-3.17,-2.26,8.63,0.5255555555555556,-0.13444444444444445,-0.7477777777777778,-4.3125,-7.875,70.6875
1589541844.1164384,-3.35,-2.33,8.99,0.5255555555555556,-0.13444444444444445,-0.7477777777777778,0.9375,-8.5,76.4375
1589541844.1221173,-3.32,-2.31,8.86,0.4977777777777778,-0.20777777777777776,-0.7688888888888888,2.3125,-5.5625,77.25
1589541844.1331167,-3.29,-2.27,8.89,0.4977777777777778,-0.20777777777777776,-0.7688888888888888,-1.0625,-0.3125,75.4375
1589541844.142012,-3.11,-2.04,8.97,0.4977777777777778,-0.20777777777777776,-0.7688888888888888,-1.8125,1.4375,68.75
1589541844.1556456,-2.84,-1.81,8.59,0.4977777777777778,-0.20777777777777776,-0.7688888888888888,1.0625,-9.625,74.8125
1589541844.1644642,-2.88,-1.85,8.92,0.4977777777777778,-0.20777777777777776,-0.7688888888888888,5.4375,-5.9375,84.1875
1589541844.1764176,-2.83,-1.79,9.06,0.4722222222222222,-0.22,-0.7766666666666666,-4.1875,-2.8125,72.0625
1589541844.1828346,-3.19,-1.91,8.73,0.4722222222222222,-0.22,-0.7766666666666666,8.375,2.4375,74.4375
1589541844.1927347,-3.42,-2.01,8.98,0.4722222222222222,-0.22,-0.7766666666666666,-1.4375,-4.9375,76.6875
1589541844.202563,-3.21,-1.87,8.56,0.4722222222222222,-0.22,-0.7766666666666666,0.5625,-13.75,70.6875
1589541844.2163622,-3.22,-1.86,9.09,0.4722222222222222,-0.22,-0.7766666666666666,-1.4375,-2.0625,55.875
1589541844.2224774,-3.2,-1.81,8.95,0.4477777777777778,-0.2877777777777778,-0.7533333333333333,-1.5625,-3.8125,57.3125
1589541844.2336555,-3.42,-1.77,8.76,0.4477777777777778,-0.2877777777777778,-0.7533333333333333,-4.6875,-5.4375,56.4375
1589541844.243338,-3.33,-1.77,8.88,0.4477777777777778,-0.2877777777777778,-0.7533333333333333,0.6875,3.8125,55.625
1589541844.254723,-3.29,-1.69,8.89,0.4477777777777778,-0.2877777777777778,-0.7533333333333333,4.3125,1.4375,48.3125
1589541844.2656806,-3.19,-1.67,8.77,0.4477777777777778,-0.2877777777777778,-0.7533333333333333,-3.6875,0.0625,53.5
1589541844.2757196,-3.37,-1.63,8.9,0.4088888888888889,-0.3288888888888889,-0.7744444444444445,-2.6875,0.4375,53.0
1589541844.2851858,-3.46,-1.66,9.16,0.4088888888888889,-0.3288888888888889,-0.7744444444444445,-1.3125,5.8125,46.9375
1589541844.2944179,-3.47,-1.58,8.62,0.4088888888888889,-0.3288888888888889,-0.7744444444444445,-0.1875,-0.8125,50.0
1589541844.3082604,-3.34,-1.56,8.9,0.4088888888888889,-0.3288888888888889,-0.7744444444444445,1.8125,-1.6875,42.1875
1589541844.3162062,-3.1,-1.46,8.92,0.4088888888888889,-0.3288888888888889,-0.7744444444444445,-8.625,-3.5625,33.8125
1589541844.3275278,-3.16,-1.41,9.06,0.4177777777777778,-0.3566666666666667,-0.7533333333333333,1.5625,2.5625,39.0
1589541844.3341348,-3.58,-1.53,9.07,0.4177777777777778,-0.3566666666666667,-0.7533333333333333,0.3125,-0.5625,41.875
1589541844.345666,-3.7,-1.45,8.59,0.4177777777777778,-0.3566666666666667,-0.7533333333333333,-5.0625,2.9375,46.6875
1589541844.3532176,-3.72,-1.5,8.88,0.4177777777777778,-0.3566666666666667,-0.7533333333333333,-1.0625,-0.8125,41.625
1589541844.3670664,-3.46,-1.51,8.73,0.4177777777777778,-0.3566666666666667,-0.7533333333333333,0.8125,1.8125,25.875
1589541844.3738265,-3.38,-1.41,8.95,0.32666666666666666,-0.3744444444444445,-0.7677777777777778,-5.9375,0.0625,25.5
1589541844.3848627,-3.51,-1.36,8.83,0.32666666666666666,-0.3744444444444445,-0.7677777777777778,4.0625,-11.625,20.6875
1589541844.394196,-2.8,-1.22,8.68,0.32666666666666666,-0.3744444444444445,-0.7677777777777778,4.5625,-2.3125,23.375
1589541844.4068654,-2.91,-1.3,9.17,0.32666666666666666,-0.3744444444444445,-0.7677777777777778,-0.6875,7.5,6.8125
1589541844.4212787,-3.21,-1.28,8.76,0.32666666666666666,-0.3744444444444445,-0.7677777777777778,-2.1875,-0.3125,21.75
1589541844.4268644,-3.83,-1.26,8.78,0.26222222222222225,-0.4033333333333333,-0.7111111111111111,3.9375,-4.5625,15.0625
1589541844.4386716,-3.55,-1.32,8.98,0.26222222222222225,-0.4033333333333333,-0.7111111111111111,9.375,4.3125,14.4375
1589541844.4453974,-3.71,-1.28,8.46,0.26222222222222225,-0.4033333333333333,-0.7111111111111111,-3.3125,-11.25,5.4375
1589541844.4589133,-3.53,-1.25,8.47,0.26222222222222225,-0.4033333333333333,-0.7111111111111111,-0.5625,-3.1875,5.9375
1589541844.4657395,-3.92,-1.35,9.3,0.26222222222222225,-0.4033333333333333,-0.7111111111111111,-1.8125,8.125,16.6875
1589541844.4770007,-4.01,-1.28,8.34,0.31222222222222223,-0.4011111111111111,-0.6755555555555556,0.0625,-5.0625,3.9375
1589541844.483531,-3.72,-1.3,8.93,0.31222222222222223,-0.4011111111111111,-0.6755555555555556,-7.0,5.1875,4.6875
1589541844.4895532,-3.72,-1.3,8.93,0.31222222222222223,-0.4011111111111111,-0.6755555555555556,-7.0,5.1875,4.6875
1589541844.5047824,-3.66,-1.27,8.89,0.31222222222222223,-0.4011111111111111,-0.6755555555555556,-3.9375,-2.1875,1.3125
1589541844.5165894,-3.49,-1.24,9.04,0.31222222222222223,-0.4011111111111111,-0.6755555555555556,-1.4375,-0.8125,-16.4375
1589541844.5236707,-3.39,-1.21,8.75,0.31777777777777777,-0.3888888888888889,-0.6433333333333333,3.3125,-1.9375,-5.8125
1589541844.534107,-3.5,-1.23,8.98,0.31777777777777777,-0.3888888888888889,-0.6433333333333333,4.5625,9.25,-8.5
1589541844.540364,-3.5,-1.23,8.98,0.31777777777777777,-0.3888888888888889,-0.6433333333333333,4.5625,9.25,-8.5
1589541844.5472622,-3.94,-1.24,8.67,0.31777777777777777,-0.3888888888888889,-0.6433333333333333,-3.0625,-6.4375,-13.75
1589541844.5582116,-3.64,-1.2,8.86,0.31777777777777777,-0.3888888888888889,-0.6433333333333333,2.0625,-0.8125,-7.375
1589541844.5662718,-3.77,-1.29,9.02,0.31777777777777777,-0.3888888888888889,-0.6433333333333333,1.0625,4.4375,-3.8125
1589541844.578867,-3.88,-1.26,8.61,0.3511111111111111,-0.3711111111111111,-0.65,-4.3125,-3.0625,1.4375
1589541844.5906696,-3.84,-1.35,9.02,0.3511111111111111,-0.3711111111111111,-0.65,-2.9375,1.4375,-6.1875
1589541844.5973713,-3.88,-1.33,8.99,0.3511111111111111,-0.3711111111111111,-0.65,1.9375,1.5625,-2.6875
1589541844.6104708,-4.13,-1.38,8.88,0.3511111111111111,-0.3711111111111111,-0.65,-0.6875,1.3125,-20.0625
1589541844.6161516,-3.98,-1.33,8.96,0.3511111111111111,-0.3711111111111111,-0.65,-0.4375,2.1875,-3.1875
1589541844.6248796,-3.84,-1.35,9.11,0.3655555555555556,-0.3644444444444445,-0.6288888888888889,1.3125,2.5625,-0.4375
1589541844.636564,-3.82,-1.39,9.03,0.3655555555555556,-0.3644444444444445,-0.6288888888888889,-3.5625,0.0625,-6.0625
1589541844.6463926,-3.04,-1.28,8.62,0.3655555555555556,-0.3644444444444445,-0.6288888888888889,7.125,-0.9375,-14.6875
1589541844.6557314,-3.39,-1.35,9.11,0.3655555555555556,-0.3644444444444445,-0.6288888888888889,-2.1875,-1.8125,-26.75
1589541844.6675375,-3.95,-1.42,8.95,0.3655555555555556,-0.3644444444444445,-0.6288888888888889,-3.6875,1.9375,-23.625
1589541844.6755474,-4.03,-1.48,8.98,0.3911111111111111,-0.3377777777777778,-0.65,-2.1875,2.9375,-21.125
1589541844.6882849,-3.54,-1.36,8.83,0.3911111111111111,-0.3377777777777778,-0.65,2.5625,-0.5625,-28.6875
1589541844.6967282,-3.61,-1.43,9.05,0.3911111111111111,-0.3377777777777778,-0.65,-0.4375,8.75,-29.9375
1589541844.7087355,-3.43,-1.42,8.75,0.3911111111111111,-0.3377777777777778,-0.65,0.5625,-7.875,-39.125
1589541844.7173438,-3.25,-1.34,9.29,0.3911111111111111,-0.3377777777777778,-0.65,-6.8125,-0.1875,-52.875
1589541844.727896,-2.81,-1.36,8.78,0.4044444444444445,-0.33,-0.6288888888888889,5.6875,0.9375,-58.1875
1589541844.7354212,-3.2,-1.53,8.78,0.4044444444444445,-0.33,-0.6288888888888889,-7.0,-1.0625,-84.9375
1589541844.7458177,-2.81,-1.46,8.73,0.4044444444444445,-0.33,-0.6288888888888889,3.6875,10.75,-96.625
1589541844.7608895,-2.29,-1.54,8.49,0.4044444444444445,-0.33,-0.6288888888888889,-2.1875,4.0625,-111.0
1589541844.767525,-2.61,-1.58,8.49,0.4044444444444445,-0.33,-0.6288888888888889,-4.4375,-4.8125,-124.375
1589541844.7756438,-2.69,-1.73,9.33,0.4311111111111111,-0.3377777777777778,-0.6288888888888889,6.1875,21.625,-152.25
1589541844.7873392,-2.47,-1.97,9.53,0.4311111111111111,-0.3377777777777778,-0.6288888888888889,6.3125,19.8125,-162.375
1589541844.7979114,-2.73,-2.28,8.23,0.4311111111111111,-0.3377777777777778,-0.6288888888888889,-5.9375,1.8125,-194.625
1589541844.8056064,-2.66,-2.57,8.94,0.4311111111111111,-0.3377777777777778,-0.6288888888888889,9.375,15.3125,-193.75
1589541844.8180268,-3.1,-3.2,9.57,0.4311111111111111,-0.3377777777777778,-0.6288888888888889,-1.4375,10.125,-209.9375
1589541844.825506,-2.6,-3.3,8.51,0.49,-0.2788888888888889,-0.6411111111111111,-3.3125,4.9375,-217.375
1589541844.8307402,-2.6,-3.3,8.51,0.49,-0.2788888888888889,-0.6411111111111111,-3.3125,4.9375,-217.375
1589541844.8413095,-2.57,-3.39,9.37,0.49,-0.2788888888888889,-0.6411111111111111,7.5,13.625,-228.6875
1589541844.8473566,-2.84,-3.64,8.69,0.49,-0.2788888888888889,-0.6411111111111111,1.5625,7.5,-241.9375
1589541844.8567407,-2.87,-3.62,8.26,0.49,-0.2788888888888889,-0.6411111111111111,4.3125,3.4375,-256.6875
1589541844.8678858,-3.03,-3.85,9.22,0.49,-0.2788888888888889,-0.6411111111111111,-1.9375,12.0,-260.5
1589541844.8761349,-3.13,-3.92,8.52,0.5166666666666667,-0.2111111111111111,-0.6288888888888889,1.9375,13.5,-262.875
1589541844.8867905,-3.13,-4.01,8.63,0.5166666666666667,-0.2111111111111111,-0.6288888888888889,3.9375,13.25,-266.9375
1589541844.896201,-3.26,-4.59,8.71,0.5166666666666667,-0.2111111111111111,-0.6288888888888889,3.6875,9.375,-261.375
1589541844.9067008,-3.3,-4.6,8.22,0.5166666666666667,-0.2111111111111111,-0.6288888888888889,-2.1875,4.0625,-264.5
1589541844.918504,-3.37,-4.66,9.03,0.5166666666666667,-0.2111111111111111,-0.6288888888888889,7.0,16.3125,-236.25
1589541844.9260929,-3.22,-4.77,9.01,0.5544444444444444,-0.12,-0.6433333333333333,3.0625,13.125,-255.8125
1589541844.9375966,-3.0,-4.64,8.96,0.5544444444444444,-0.12,-0.6433333333333333,-0.6875,17.3125,-238.1875
1589541844.9487464,-2.57,-4.15,8.26,0.5544444444444444,-0.12,-0.6433333333333333,-2.1875,10.25,-231.125
1589541844.9565728,-2.99,-4.58,8.93,0.5544444444444444,-0.12,-0.6433333333333333,2.4375,11.0,-220.875
1589541844.9691632,-3.11,-4.84,8.84,0.5544444444444444,-0.12,-0.6433333333333333,-1.4375,11.75,-206.625
1589541844.976484,-2.85,-4.65,8.68,0.6266666666666667,-0.022222222222222227,-0.6411111111111111,4.5625,10.75,-185.0625
1589541844.9821322,-2.85,-4.65,8.68,0.6266666666666667,-0.022222222222222227,-0.6411111111111111,4.5625,10.75,-185.0625
1589541844.9922276,-2.73,-4.5,8.71,0.6266666666666667,-0.022222222222222227,-0.6411111111111111,9.375,11.5,-178.125
1589541844.9983056,-2.74,-4.48,8.78,0.6266666666666667,-0.022222222222222227,-0.6411111111111111,-1.4375,9.625,-159.1875
1589541845.0093358,-2.61,-4.41,8.71,0.6266666666666667,-0.022222222222222227,-0.6411111111111111,3.0625,12.125,-137.75
1589541845.0188534,-2.43,-4.15,8.66,0.6266666666666667,-0.022222222222222227,-0.6411111111111111,-12.125,3.3125,-128.6875
1589541845.0263948,-2.4,-4.25,8.79,0.6755555555555556,0.03888888888888889,-0.6433333333333333,-3.1875,5.4375,-110.125
1589541845.0338604,-2.4,-4.25,8.79,0.6755555555555556,0.03888888888888889,-0.6433333333333333,-3.1875,5.4375,-110.125
1589541845.0398405,-2.23,-4.11,8.86,0.6755555555555556,0.03888888888888889,-0.6433333333333333,-0.3125,-2.4375,-95.0
1589541845.0508258,-2.06,-4.05,8.89,0.6755555555555556,0.03888888888888889,-0.6433333333333333,0.8125,2.5625,-73.1875
1589541845.0572598,-2.1,-4.19,8.77,0.6755555555555556,0.03888888888888889,-0.6433333333333333,10.125,4.5625,-50.0
1589541845.069173,-2.01,-4.04,8.62,0.6755555555555556,0.03888888888888889,-0.6433333333333333,1.6875,-2.6875,-51.0
1589541845.07682,-1.74,-4.19,8.86,0.8277777777777777,0.0811111111111111,-0.6288888888888889,-1.9375,5.0625,-27.625
1589541845.0913358,-1.56,-4.01,8.65,0.8277777777777777,0.0811111111111111,-0.6288888888888889,0.0625,-3.5625,-13.875
1589541845.0985987,-1.6,-4.05,8.58,0.8277777777777777,0.0811111111111111,-0.6288888888888889,-0.4375,-7.75,-10.75
1589541845.1081295,-1.46,-3.82,8.74,0.8277777777777777,0.0811111111111111,-0.6288888888888889,0.5625,-1.3125,-10.625
1589541845.119618,-1.39,-3.94,8.83,0.8277777777777777,0.0811111111111111,-0.6288888888888889,2.4375,-2.1875,6.6875
1589541845.1290686,-1.51,-4.13,8.98,1.1733333333333331,0.054444444444444434,-0.6077777777777778,-7.125,0.1875,13.0
1589541845.143788,-1.47,-4.16,8.69,1.1733333333333331,0.054444444444444434,-0.6077777777777778,0.0625,3.1875,22.125
1589541845.150426,-1.51,-4.06,8.87,1.1733333333333331,0.054444444444444434,-0.6077777777777778,-2.6875,-3.5625,28.6875
1589541845.1583989,-1.5,-3.93,8.67,1.1733333333333331,0.054444444444444434,-0.6077777777777778,0.9375,-4.8125,29.6875
1589541845.1708286,-1.47,-3.99,8.72,1.1733333333333331,0.054444444444444434,-0.6077777777777778,3.3125,-2.9375,52.375
1589541845.1785815,-1.39,-3.9,8.82,1.6222222222222222,-0.012222222222222223,-0.6088888888888889,4.3125,2.6875,46.9375
1589541845.188783,-1.42,-4.05,8.69,1.6222222222222222,-0.012222222222222223,-0.6088888888888889,4.1875,-1.9375,54.75
1589541845.199729,-1.39,-4.04,8.71,1.6222222222222222,-0.012222222222222223,-0.6088888888888889,2.6875,-3.4375,61.1875
1589541845.20891,-1.47,-4.0,8.69,1.6222222222222222,-0.012222222222222223,-0.6088888888888889,1.8125,-2.8125,75.8125
1589541845.2209024,-1.44,-4.04,8.96,1.6222222222222222,-0.012222222222222223,-0.6088888888888889,5.9375,-4.3125,73.6875
1589541845.2282536,-1.37,-4.07,8.54,1.2811111111111109,0.0,-0.6877777777777778,-0.5625,-11.5,84.6875
1589541845.2386055,-1.32,-4.24,8.62,1.2811111111111109,0.0,-0.6877777777777778,4.3125,-7.75,74.8125
1589541845.2487679,-1.16,-4.1,8.79,1.2811111111111109,0.0,-0.6877777777777778,-0.8125,-8.375,77.75
1589541845.2601342,-1.43,-4.18,9.03,1.2811111111111109,0.0,-0.6877777777777778,-4.3125,-1.9375,74.0625
1589541845.2712185,-1.44,-4.1,8.71,1.2811111111111109,0.0,-0.6877777777777778,3.1875,-12.5,79.375
1589541845.2820804,-1.42,-3.94,8.49,0.84,0.05333333333333334,-0.6944444444444444,-7.125,-8.125,79.5
1589541845.2944224,-1.47,-4.12,8.95,0.84,0.05333333333333334,-0.6944444444444444,-6.3125,-3.4375,75.8125
1589541845.300912,-1.49,-3.93,8.48,0.84,0.05333333333333334,-0.6944444444444444,3.5625,0.5625,71.1875
1589541845.3096194,-1.51,-4.02,8.75,0.84,0.05333333333333334,-0.6944444444444444,2.3125,-2.6875,76.0625
1589541845.3212745,-1.55,-3.97,8.7,0.84,0.05333333333333334,-0.6944444444444444,-0.8125,-2.3125,68.375
1589541845.3330915,-1.47,-3.92,8.8,0.6877777777777778,0.03555555555555556,-0.6944444444444444,6.5625,-4.8125,72.5625
1589541845.3388634,-1.66,-4.1,8.8,0.6877777777777778,0.03555555555555556,-0.6944444444444444,-5.1875,1.3125,69.5
1589541845.3537102,-1.74,-4.18,8.82,0.6877777777777778,0.03555555555555556,-0.6944444444444444,-1.9375,-1.0625,56.0625
1589541845.3592222,-1.64,-4.19,8.5,0.6877777777777778,0.03555555555555556,-0.6944444444444444,-8.625,-10.0,56.0625
1589541845.3715065,-1.66,-4.1,8.86,0.6877777777777778,0.03555555555555556,-0.6944444444444444,0.1875,-3.3125,53.875
1589541845.3787804,-1.68,-4.0,8.73,0.6166666666666667,0.042222222222222223,-0.6788888888888889,2.8125,1.1875,39.25
1589541845.3891597,-1.76,-4.06,8.84,0.6166666666666667,0.042222222222222223,-0.6788888888888889,-7.25,-10.25,43.8125
1589541845.399816,-1.78,-4.03,8.65,0.6166666666666667,0.042222222222222223,-0.6788888888888889,-1.9375,-3.9375,30.9375
1589541845.4099605,-1.91,-4.0,8.67,0.6166666666666667,0.042222222222222223,-0.6788888888888889,-0.6875,-0.8125,28.5625
1589541845.4249234,-1.86,-4.01,8.81,0.6166666666666667,0.042222222222222223,-0.6788888888888889,-0.4375,-3.1875,22.0
1589541845.4307187,-1.96,-4.0,8.78,0.5788888888888889,0.048888888888888885,-0.6944444444444444,0.3125,-6.0625,16.8125
1589541845.4382124,-1.9,-3.66,8.77,0.5788888888888889,0.048888888888888885,-0.6944444444444444,-0.9375,-1.0625,23.625
1589541845.450197,-1.81,-3.46,8.71,0.5788888888888889,0.048888888888888885,-0.6944444444444444,4.1875,5.9375,-0.3125
1589541845.4590194,-1.66,-3.46,8.82,0.5788888888888889,0.048888888888888885,-0.6944444444444444,-0.4375,-3.8125,1.8125
1589541845.4711375,-1.7,-3.67,8.77,0.5788888888888889,0.048888888888888885,-0.6944444444444444,6.3125,0.6875,-3.0625
1589541845.48094,-1.65,-3.6,8.8,0.5722222222222222,0.04,-0.6944444444444444,4.6875,11.875,-14.6875
1589541845.490217,-1.69,-3.69,8.75,0.5722222222222222,0.04,-0.6944444444444444,-2.1875,-8.5,-6.1875
1589541845.5047562,-1.6,-3.64,8.61,0.5722222222222222,0.04,-0.6944444444444444,0.1875,3.0625,-21.5
1589541845.5115905,-1.62,-3.55,8.69,0.5722222222222222,0.04,-0.6944444444444444,4.8125,0.8125,-14.6875
1589541845.5259798,-1.5,-3.47,8.65,0.5722222222222222,0.04,-0.6944444444444444,-1.0625,-2.0625,-22.0
1589541845.5315707,-1.24,-3.13,8.59,0.5688888888888889,0.03333333333333333,-0.6944444444444444,-5.0625,7.875,-27.125
1589541845.5410008,-1.41,-3.47,9.12,0.5688888888888889,0.03333333333333333,-0.6944444444444444,1.9375,11.0,-40.875
1589541845.5502982,-1.48,-3.51,8.52,0.5688888888888889,0.03333333333333333,-0.6944444444444444,-2.1875,-1.6875,-41.625
1589541845.5611086,-1.45,-3.47,8.95,0.5688888888888889,0.03333333333333333,-0.6944444444444444,1.1875,1.8125,-45.6875
1589541845.5728385,-1.52,-3.58,8.67,0.5688888888888889,0.03333333333333333,-0.6944444444444444,1.8125,6.6875,-58.5625
1589541845.581117,-1.55,-3.55,9.03,0.5611111111111111,0.03333333333333333,-0.6944444444444444,0.9375,8.25,-57.3125
1589541845.5901368,-1.61,-3.61,8.78,0.5611111111111111,0.03333333333333333,-0.6944444444444444,6.0625,3.8125,-57.0625
1589541845.6009002,-1.51,-3.63,8.52,0.5611111111111111,0.03333333333333333,-0.6944444444444444,6.3125,9.375,-55.5
1589541845.6113722,-1.46,-3.8,8.77,0.5611111111111111,0.03333333333333333,-0.6944444444444444,4.0625,8.25,-61.1875
1589541845.6230125,-1.54,-3.59,8.78,0.5611111111111111,0.03333333333333333,-0.6944444444444444,-2.8125,-4.4375,-58.0625
1589541845.6330874,-1.59,-3.61,8.88,0.5466666666666666,0.045555555555555564,-0.6855555555555556,-6.1875,-1.3125,-65.375
1589541845.64044,-1.51,-3.7,8.83,0.5466666666666666,0.045555555555555564,-0.6855555555555556,4.3125,1.3125,-69.5
1589541845.6556942,-1.44,-3.71,8.7,0.5466666666666666,0.045555555555555564,-0.6855555555555556,-2.3125,2.5625,-62.4375
1589541845.6620154,-1.64,-3.78,8.75,0.5466666666666666,0.045555555555555564,-0.6855555555555556,-0.4375,4.4375,-60.1875
1589541845.6741474,-1.57,-3.88,8.68,0.5466666666666666,0.045555555555555564,-0.6855555555555556,-2.1875,0.5625,-56.9375
1589541845.6808598,-1.55,-3.96,8.86,0.5277777777777778,0.06,-0.6788888888888889,6.1875,-2.6875,-55.25
1589541845.6913311,-1.5,-3.8,9.0,0.5277777777777778,0.06,-0.6788888888888889,-1.9375,7.75,-53.75
1589541845.7004802,-1.55,-3.95,9.22,0.5277777777777778,0.06,-0.6788888888888889,-3.6875,3.6875,-53.375
1589541845.7108533,-1.34,-3.75,8.79,0.5277777777777778,0.06,-0.6788888888888889,0.0625,0.8125,-48.6875
1589541845.7226324,-24.37,-31.81,1.36,0.5277777777777778,0.06,-0.6788888888888889,-50.875,65.5,-156.5625
1589541845.734324,5.99,8.59,2.83,0.5044444444444445,0.12777777777777774,-0.6733333333333333,-19.0625,10.0,-191.0
1589541845.741451,-1.35,-1.24,10.52,0.5044444444444445,0.12777777777777774,-0.6733333333333333,59.4375,-7.75,-185.5625
1589541845.7533734,1.24,-0.56,9.99,0.5044444444444445,0.12777777777777774,-0.6733333333333333,-18.6875,4.1875,-147.125
1589541845.7611115,0.38,0.11,8.27,0.5044444444444445,0.12777777777777774,-0.6733333333333333,-9.125,8.375,-140.4375
1589541845.7742615,0.05,-0.84,9.09,0.5044444444444445,0.12777777777777774,-0.6733333333333333,16.3125,15.6875,-121.125
1589541845.780119,-0.48,-0.44,7.97,0.51,0.16444444444444445,-0.6644444444444444,-10.25,-8.0,-93.25
1589541845.79078,-0.48,-0.44,7.97,0.51,0.16444444444444445,-0.6644444444444444,-10.25,-8.0,-93.25
1589541845.8009713,-1.03,-2.54,8.45,0.51,0.16444444444444445,-0.6644444444444444,6.3125,3.8125,-43.1875
1589541845.8113945,-0.98,-2.71,7.9,0.51,0.16444444444444445,-0.6644444444444444,0.8125,-9.0,-22.875
1589541845.828018,-1.02,-3.13,9.39,0.51,0.16444444444444445,-0.6644444444444444,-0.9375,12.125,-7.625
1589541845.833441,-1.28,-3.2,8.46,0.4633333333333333,0.2411111111111111,-0.6733333333333333,5.9375,-4.0625,23.75
1589541845.8452425,-1.18,-3.29,8.72,0.4633333333333333,0.2411111111111111,-0.6733333333333333,0.9375,3.8125,44.8125
1589541845.8511505,-0.73,-3.26,8.62,0.4633333333333333,0.2411111111111111,-0.6733333333333333,-7.625,-7.5,45.0625
1589541845.8653214,-0.47,-3.17,8.59,0.4633333333333333,0.2411111111111111,-0.6733333333333333,1.3125,-1.6875,32.8125
1589541845.87337,-0.31,-3.08,8.8,0.4633333333333333,0.2411111111111111,-0.6733333333333333,-1.6875,-1.0625,30.5625
1589541845.882463,-0.48,-3.12,8.86,0.4655555555555556,0.2488888888888889,-0.6666666666666666,0.0625,1.3125,27.125
1589541845.8912401,1.32,-9.47,9.33,0.4655555555555556,0.2488888888888889,-0.6666666666666666,-12.875,-0.3125,-60.3125
1589541845.9034235,-0.32,0.44,4.83,0.4655555555555556,0.2488888888888889,-0.6666666666666666,7.375,37.75,-51.5
1589541845.9121356,-0.87,0.09,12.26,0.4655555555555556,0.2488888888888889,-0.6666666666666666,-9.25,-21.875,-25.625
1589541845.923486,-0.46,-1.52,7.0,0.4655555555555556,0.2488888888888889,-0.6666666666666666,-5.6875,8.625,-2.4375
1589541845.9307456,-0.92,-2.97,10.84,0.4666666666666667,0.24444444444444444,-0.6522222222222223,9.625,2.3125,-0.8125
1589541845.9416945,-0.92,-2.97,10.84,0.4666666666666667,0.24444444444444444,-0.6522222222222223,9.625,2.3125,-0.8125
1589541845.9520705,-1.2,-4.83,8.64,0.4666666666666667,0.24444444444444444,-0.6522222222222223,-1.6875,10.625,-19.9375
1589541845.9628794,-0.65,-3.16,9.12,0.4666666666666667,0.24444444444444444,-0.6522222222222223,1.9375,1.5625,-1.5625
1589541845.973993,-0.48,-4.44,8.95,0.4666666666666667,0.24444444444444444,-0.6522222222222223,-2.3125,0.9375,-1.3125
1589541845.9825342,-0.6,-4.43,8.76,0.46,0.24,-0.6733333333333333,-4.0625,-0.9375,-3.3125
1589541845.9929905,-0.77,-4.24,8.63,0.46,0.24,-0.6733333333333333,0.1875,-3.6875,6.4375
1589541846.0051515,-0.62,-4.34,8.64,0.46,0.24,-0.6733333333333333,1.6875,-1.1875,-7.125
1589541846.0137467,-0.68,-4.35,8.66,0.46,0.24,-0.6733333333333333,5.3125,3.4375,-1.9375
1589541846.025213,-0.69,-4.28,8.71,0.46,0.24,-0.6733333333333333,2.8125,1.6875,-0.1875
1589541846.0359066,-0.6,-4.39,8.87,0.46,0.25222222222222224,-0.6644444444444444,1.4375,4.6875,7.5
1589541846.0429726,-0.63,-4.35,8.82,0.46,0.25222222222222224,-0.6644444444444444,2.4375,1.3125,-5.4375
1589541846.0529485,-0.64,-4.39,8.62,0.46,0.25222222222222224,-0.6644444444444444,4.8125,6.8125,-0.5625
1589541846.0637758,-0.61,-4.4,8.68,0.46,0.25222222222222224,-0.6644444444444444,-2.6875,-7.5,-2.8125
1589541846.075551,-0.65,-4.35,8.7,0.46,0.25222222222222224,-0.6644444444444444,-0.4375,-4.8125,-6.3125
1589541846.082843,-0.63,-4.34,8.82,0.4477777777777778,0.24,-0.6588888888888889,4.6875,0.8125,1.3125
1589541846.0934515,-0.66,-4.34,8.79,0.4477777777777778,0.24,-0.6588888888888889,-1.1875,-0.3125,-7.5
1589541846.1073437,-0.64,-4.35,8.6,0.4477777777777778,0.24,-0.6588888888888889,-0.0625,0.9375,3.6875
1589541846.1137269,-0.64,-4.4,8.61,0.4477777777777778,0.24,-0.6588888888888889,4.1875,-1.4375,0.3125
1589541846.1303322,-0.63,-4.35,8.73,0.4477777777777778,0.24,-0.6588888888888889,-4.4375,-0.8125,-3.3125
1589541846.1367953,-0.62,-4.34,8.79,0.4866666666666667,0.2533333333333333,-0.6733333333333333,-2.0625,7.5,3.3125
1589541846.1436243,-0.64,-4.36,8.78,0.4866666666666667,0.2533333333333333,-0.6733333333333333,3.9375,5.1875,5.6875
1589541846.156016,-0.66,-4.36,8.63,0.4866666666666667,0.2533333333333333,-0.6733333333333333,-6.8125,1.8125,10.25
1589541846.168373,-0.64,-4.41,8.67,0.4866666666666667,0.2533333333333333,-0.6733333333333333,3.8125,3.6875,-4.0625
1589541846.1759794,-0.65,-4.36,8.72,0.4866666666666667,0.2533333333333333,-0.6733333333333333,5.5625,-1.5625,-0.9375
1589541846.1886973,-0.65,-4.34,8.75,0.4811111111111111,0.2488888888888889,-0.6788888888888889,4.4375,1.6875,-7.25
1589541846.1958597,-0.64,-4.34,8.76,0.4811111111111111,0.2488888888888889,-0.6788888888888889,3.4375,-3.4375,-2.6875
1589541846.208926,-0.67,-4.37,8.67,0.4811111111111111,0.2488888888888889,-0.6788888888888889,-4.0625,7.0,2.8125
1589541846.215501,-0.64,-4.36,8.65,0.4811111111111111,0.2488888888888889,-0.6788888888888889,-1.4375,-0.1875,0.0625
1589541846.2271194,-0.66,-4.36,8.72,0.4811111111111111,0.2488888888888889,-0.6788888888888889,1.0625,1.6875,2.1875
1589541846.2332525,-0.64,-4.33,8.75,0.4744444444444445,0.2611111111111111,-0.6733333333333333,-6.3125,-3.9375,6.1875
1589541846.2469347,-0.62,-4.33,8.78,0.4744444444444445,0.2611111111111111,-0.6733333333333333,-6.6875,-1.0625,-3.1875
1589541846.258278,-0.65,-4.36,8.67,0.4744444444444445,0.2611111111111111,-0.6733333333333333,-0.9375,-8.125,-0.8125
1589541846.264033,-0.63,-4.39,8.69,0.4744444444444445,0.2611111111111111,-0.6733333333333333,-2.0625,1.6875,0.3125
1589541846.2821364,-0.63,-4.41,8.69,0.4744444444444445,0.2611111111111111,-0.6733333333333333,0.1875,7.0,10.375
1589541846.2881515,-0.64,-4.36,8.75,0.46,0.2611111111111111,-0.6666666666666666,-6.5625,5.9375,-3.5625
1589541846.2951536,-0.64,-4.34,8.77,0.46,0.2611111111111111,-0.6666666666666666,0.1875,-0.1875,0.3125
1589541846.3070052,-0.63,-4.34,8.67,0.46,0.2611111111111111,-0.6666666666666666,2.8125,0.3125,5.1875
1589541846.3204641,-0.64,-4.37,8.68,0.46,0.2611111111111111,-0.6666666666666666,-1.4375,-1.0625,-1.8125
1589541846.3265526,-0.66,-4.38,8.69,0.46,0.2611111111111111,-0.6666666666666666,1.3125,1.6875,4.5625
1589541846.3389707,-0.63,-4.36,8.77,0.4666666666666667,0.2533333333333333,-0.6588888888888889,-5.1875,-0.3125,3.9375
1589541846.3452678,-0.62,-4.32,8.74,0.4666666666666667,0.2533333333333333,-0.6588888888888889,2.3125,2.4375,3.3125
1589541846.3547199,-0.66,-4.35,8.68,0.4666666666666667,0.2533333333333333,-0.6588888888888889,0.9375,7.0,-0.5625
1589541846.3670342,-0.62,-4.37,8.67,0.4666666666666667,0.2533333333333333,-0.6588888888888889,-4.4375,0.4375,4.5625
1589541846.3790345,-0.63,-4.38,8.72,0.4666666666666667,0.2533333333333333,-0.6588888888888889,-4.1875,1.5625,0.9375
1589541846.3854887,-0.64,-4.38,8.73,0.46,0.2488888888888889,-0.6733333333333333,-6.0625,2.0625,-6.3125
1589541846.3949287,-0.64,-4.35,8.76,0.46,0.2488888888888889,-0.6733333333333333,-3.8125,-0.0625,3.8125
1589541846.405652,-0.65,-4.33,8.66,0.46,0.2488888888888889,-0.6733333333333333,-4.6875,-1.1875,-2.6875
1589541846.4189105,-0.67,-4.36,8.7,0.46,0.2488888888888889,-0.6733333333333333,4.9375,-0.3125,1.1875
1589541846.4271502,-0.64,-4.37,8.71,0.46,0.2488888888888889,-0.6733333333333333,4.6875,-4.9375,-0.4375
1589541846.438449,-0.65,-4.37,8.74,0.4544444444444444,0.2488888888888889,-0.6733333333333333,0.9375,-3.4375,-3.6875
1589541846.4461658,-0.64,-4.36,8.72,0.4544444444444444,0.2488888888888889,-0.6733333333333333,2.0625,4.3125,0.8125
1589541846.4561546,-0.64,-4.35,8.67,0.4544444444444444,0.2488888888888889,-0.6733333333333333,3.9375,6.6875,3.6875
1589541846.465639,-0.66,-4.35,8.67,0.4544444444444444,0.2488888888888889,-0.6733333333333333,-1.0625,-0.5625,-1.6875
1589541846.4772522,-0.65,-4.35,8.72,0.4544444444444444,0.2488888888888889,-0.6733333333333333,-5.9375,-8.875,2.0625
1589541846.4907596,-0.64,-4.37,8.73,0.4566666666666666,0.26666666666666666,-0.6855555555555556,5.4375,3.8125,-4.6875
1589541846.4975214,-0.64,-4.36,8.74,0.4566666666666666,0.26666666666666666,-0.6855555555555556,9.875,1.5625,-1.1875
1589541846.5111582,-0.66,-4.35,8.67,0.4566666666666666,0.26666666666666666,-0.6855555555555556,-4.0625,2.5625,-3.4375
1589541846.5179305,-0.64,-4.35,8.71,0.4566666666666666,0.26666666666666666,-0.6855555555555556,5.4375,-6.8125,-7.25
1589541846.5283225,-0.64,-4.36,8.76,0.4566666666666666,0.26666666666666666,-0.6855555555555556,-0.1875,-4.6875,-6.3125
1589541846.5349727,-0.66,-4.37,8.74,0.4755555555555556,0.2533333333333333,-0.6577777777777778,0.3125,2.8125,-4.9375
1589541846.549758,-0.65,-4.37,8.77,0.4755555555555556,0.2533333333333333,-0.6577777777777778,1.3125,4.1875,-1.5625
1589541846.555614,-0.63,-4.36,8.66,0.4755555555555556,0.2533333333333333,-0.6577777777777778,0.6875,1.0625,4.3125
1589541846.5699894,-0.65,-4.35,8.71,0.4755555555555556,0.2533333333333333,-0.6577777777777778,-4.1875,5.0625,0.4375
1589541846.5784194,-0.65,-4.38,8.71,0.4755555555555556,0.2533333333333333,-0.6577777777777778,-1.4375,1.1875,6.4375
1589541846.5898721,-0.65,-4.37,8.74,0.4566666666666666,0.2611111111111111,-0.6411111111111111,0.9375,-0.8125,0.5625
1589541846.5961552,-0.64,-4.35,8.72,0.4566666666666666,0.2611111111111111,-0.6411111111111111,1.8125,-4.1875,7.625
1589541846.6059902,-0.65,-4.35,8.63,0.4566666666666666,0.2611111111111111,-0.6411111111111111,2.6875,0.0625,-2.1875
1589541846.6167793,-0.65,-4.35,8.68,0.4566666666666666,0.2611111111111111,-0.6411111111111111,5.4375,-3.9375,-1.6875
1589541846.6283755,-0.63,-4.36,8.73,0.4566666666666666,0.2611111111111111,-0.6411111111111111,1.1875,2.0625,-4.3125
1589541846.6362598,-0.66,-4.36,8.74,0.4755555555555556,0.2533333333333333,-0.6644444444444444,1.0625,-2.4375,9.5
1589541846.64837,-0.63,-4.36,8.75,0.4755555555555556,0.2533333333333333,-0.6644444444444444,1.6875,2.4375,-6.8125
1589541846.6566732,-0.64,-4.35,8.67,0.4755555555555556,0.2533333333333333,-0.6644444444444444,2.3125,0.1875,-6.6875
1589541846.6686044,-0.67,-4.35,8.71,0.4755555555555556,0.2533333333333333,-0.6644444444444444,5.4375,5.6875,-11.625
1589541846.6835597,-0.65,-4.35,8.73,0.4755555555555556,0.2533333333333333,-0.6644444444444444,-3.0625,4.5625,-6.4375
1589541846.6902938,-0.63,-4.37,8.74,0.4755555555555556,0.2733333333333333,-0.6577777777777778,-0.1875,10.0,-4.9375
1589541846.700922,-0.66,-4.36,8.7,0.4755555555555556,0.2733333333333333,-0.6577777777777778,-0.0625,0.0625,10.875
1589541846.706608,-0.63,-4.35,8.64,0.4755555555555556,0.2733333333333333,-0.6577777777777778,-6.8125,-2.5625,1.5625
1589541846.7208705,-0.65,-4.34,8.7,0.4755555555555556,0.2733333333333333,-0.6577777777777778,-2.1875,-2.3125,2.4375
1589541846.7291665,-0.66,-4.34,8.76,0.4755555555555556,0.2733333333333333,-0.6577777777777778,5.3125,2.1875,-3.9375
1589541846.7382536,-0.64,-4.35,8.73,0.4622222222222222,0.2488888888888889,-0.6766666666666666,1.6875,-0.0625,-0.8125
1589541846.7462714,-0.66,-4.37,8.75,0.4622222222222222,0.2488888888888889,-0.6766666666666666,6.6875,-4.8125,-2.8125
1589541846.7586145,-0.63,-4.36,8.64,0.4622222222222222,0.2488888888888889,-0.6766666666666666,0.9375,1.6875,1.3125
1589541846.7675874,-0.62,-4.32,8.73,0.4622222222222222,0.2488888888888889,-0.6766666666666666,6.4375,4.3125,0.6875
1589541846.7785606,-0.64,-4.35,8.74,0.4622222222222222,0.2488888888888889,-0.6766666666666666,-0.5625,1.3125,6.4375
1589541846.7864141,-0.64,-4.35,8.76,0.4833333333333333,0.2488888888888889,-0.6933333333333334,5.1875,0.9375,1.1875
1589541846.7980769,-0.64,-4.37,8.75,0.4833333333333333,0.2488888888888889,-0.6933333333333334,3.9375,2.0625,-12.5
1589541846.8071096,-0.64,-4.36,8.63,0.4833333333333333,0.2488888888888889,-0.6933333333333334,-3.6875,3.0625,-2.6875
1589541846.8198035,-0.65,-4.36,8.69,0.4833333333333333,0.2488888888888889,-0.6933333333333334,6.6875,3.4375,1.3125
1589541846.8339837,-0.65,-4.34,8.73,0.4833333333333333,0.2488888888888889,-0.6933333333333334,-1.3125,-2.3125,-5.3125
1589541846.840069,-0.66,-4.35,8.74,0.4688888888888889,0.2611111111111111,-0.6855555555555556,-1.8125,0.9375,-4.5625
1589541846.852241,-0.64,-4.35,8.72,0.4688888888888889,0.2611111111111111,-0.6855555555555556,8.125,2.4375,-3.1875
1589541846.8581026,-0.64,-4.39,8.63,0.4688888888888889,0.2611111111111111,-0.6855555555555556,-0.6875,2.5625,9.25
1589541846.8717418,-0.64,-4.35,8.64,0.4688888888888889,0.2611111111111111,-0.6855555555555556,0.0625,3.6875,-4.5625
1589541846.8799198,-0.64,-4.35,8.76,0.4688888888888889,0.2611111111111111,-0.6855555555555556,8.0,4.6875,-4.3125
1589541846.892127,-0.62,-4.36,8.75,0.4888888888888889,0.2611111111111111,-0.6711111111111111,2.1875,-2.3125,-0.5625
1589541846.8981442,-0.65,-4.37,8.75,0.4888888888888889,0.2611111111111111,-0.6711111111111111,1.1875,3.6875,8.625
1589541846.9082215,-0.64,-4.36,8.67,0.4888888888888889,0.2611111111111111,-0.6711111111111111,2.0625,1.1875,0.6875
1589541846.9177456,-0.63,-4.35,8.71,0.4888888888888889,0.2611111111111111,-0.6711111111111111,3.1875,0.8125,1.8125
1589541846.929929,-0.65,-4.35,8.73,0.4888888888888889,0.2611111111111111,-0.6711111111111111,1.5625,3.0625,-1.8125
1589541846.937387,-0.65,-4.35,8.74,0.4755555555555556,0.2533333333333333,-0.6711111111111111,-2.3125,-0.6875,3.4375
1589541846.9470162,-0.64,-4.36,8.69,0.4755555555555556,0.2533333333333333,-0.6711111111111111,-2.1875,3.5625,-10.75
1589541846.9580245,-0.65,-4.36,8.62,0.4755555555555556,0.2533333333333333,-0.6711111111111111,2.0625,-1.4375,-2.8125
1589541846.9702828,-0.65,-4.36,8.67,0.4755555555555556,0.2533333333333333,-0.6711111111111111,4.1875,4.0625,-3.8125
