time,acc_x,acc_y,acc_z,mag_x,mag_y,mag_z,gyr_x,gyr_y,gyr_z
1589543988.5267758,0.17,-4.17,8.84,0.4711111111111111,0.2788888888888889,-0.6844444444444444,0.125,0.0,-0.0625
1589543988.5371118,0.17,-4.17,8.73,0.4711111111111111,0.2788888888888889,-0.6844444444444444,-0.0625,-0.125,-0.0625
1589543988.5434182,0.19,-4.18,8.82,0.4711111111111111,0.2788888888888889,-0.6844444444444444,-0.125,0.0625,-0.0625
1589543988.5573752,0.18,-4.17,8.82,0.4711111111111111,0.2788888888888889,-0.6844444444444444,0.0,0.0,-0.0625
1589543988.5640295,0.15,-4.17,8.84,0.4566666666666666,0.2644444444444444,-0.6844444444444444,-0.125,0.0625,-0.125
1589543988.5738235,0.17,-4.17,8.81,0.4566666666666666,0.2644444444444444,-0.6844444444444444,-0.25,-0.125,0.0
1589543988.5835779,0.17,-4.18,8.7,0.4566666666666666,0.2644444444444444,-0.6844444444444444,-0.3125,-0.5625,0.125
1589543988.59455,0.18,-4.18,8.79,0.4566666666666666,0.2644444444444444,-0.6844444444444444,-0.5625,-0.5625,0.0625
1589543988.6080866,0.19,-4.19,8.8,0.4566666666666666,0.2644444444444444,-0.6844444444444444,-0.5625,-0.75,0.0625
1589543988.6143546,0.21,-4.19,8.88,0.4711111111111111,0.27111111111111114,-0.6844444444444444,-0.375,-0.375,-0.25
1589543988.6284726,0.19,-4.17,8.83,0.4711111111111111,0.27111111111111114,-0.6844444444444444,-0.125,0.0,0.0625
1589543988.6344676,0.2,-4.19,8.76,0.4711111111111111,0.27111111111111114,-0.6844444444444444,0.25,0.25,0.0
1589543988.6481538,0.2,-4.18,8.78,0.4711111111111111,0.27111111111111114,-0.6844444444444444,0.125,0.5,0.0625
1589543988.6559598,0.18,-4.18,8.83,0.4711111111111111,0.27111111111111114,-0.6844444444444444,0.1875,0.4375,0.0625
1589543988.6677694,0.18,-4.18,8.85,0.4566666666666666,0.2788888888888889,-0.67,0.0625,0.4375,0.0
1589543988.6745744,0.16,-4.17,8.82,0.4566666666666666,0.2788888888888889,-0.67,-0.0625,0.125,0.1875
1589543988.687714,0.18,-4.2,8.71,0.4566666666666666,0.2788888888888889,-0.67,-0.0625,-0.1875,0.0
1589543988.6934824,0.18,-4.19,8.78,0.4566666666666666,0.2788888888888889,-0.67,0.0,-0.375,0.0
1589543988.707998,0.18,-4.16,8.79,0.4566666666666666,0.2788888888888889,-0.67,-0.3125,-0.1875,-0.125
1589543988.7145536,0.17,-4.18,8.78,0.4755555555555556,0.2588888888888889,-0.6977777777777778,-0.3125,-0.4375,0.0
1589543988.7240064,0.16,-4.19,8.71,0.4755555555555556,0.2588888888888889,-0.6977777777777778,-1.0,-1.5625,0.0
1589543988.7340195,0.34,-4.3,9.17,0.4755555555555556,0.2588888888888889,-0.6977777777777778,-0.8125,-1.1875,-0.125
1589543988.7439847,0.05,-4.1,8.5,0.4755555555555556,0.2588888888888889,-0.6977777777777778,0.375,1.0,-0.0625
1589543988.756587,0.29,-4.24,8.99,0.4755555555555556,0.2588888888888889,-0.6977777777777778,-0.8125,-1.125,0.125
1589543988.7658873,0.18,-4.19,8.79,0.4633333333333333,0.2644444444444444,-0.6844444444444444,-0.0625,0.0625,0.0625
1589543988.774886,0.17,-4.17,8.77,0.4633333333333333,0.2644444444444444,-0.6844444444444444,-0.0625,-0.0625,0.0
1589543988.7866414,0.19,-4.2,8.78,0.4633333333333333,0.2644444444444444,-0.6844444444444444,-0.1875,-0.3125,-0.0625
1589543988.7949564,0.18,-4.18,8.77,0.4633333333333333,0.2644444444444444,-0.6844444444444444,-0.1875,0.125,-0.0625
1589543988.8067198,0.19,-4.18,8.81,0.4633333333333333,0.2644444444444444,-0.6844444444444444,-0.1875,0.125,-0.0625
1589543988.8175,0.2,-4.18,8.86,0.4711111111111111,0.2644444444444444,-0.7055555555555556,-0.375,0.0625,-0.125
1589543988.8248222,0.19,-4.19,8.83,0.4711111111111111,0.2644444444444444,-0.7055555555555556,-0.4375,0.0625,-0.125
1589543988.8388884,0.14,-4.11,8.61,0.4711111111111111,0.2644444444444444,-0.7055555555555556,-0.8125,-1.0625,0.0
1589543988.8447945,0.38,-4.24,9.27,0.4711111111111111,0.2644444444444444,-0.7055555555555556,-0.4375,-1.0625,-0.375
1589543988.8578398,0.06,-4.2,8.53,0.4711111111111111,0.2644444444444444,-0.7055555555555556,1.125,1.9375,-0.5625
1589543988.8646224,0.42,-4.24,9.33,0.4566666666666666,0.27111111111111114,-0.6766666666666666,-1.375,-2.0625,-0.375
1589543988.8754392,0.2,-4.16,8.83,0.4566666666666666,0.27111111111111114,-0.6766666666666666,-0.375,0.125,-0.9375
1589543988.884699,0.06,-4.02,8.47,0.4566666666666666,0.27111111111111114,-0.6766666666666666,0.125,1.0,-1.1875
1589543988.8947144,0.26,-3.85,8.92,0.4566666666666666,0.27111111111111114,-0.6766666666666666,-1.125,-0.6875,-1.375
1589543988.9076107,0.23,-3.49,8.77,0.4566666666666666,0.27111111111111114,-0.6766666666666666,-0.5,0.5,-1.75
1589543988.9141138,0.17,-3.27,8.8,0.4755555555555556,0.2644444444444444,-0.6844444444444444,-1.0,0.0625,-1.8125
1589543988.924642,0.13,-3.17,8.93,0.4755555555555556,0.2644444444444444,-0.6844444444444444,-1.4375,-0.75,-0.875
1589543988.9341269,-0.16,-2.59,9.23,0.4755555555555556,0.2644444444444444,-0.6844444444444444,-2.8125,-2.8125,0.375
1589543988.9444592,-0.12,-2.68,8.77,0.4755555555555556,0.2644444444444444,-0.6844444444444444,-2.1875,-1.625,2.75
1589543988.9565208,-0.1,-2.82,8.84,0.4755555555555556,0.2644444444444444,-0.6844444444444444,-1.0,-0.75,5.4375
1589543988.9652324,-0.02,-2.9,8.98,0.4755555555555556,0.2644444444444444,-0.6766666666666666,0.5,0.1875,11.375
1589543988.9744349,-0.01,-3.02,8.87,0.4755555555555556,0.2644444444444444,-0.6766666666666666,0.75,-0.4375,18.8125
1589543988.9905612,-0.05,-3.04,8.74,0.4755555555555556,0.2644444444444444,-0.6766666666666666,0.125,-0.9375,25.3125
1589543988.9974182,-0.06,-3.09,8.84,0.4755555555555556,0.2644444444444444,-0.6766666666666666,0.3125,-1.25,31.8125
1589543989.0118945,-0.06,-3.1,8.86,0.4755555555555556,0.2644444444444444,-0.6766666666666666,0.4375,-1.3125,38.4375
1589543989.0180688,-0.07,-3.12,8.83,0.4888888888888889,0.28444444444444444,-0.6766666666666666,0.5,-1.25,44.625
1589543989.026954,-0.09,-3.13,8.87,0.4888888888888889,0.28444444444444444,-0.6766666666666666,0.4375,-2.0,50.375
1589543989.0355392,-0.18,-3.14,8.71,0.4888888888888889,0.28444444444444444,-0.6766666666666666,0.125,-2.8125,55.75
1589543989.0467482,-0.15,-3.14,8.88,0.4888888888888889,0.28444444444444444,-0.6766666666666666,0.0,-3.0625,61.6875
1589543989.0578175,-0.13,-3.11,8.75,0.4888888888888889,0.28444444444444444,-0.6766666666666666,0.625,-2.4375,67.375
1589543989.0696418,-0.14,-3.14,8.89,0.4744444444444445,0.2644444444444444,-0.6911111111111111,0.375,-3.4375,71.625
1589543989.0755801,-0.14,-3.2,8.91,0.4744444444444445,0.2644444444444444,-0.6911111111111111,0.25,-4.0625,75.0625
1589543989.087594,-0.18,-3.29,8.71,0.4744444444444445,0.2644444444444444,-0.6911111111111111,0.375,-3.625,77.75
1589543989.0966272,-0.19,-3.34,8.81,0.4744444444444445,0.2644444444444444,-0.6911111111111111,0.4375,-3.8125,80.0
1589543989.107917,-0.18,-3.34,8.93,0.4744444444444445,0.2644444444444444,-0.6911111111111111,0.5,-3.6875,81.4375
1589543989.1156747,-0.22,-3.36,8.86,0.4811111111111111,0.2588888888888889,-0.6977777777777778,0.8125,-3.1875,81.8125
1589543989.126767,-0.24,-3.37,8.9,0.4811111111111111,0.2588888888888889,-0.6977777777777778,0.625,-3.625,81.0625
1589543989.1404412,-0.21,-3.15,8.6,0.4811111111111111,0.2588888888888889,-0.6977777777777778,0.75,-3.0625,80.4375
1589543989.1464028,-0.27,-3.2,8.85,0.4811111111111111,0.2588888888888889,-0.6977777777777778,0.1875,-4.25,79.4375
1589543989.1626954,-0.34,-3.29,8.85,0.4811111111111111,0.2588888888888889,-0.6977777777777778,0.25,-3.9375,78.8125
1589543989.1683285,-0.41,-3.35,8.93,0.5077777777777778,0.2111111111111111,-0.6911111111111111,0.375,-4.0,78.3125
1589543989.1809144,-0.43,-3.33,8.89,0.5077777777777778,0.2111111111111111,-0.6911111111111111,0.5625,-3.6875,77.625
1589543989.1873472,-0.44,-3.29,8.8,0.5077777777777778,0.2111111111111111,-0.6911111111111111,0.4375,-3.8125,76.8125
1589543989.197549,-0.51,-3.39,8.84,0.5077777777777778,0.2111111111111111,-0.6911111111111111,0.25,-3.625,75.6875
1589543989.2087872,-0.58,-3.48,8.86,0.5077777777777778,0.2111111111111111,-0.6911111111111111,0.375,-3.4375,74.3125
1589543989.2206824,-0.62,-3.45,8.88,0.52,0.17888888888888888,-0.72,0.375,-3.3125,72.9375
1589543989.2262564,-0.55,-3.4,8.89,0.52,0.17888888888888888,-0.72,0.375,-3.4375,71.5
1589543989.2401948,-0.6,-3.4,8.77,0.52,0.17888888888888888,-0.72,0.1875,-3.5625,68.6875
1589543989.2468786,-0.71,-3.41,8.81,0.52,0.17888888888888888,-0.72,0.3125,-3.125,65.5
1589543989.2588482,-0.78,-3.5,8.88,0.52,0.17888888888888888,-0.72,0.375,-3.0,63.0625
1589543989.2668483,-0.78,-3.39,8.91,0.52,0.15222222222222226,-0.7055555555555556,0.5,-2.75,61.25
1589543989.2765515,-0.78,-3.36,8.94,0.52,0.15222222222222226,-0.7055555555555556,0.3125,-2.875,59.375
1589543989.2908337,-0.81,-3.38,8.73,0.52,0.15222222222222226,-0.7055555555555556,0.375,-2.4375,57.5625
1589543989.296954,-0.95,-3.42,8.84,0.52,0.15222222222222226,-0.7055555555555556,0.25,-2.5625,55.6875
1589543989.314255,-0.9,-3.29,8.89,0.52,0.15222222222222226,-0.7055555555555556,0.5,-2.4375,54.875
1589543989.3202484,-0.89,-3.2,8.91,0.5466666666666666,0.13333333333333333,-0.6977777777777778,0.5625,-2.5625,53.875
1589543989.3276687,-0.99,-3.29,8.93,0.5466666666666666,0.13333333333333333,-0.6977777777777778,0.4375,-2.3125,52.875
1589543989.3379915,-1.03,-3.28,8.91,0.5466666666666666,0.13333333333333333,-0.6977777777777778,0.4375,-2.625,52.1875
1589543989.3495119,-1.03,-3.25,8.87,0.5466666666666666,0.13333333333333333,-0.6977777777777778,0.5625,-2.5,51.4375
1589543989.359359,-1.05,-3.2,8.76,0.5466666666666666,0.13333333333333333,-0.6977777777777778,0.5625,-1.8125,51.0
1589543989.3712704,-0.9,-2.97,8.92,0.5611111111111111,0.10222222222222224,-0.7477777777777778,0.1875,-2.4375,50.1875
1589543989.3767545,-0.98,-3.02,8.85,0.5611111111111111,0.10222222222222224,-0.7477777777777778,0.6875,-2.0,49.75
1589543989.3908195,-1.03,-3.12,8.83,0.5611111111111111,0.10222222222222224,-0.7477777777777778,0.0,-2.3125,48.3125
1589543989.3973458,-1.12,-3.2,8.94,0.5611111111111111,0.10222222222222224,-0.7477777777777778,0.125,-2.0625,47.3125
1589543989.4095168,-1.15,-3.08,8.77,0.5611111111111111,0.10222222222222224,-0.7477777777777778,0.4375,-1.4375,46.9375
1589543989.4173632,-1.23,-3.21,9.08,0.5466666666666666,0.06222222222222223,-0.7477777777777778,0.3125,-2.625,46.625
1589543989.4303186,-1.29,-3.23,8.89,0.5466666666666666,0.06222222222222223,-0.7477777777777778,0.4375,-1.9375,46.1875
1589543989.4376097,-1.34,-3.21,8.94,0.5466666666666666,0.06222222222222223,-0.7477777777777778,0.4375,-2.1875,46.3125
1589543989.4500847,-1.32,-3.11,8.89,0.5466666666666666,0.06222222222222223,-0.7477777777777778,-0.0625,-2.4375,46.375
1589543989.4597328,-1.22,-2.96,8.86,0.5466666666666666,0.06222222222222223,-0.7477777777777778,0.4375,-1.8125,46.8125
1589543989.46826,-1.15,-2.85,8.98,0.5466666666666666,0.06888888888888889,-0.7766666666666666,0.5,-2.1875,46.875
1589543989.4779902,-1.46,-3.19,9.01,0.5466666666666666,0.06888888888888889,-0.7766666666666666,0.1875,-2.125,46.625
1589543989.4901133,-1.28,-2.74,8.56,0.5466666666666666,0.06888888888888889,-0.7766666666666666,0.25,-0.875,47.0
1589543989.5030491,-1.52,-3.04,8.79,0.5466666666666666,0.06888888888888889,-0.7766666666666666,0.9375,-1.8125,48.6875
1589543989.5101767,-1.52,-3.07,9.17,0.5466666666666666,0.06888888888888889,-0.7766666666666666,-0.0625,-2.9375,51.125
1589543989.522024,-1.49,-3.05,8.85,0.5455555555555556,0.048888888888888885,-0.7977777777777778,0.0625,-2.25,53.875
1589543989.527467,-1.36,-2.88,9.11,0.5455555555555556,0.048888888888888885,-0.7977777777777778,-0.4375,-4.0,55.5
1589543989.5421672,-1.51,-2.98,8.92,0.5455555555555556,0.048888888888888885,-0.7977777777777778,0.125,-3.0625,56.875
1589543989.5488136,-1.64,-3.05,8.84,0.5455555555555556,0.048888888888888885,-0.7977777777777778,0.375,-1.75,58.3125
1589543989.5617425,-1.63,-3.01,9.03,0.5455555555555556,0.048888888888888885,-0.7977777777777778,0.0,-2.875,60.1875
1589543989.567715,-1.57,-2.86,8.91,0.5377777777777778,0.03,-0.8188888888888889,-0.125,-2.75,62.25
1589543989.578656,-1.61,-2.95,8.97,0.5377777777777778,0.03,-0.8188888888888889,0.125,-2.875,64.6875
1589543989.588293,-1.86,-3.1,8.76,0.5377777777777778,0.03,-0.8188888888888889,-0.0625,-2.75,67.375
1589543989.6003795,-1.88,-3.06,8.91,0.5377777777777778,0.03,-0.8188888888888889,-0.0625,-3.125,70.625
1589543989.6096346,-1.9,-3.04,8.88,0.5377777777777778,0.03,-0.8188888888888889,-0.3125,-3.5,74.4375
1589543989.6207168,-1.79,-2.88,9.19,0.5255555555555556,-0.015555555555555557,-0.8455555555555555,-0.0625,-3.625,78.3125
1589543989.629436,-1.94,-2.98,8.72,0.5255555555555556,-0.015555555555555557,-0.8455555555555555,0.875,-2.0625,82.1875
1589543989.6403856,-1.97,-2.92,8.58,0.5255555555555556,-0.015555555555555557,-0.8455555555555555,1.0,-1.375,85.4375
1589543989.6487052,-2.05,-2.98,9.04,0.5255555555555556,-0.015555555555555557,-0.8455555555555555,-0.75,-4.8125,88.375
1589543989.6608865,-2.15,-2.93,8.85,0.5255555555555556,-0.015555555555555557,-0.8455555555555555,0.0625,-3.8125,92.3125
1589543989.6734715,-2.13,-2.92,9.0,0.5255555555555556,-0.07444444444444444,-0.8244444444444444,0.1875,-3.1875,96.625
1589543989.6800127,-2.21,-2.97,9.01,0.5255555555555556,-0.07444444444444444,-0.8244444444444444,-0.25,-3.625,100.4375
1589543989.689023,-2.21,-2.9,8.69,0.5255555555555556,-0.07444444444444444,-0.8244444444444444,-0.4375,-3.5,103.9375
1589543989.7003589,-2.29,-2.92,8.92,0.5255555555555556,-0.07444444444444444,-0.8244444444444444,-0.375,-4.25,106.875
1589543989.7127905,-2.28,-2.86,8.84,0.5255555555555556,-0.07444444444444444,-0.8244444444444444,-0.0625,-3.3125,109.625
1589543989.7181096,-2.37,-2.89,8.99,0.5133333333333333,-0.16666666666666666,-0.7977777777777778,-0.5,-4.0,111.1875
1589543989.7238195,-2.37,-2.89,8.99,0.5133333333333333,-0.16666666666666666,-0.7977777777777778,-0.5,-4.0,111.1875
1589543989.738209,-2.29,-2.68,8.87,0.5133333333333333,-0.16666666666666666,-0.7977777777777778,0.0625,-3.4375,113.3125
1589543989.7525024,-2.1,-2.41,8.73,0.5133333333333333,-0.16666666666666666,-0.7977777777777778,-0.25,-5.25,113.5625
1589543989.7605686,-2.2,-2.45,9.12,0.5133333333333333,-0.16666666666666666,-0.7977777777777778,-0.625,-4.375,114.125
1589543989.7714455,-2.21,-2.4,8.7,0.49,-0.2,-0.8188888888888889,0.375,-2.375,115.0625
1589543989.7785807,-2.3,-2.49,9.09,0.49,-0.2,-0.8188888888888889,0.0,-3.4375,113.875
1589543989.788553,-2.37,-2.45,9.01,0.49,-0.2,-0.8188888888888889,-0.5625,-4.375,112.0625
1589543989.793926,-2.37,-2.45,9.01,0.49,-0.2,-0.8188888888888889,-0.5625,-4.375,112.0625
1589543989.800194,-2.05,-2.12,8.67,0.49,-0.2,-0.8188888888888889,0.4375,-2.9375,110.875
1589543989.8107452,-2.0,-2.09,8.93,0.49,-0.2,-0.8188888888888889,-0.125,-4.375,109.1875
1589543989.8180096,-2.17,-2.14,9.28,0.4133333333333333,-0.2788888888888889,-0.8188888888888889,-1.375,-6.625,107.0
1589543989.8285635,-2.33,-2.12,8.95,0.4133333333333333,-0.2788888888888889,-0.8188888888888889,-0.625,-4.8125,105.5625
1589543989.8349195,-2.33,-2.12,8.95,0.4133333333333333,-0.2788888888888889,-0.8188888888888889,-0.625,-4.8125,105.5625
1589543989.8463461,-2.29,-2.02,8.84,0.4133333333333333,-0.2788888888888889,-0.8188888888888889,0.75,-3.75,104.5
1589543989.8528042,-2.18,-1.97,8.78,0.4133333333333333,-0.2788888888888889,-0.8188888888888889,0.6875,-3.25,102.6875
1589543989.8652205,-1.96,-1.81,9.05,0.4133333333333333,-0.2788888888888889,-0.8188888888888889,-0.6875,-4.375,100.3125
1589543989.8705795,-1.89,-1.71,9.37,0.3622222222222222,-0.3388888888888889,-0.7388888888888889,0.5625,-5.25,97.0625
1589543989.8832107,-2.33,-1.8,9.18,0.3622222222222222,-0.3388888888888889,-0.7388888888888889,-1.1875,-5.6875,92.375
1589543989.8896506,-2.25,-1.71,8.65,0.3622222222222222,-0.3388888888888889,-0.7388888888888889,0.25,-3.875,89.25
1589543989.9039214,-2.26,-1.72,8.93,0.3622222222222222,-0.3388888888888889,-0.7388888888888889,1.25,-2.6875,87.0625
1589543989.9114552,-1.68,-1.4,8.73,0.3622222222222222,-0.3388888888888889,-0.7388888888888889,0.5,-3.0625,83.1875
1589543989.9224825,-2.14,-1.59,9.12,0.3655555555555556,-0.3555555555555556,-0.7177777777777777,-0.1875,-3.875,76.875
1589543989.930483,-2.18,-1.54,9.3,0.3655555555555556,-0.3555555555555556,-0.7177777777777777,-0.8125,-4.375,69.625
1589543989.9401007,-2.31,-1.5,8.67,0.3655555555555556,-0.3555555555555556,-0.7177777777777777,0.1875,-2.25,64.25
1589543989.9510038,-2.23,-1.44,9.15,0.3655555555555556,-0.3555555555555556,-0.7177777777777777,-0.25,-3.5,58.5
1589543989.962176,-2.15,-1.39,8.98,0.3655555555555556,-0.3555555555555556,-0.7177777777777777,-0.1875,-3.0625,51.6875
1589543989.9701352,-2.0,-1.35,9.06,0.38,-0.3644444444444445,-0.6966666666666667,0.5,-1.4375,44.0625
1589543989.9809694,-2.49,-1.45,9.15,0.38,-0.3644444444444445,-0.6966666666666667,0.9375,-1.0625,36.9375
1589543989.9899178,-1.9,-1.21,8.16,0.38,-0.3644444444444445,-0.6966666666666667,0.75,0.8125,31.125
1589543990.0002208,-1.46,-1.13,8.72,0.38,-0.3644444444444445,-0.6966666666666667,0.0625,-0.9375,24.625
1589543990.017108,-2.18,-1.41,9.66,0.38,-0.3644444444444445,-0.6966666666666667,-2.5,-5.625,15.6875
1589543990.023622,-2.32,-1.3,8.58,0.36777777777777776,-0.35,-0.6911111111111111,0.0625,-0.8125,9.6875
1589543990.0352404,-2.14,-1.26,8.69,0.36777777777777776,-0.35,-0.6911111111111111,2.4375,3.3125,5.875
1589543990.0412586,-2.46,-1.45,9.16,0.36777777777777776,-0.35,-0.6911111111111111,-1.3125,-2.4375,-1.875
1589543990.0549724,-1.62,-1.23,9.14,0.36777777777777776,-0.35,-0.6911111111111111,-3.5625,-4.5625,-8.75
1589543990.0618231,-2.04,-1.23,8.82,0.36777777777777776,-0.35,-0.6911111111111111,1.625,0.6875,-13.6875
1589543990.073998,-2.18,-1.39,9.51,0.4,-0.35,-0.7122222222222222,2.375,1.6875,-19.0625
1589543990.0807214,-1.57,-1.2,8.92,0.4,-0.35,-0.7122222222222222,-0.1875,2.5,-25.8125
1589543990.0907414,-1.53,-0.79,9.72,0.4,-0.35,-0.7122222222222222,2.0625,3.8125,-34.1875
1589543990.1000016,-0.75,-0.76,9.4,0.4,-0.35,-0.7122222222222222,-2.5,-4.8125,-49.0
1589543990.112701,-0.34,-0.56,8.13,0.4,-0.35,-0.7122222222222222,-0.9375,2.5625,-66.9375
1589543990.120143,-0.76,-1.64,8.66,0.4044444444444445,-0.33555555555555555,-0.6977777777777778,-0.9375,2.8125,-101.375
1589543990.1335142,-0.64,-2.16,7.7,0.4044444444444445,-0.33555555555555555,-0.6977777777777778,2.25,9.125,-130.0625
1589543990.1402855,-0.6,-2.44,8.38,0.4044444444444445,-0.33555555555555555,-0.6977777777777778,2.1875,12.375,-156.8125
1589543990.1515894,-0.67,-2.47,10.25,0.4044444444444445,-0.33555555555555555,-0.6977777777777778,-5.0,-0.125,-188.875
1589543990.1623526,-0.72,-1.91,8.54,0.4044444444444445,-0.33555555555555555,-0.6977777777777778,-1.75,8.5625,-214.625
1589543990.172711,-1.39,-2.55,9.69,0.4488888888888889,-0.2966666666666667,-0.7122222222222222,-2.125,10.25,-241.3125
1589543990.1847146,-1.87,-3.06,9.33,0.4488888888888889,-0.2966666666666667,-0.7122222222222222,-5.25,8.3125,-264.25
1589543990.1909564,-2.0,-3.08,8.56,0.4488888888888889,-0.2966666666666667,-0.7122222222222222,1.125,16.8125,-272.625
1589543990.2060235,-1.57,-2.94,9.25,0.4488888888888889,-0.2966666666666667,-0.7122222222222222,2.1875,16.25,-276.375
1589543990.2124448,-2.04,-3.15,9.58,0.4488888888888889,-0.2966666666666667,-0.7122222222222222,-6.1875,6.125,-283.0625
1589543990.2210116,-2.42,-3.46,8.75,0.5022222222222222,-0.2222222222222222,-0.72,-0.5,14.1875,-279.1875
1589543990.230732,-2.6,-3.97,9.35,0.5022222222222222,-0.2222222222222222,-0.72,-2.5,10.9375,-268.6875
1589543990.2427945,-2.66,-4.05,8.68,0.5022222222222222,-0.2222222222222222,-0.72,-0.5625,13.6875,-252.375
1589543990.2508936,-2.51,-4.04,8.13,0.5022222222222222,-0.2222222222222222,-0.72,-2.4375,8.3125,-232.5
1589543990.2631025,-2.67,-4.22,9.63,0.5022222222222222,-0.2222222222222222,-0.72,-2.9375,7.75,-208.375
1589543990.2702918,-2.18,-3.6,8.3,0.5877777777777777,-0.16333333333333333,-0.6977777777777778,-0.8125,9.4375,-186.0625
1589543990.2764695,-2.18,-3.6,8.3,0.5877777777777777,-0.16333333333333333,-0.6977777777777778,-0.8125,9.4375,-186.0625
1589543990.2856278,-2.26,-3.72,9.62,0.5877777777777777,-0.16333333333333333,-0.6977777777777778,-2.5,5.1875,-170.25
1589543990.2920933,-2.23,-3.61,8.83,0.5877777777777777,-0.16333333333333333,-0.6977777777777778,-0.25,9.0625,-152.4375
1589543990.3030126,-2.2,-3.83,9.12,0.5877777777777777,-0.16333333333333333,-0.6977777777777778,-0.5625,5.875,-133.3125
1589543990.3133204,-2.06,-3.73,8.7,0.5877777777777777,-0.16333333333333333,-0.6977777777777778,-1.125,4.75,-115.25
1589543990.3244047,-1.88,-3.69,9.37,0.7688888888888888,-0.3377777777777778,-0.5933333333333334,-0.9375,4.375,-102.0
1589543990.332132,-1.61,-3.56,8.66,0.7688888888888888,-0.3377777777777778,-0.5933333333333334,0.25,5.5625,-93.0625
1589543990.341855,-1.53,-3.68,8.93,0.7688888888888888,-0.3377777777777778,-0.5933333333333334,-0.875,3.0625,-85.0
1589543990.3558512,-1.54,-3.59,8.7,0.7688888888888888,-0.3377777777777778,-0.5933333333333334,-0.625,3.0625,-74.25
1589543990.3633833,-1.51,-3.7,8.9,0.7688888888888888,-0.3377777777777778,-0.5933333333333334,-0.75,1.4375,-61.625
1589543990.3755856,-1.31,-3.75,8.6,1.5533333333333332,-0.21666666666666667,-0.26666666666666666,-0.125,1.9375,-47.75
1589543990.381848,-1.2,-3.75,8.9,1.5533333333333332,-0.21666666666666667,-0.26666666666666666,-0.875,0.3125,-35.8125
1589543990.3961651,-1.17,-3.71,9.04,1.5533333333333332,-0.21666666666666667,-0.26666666666666666,-0.875,-0.5,-26.375
1589543990.4023292,-1.03,-3.43,8.75,1.5533333333333332,-0.21666666666666667,-0.26666666666666666,0.4375,1.0,-19.8125
1589543990.4164915,-0.95,-3.33,8.87,1.5533333333333332,-0.21666666666666667,-0.26666666666666666,-0.625,0.0,-15.9375
1589543990.4219787,-0.89,-3.3,8.96,0.8488888888888889,0.08666666666666667,-0.7322222222222222,-0.375,-0.375,-13.125
1589543990.4351568,-1.09,-3.6,8.98,0.8488888888888889,0.08666666666666667,-0.7322222222222222,0.0,0.0625,-10.0
1589543990.4428651,-0.96,-3.51,8.64,0.8488888888888889,0.08666666666666667,-0.7322222222222222,-0.375,-0.25,-6.5
1589543990.4526372,-0.82,-3.21,8.85,0.8488888888888889,0.08666666666666667,-0.7322222222222222,0.625,0.8125,-2.875
1589543990.4648323,-0.94,-3.52,8.53,0.8488888888888889,0.08666666666666667,-0.7322222222222222,0.875,0.25,0.75
1589543990.4757686,-0.98,-3.55,9.04,0.6133333333333333,0.11333333333333333,-0.7322222222222222,-1.1875,-2.25,4.5625
1589543990.4842415,-0.95,-3.57,8.91,0.6133333333333333,0.11333333333333333,-0.7322222222222222,-0.25,-1.6875,9.1875
1589543990.4935267,-0.91,-3.53,8.76,0.6133333333333333,0.11333333333333333,-0.7322222222222222,0.3125,-0.375,12.6875
1589543990.5078802,-0.93,-3.51,8.77,0.6133333333333333,0.11333333333333333,-0.7322222222222222,-0.1875,-1.5,14.75
1589543990.5152054,-0.74,-3.29,8.84,0.6133333333333333,0.11333333333333333,-0.7322222222222222,-0.125,-1.75,15.625
1589543990.5218613,-0.64,-3.19,9.04,0.5633333333333334,0.12777777777777774,-0.7555555555555555,0.1875,-1.5625,14.8125
1589543990.5333695,-0.65,-3.23,8.71,0.5633333333333334,0.12777777777777774,-0.7555555555555555,0.4375,-0.3125,13.25
1589543990.5423768,-0.56,-3.2,8.81,0.5633333333333334,0.12777777777777774,-0.7555555555555555,-0.375,-1.3125,10.0625
1589543990.55241,-0.47,-3.07,8.58,0.5633333333333334,0.12777777777777774,-0.7555555555555555,0.625,-0.0625,7.0
1589543990.56444,-0.51,-3.23,8.84,0.5633333333333334,0.12777777777777774,-0.7555555555555555,-0.0625,-1.0,2.625
1589543990.573599,-0.56,-3.43,9.15,0.5644444444444444,0.1288888888888889,-0.7766666666666666,-0.375,-1.25,-1.375
1589543990.5881596,-0.59,-3.48,8.77,0.5644444444444444,0.1288888888888889,-0.7766666666666666,0.625,0.5,-5.125
1589543990.5947695,-0.52,-3.59,8.79,0.5644444444444444,0.1288888888888889,-0.7766666666666666,0.125,0.25,-9.3125
1589543990.607482,-0.34,-3.33,8.57,0.5644444444444444,0.1288888888888889,-0.7766666666666666,-0.1875,0.375,-14.5
1589543990.615716,-0.43,-3.57,9.1,0.5644444444444444,0.1288888888888889,-0.7766666666666666,-0.5625,-0.875,-20.8125
1589543990.6231852,-0.39,-3.62,8.95,0.5555555555555556,0.11555555555555555,-0.7888888888888889,0.4375,0.875,-26.125
1589543990.6336195,-0.5,-3.4,8.85,0.5555555555555556,0.11555555555555555,-0.7888888888888889,0.25,1.4375,-32.125
1589543990.6434267,-0.48,-3.13,8.53,0.5555555555555556,0.11555555555555555,-0.7888888888888889,-0.3125,0.6875,-39.75
1589543990.6531308,-7.93,-10.79,12.48,0.5555555555555556,0.11555555555555555,-0.7888888888888889,-2.6875,12.125,-31.6875
1589543990.664989,-1.47,-0.08,0.19,0.5555555555555556,0.11555555555555555,-0.7888888888888889,-38.0625,39.375,-214.8125
1589543990.6726472,0.65,-0.25,2.85,0.5366666666666666,0.14333333333333334,-0.7766666666666666,-109.5625,-59.5,-388.875
1589543990.6870804,2.98,-2.52,19.13,0.5366666666666666,0.14333333333333334,-0.7766666666666666,-37.8125,28.8125,-269.625
1589543990.6935716,-1.72,-1.55,3.27,0.5366666666666666,0.14333333333333334,-0.7766666666666666,68.375,44.1875,-256.75
1589543990.7075298,0.54,-0.12,15.35,0.5366666666666666,0.14333333333333334,-0.7766666666666666,102.375,9.5625,-229.375
1589543990.7202759,-1.06,-0.63,3.94,0.5366666666666666,0.14333333333333334,-0.7766666666666666,29.0625,34.125,-180.5625
1589543990.726975,-0.05,-1.48,7.83,0.4922222222222222,0.2433333333333333,-0.7333333333333333,-36.625,-14.75,-117.625
1589543990.7405374,1.33,-1.42,7.32,0.4922222222222222,0.2433333333333333,-0.7333333333333333,1.125,-2.0625,-84.75
1589543990.7470994,0.99,-1.88,7.09,0.4922222222222222,0.2433333333333333,-0.7333333333333333,9.0,12.0625,-63.875
1589543990.7594647,1.02,-2.69,10.96,0.4922222222222222,0.2433333333333333,-0.7333333333333333,-7.9375,-6.125,-41.1875
1589543990.7655175,0.86,-2.23,8.37,0.4922222222222222,0.2433333333333333,-0.7333333333333333,3.4375,6.6875,-19.8125
1589543990.776426,0.72,-2.75,9.83,0.4533333333333333,0.28444444444444444,-0.7333333333333333,1.125,-0.9375,-11.6875
1589543990.7840393,0.38,-2.41,8.74,0.4533333333333333,0.28444444444444444,-0.7333333333333333,-4.625,-1.0625,-6.4375
1589543990.7980492,0.04,-2.64,8.5,0.4533333333333333,0.28444444444444444,-0.7333333333333333,2.1875,2.75,2.0625
1589543990.8046005,0.11,-2.8,8.79,0.4533333333333333,0.28444444444444444,-0.7333333333333333,3.0625,0.4375,15.1875
1589543990.8160727,0.26,-2.91,9.08,0.4533333333333333,0.28444444444444444,-0.7333333333333333,0.0,-1.5625,26.75
1589543990.823474,0.15,-2.92,8.87,0.4488888888888889,0.30666666666666664,-0.7422222222222222,0.125,-0.9375,34.5
1589543990.833663,0.58,-3.68,9.06,0.4488888888888889,0.30666666666666664,-0.7422222222222222,0.75,-0.75,41.25
1589543990.8392422,0.58,-3.68,9.06,0.4488888888888889,0.30666666666666664,-0.7422222222222222,0.75,-0.75,41.25
1589543990.8461595,-0.74,-0.52,11.05,0.4488888888888889,0.30666666666666664,-0.7422222222222222,-17.5625,-15.25,-26.75
1589543990.8578994,-1.44,-1.17,8.47,0.4488888888888889,0.30666666666666664,-0.7422222222222222,3.75,18.0625,-81.3125
1589543990.8713331,-0.1,-1.95,6.97,0.4488888888888889,0.30666666666666664,-0.7422222222222222,21.625,14.4375,-51.25
1589543990.8769598,-0.42,-3.04,10.05,0.4622222222222222,0.3,-0.7333333333333333,-9.9375,-5.875,-21.0
1589543990.889626,-0.22,-1.32,8.52,0.4622222222222222,0.3,-0.7333333333333333,-8.9375,-0.1875,-15.6875
1589543990.8955786,0.19,-5.57,8.87,0.4622222222222222,0.3,-0.7333333333333333,6.8125,3.1875,-11.125
1589543990.9037125,0.12,-4.01,8.64,0.4622222222222222,0.3,-0.7333333333333333,0.5,0.5,-3.125
1589543990.9158525,0.12,-4.16,8.7,0.4622222222222222,0.3,-0.7333333333333333,-1.0625,0.125,-0.125
1589543990.928476,0.23,-4.0,8.98,0.4622222222222222,0.3288888888888889,-0.7122222222222222,2.0625,0.6875,0.0625
1589543990.93496,0.19,-4.1,8.85,0.4622222222222222,0.3288888888888889,-0.7122222222222222,-0.375,0.1875,0.0
1589543990.94865,0.17,-4.28,8.61,0.4622222222222222,0.3288888888888889,-0.7122222222222222,-1.75,-0.4375,0.0
1589543990.9549286,0.09,-4.2,8.59,0.4622222222222222,0.3288888888888889,-0.7122222222222222,0.4375,0.0625,0.0
1589543990.9673665,0.27,-4.15,8.95,0.4622222222222222,0.3288888888888889,-0.7122222222222222,0.5,-0.1875,-0.0625
1589543990.9760294,0.15,-4.11,8.79,0.4388888888888889,0.3211111111111111,-0.7266666666666667,0.75,0.25,0.0
1589543990.9857724,0.17,-4.14,8.76,0.4388888888888889,0.3211111111111111,-0.7266666666666667,-0.1875,-0.25,0.125
1589543990.9960272,0.18,-4.22,8.62,0.4388888888888889,0.3211111111111111,-0.7266666666666667,-0.8125,0.0,-0.0625
1589543991.0060394,0.23,-4.21,8.72,0.4388888888888889,0.3211111111111111,-0.7266666666666667,-0.6875,0.0625,0.125
1589543991.0180767,0.17,-4.21,8.75,0.4388888888888889,0.3211111111111111,-0.7266666666666667,0.625,0.0625,0.0625
1589543991.0273135,0.21,-4.11,8.91,0.4633333333333333,0.3288888888888889,-0.7411111111111112,0.6875,-0.0625,0.125
1589543991.0414848,0.14,-4.17,8.77,0.4633333333333333,0.3288888888888889,-0.7411111111111112,-0.125,0.0625,-0.0625
1589543991.0477474,0.23,-4.17,8.75,0.4633333333333333,0.3288888888888889,-0.7411111111111112,-0.5,0.0625,-0.0625
1589543991.0563,0.2,-4.21,8.72,0.4633333333333333,0.3288888888888889,-0.7411111111111112,-0.5,0.125,-0.0625
1589543991.0685425,0.21,-4.13,8.81,0.4633333333333333,0.3288888888888889,-0.7411111111111112,0.125,0.0,-0.0625
1589543991.0795116,0.17,-4.16,8.83,0.4566666666666666,0.33555555555555555,-0.7555555555555555,0.75,-0.0625,-0.1875
1589543991.0856824,0.21,-4.1,8.86,0.4566666666666666,0.33555555555555555,-0.7555555555555555,0.1875,0.0625,-0.125
1589543991.1000464,0.18,-4.21,8.68,0.4566666666666666,0.33555555555555555,-0.7555555555555555,-0.6875,-0.1875,-0.0625
1589543991.1063092,0.22,-4.18,8.72,0.4566666666666666,0.33555555555555555,-0.7555555555555555,-0.5625,0.0,-0.125
1589543991.1189785,0.19,-4.21,8.75,0.4566666666666666,0.33555555555555555,-0.7555555555555555,-0.25,0.0,0.0
1589543991.1261954,0.2,-4.17,8.79,0.4511111111111111,0.3211111111111111,-0.7333333333333333,0.5625,0.0625,-0.125
1589543991.1381695,0.2,-4.16,8.82,0.4511111111111111,0.3211111111111111,-0.7333333333333333,0.375,-0.25,0.1875
1589543991.1461856,0.2,-4.17,8.72,0.4511111111111111,0.3211111111111111,-0.7333333333333333,-0.375,-0.125,0.0625
1589543991.156857,0.2,-4.21,8.73,0.4511111111111111,0.3211111111111111,-0.7333333333333333,-0.625,-0.0625,0.0625
1589543991.1695561,0.18,-4.18,8.79,0.4511111111111111,0.3211111111111111,-0.7333333333333333,-0.125,0.0625,0.0625
1589543991.1763985,0.18,-4.16,8.84,0.4511111111111111,0.3088888888888889,-0.7333333333333333,0.5,0.0,-0.0625
1589543991.1863616,0.22,-4.13,8.84,0.4511111111111111,0.3088888888888889,-0.7333333333333333,0.625,0.125,0.0
1589543991.2004454,0.21,-4.15,8.75,0.4511111111111111,0.3088888888888889,-0.7333333333333333,-0.125,-0.0625,-0.0625
1589543991.207057,0.19,-4.22,8.73,0.4511111111111111,0.3088888888888889,-0.7333333333333333,-0.75,0.1875,0.0
1589543991.2188582,0.19,-4.19,8.78,0.4511111111111111,0.3088888888888889,-0.7333333333333333,-0.3125,-0.125,0.0
1589543991.2264311,0.21,-4.17,8.81,0.4511111111111111,0.3288888888888889,-0.7333333333333333,0.375,-0.0625,0.0625
1589543991.2374606,0.22,-4.13,8.81,0.4511111111111111,0.3288888888888889,-0.7333333333333333,0.5,-0.0625,-0.0625
1589543991.2509778,0.2,-4.16,8.73,0.4511111111111111,0.3288888888888889,-0.7333333333333333,0.3125,0.125,0.25
1589543991.257392,0.18,-4.19,8.73,0.4511111111111111,0.3288888888888889,-0.7333333333333333,-0.5625,-0.0625,-0.0625
1589543991.2704618,0.2,-4.2,8.74,0.4511111111111111,0.3288888888888889,-0.7333333333333333,-0.4375,-0.0625,0.0
1589543991.277446,0.19,-4.18,8.82,0.4444444444444444,0.33555555555555555,-0.7266666666666667,0.0,0.0625,-0.25
1589543991.2867765,0.2,-4.14,8.83,0.4444444444444444,0.33555555555555555,-0.7266666666666667,0.4375,0.0,-0.0625
1589543991.2969234,0.18,-4.14,8.74,0.4444444444444444,0.33555555555555555,-0.7266666666666667,0.1875,0.0,-0.125
1589543991.3074148,0.19,-4.15,8.73,0.4444444444444444,0.33555555555555555,-0.7266666666666667,-0.375,0.125,0.0
1589543991.3197858,0.19,-4.19,8.76,0.4444444444444444,0.33555555555555555,-0.7266666666666667,-0.625,0.0625,0.0
1589543991.3305252,0.19,-4.16,8.8,0.4566666666666666,0.3211111111111111,-0.7333333333333333,-0.125,-0.0625,0.0625
1589543991.3370905,0.2,-4.15,8.83,0.4566666666666666,0.3211111111111111,-0.7333333333333333,0.3125,0.0,-0.0625
1589543991.3487096,0.19,-4.15,8.76,0.4566666666666666,0.3211111111111111,-0.7333333333333333,0.5,0.0625,0.0
1589543991.3576887,0.2,-4.17,8.74,0.4566666666666666,0.3211111111111111,-0.7333333333333333,-0.0625,0.0,-0.0625
1589543991.369515,0.21,-4.21,8.76,0.4566666666666666,0.3211111111111111,-0.7333333333333333,-0.5,0.0,0.0625
1589543991.377117,0.2,-4.21,8.78,0.4566666666666666,0.31555555555555553,-0.7122222222222222,-0.25,0.125,-0.0625
1589543991.3876019,0.19,-4.16,8.8,0.4566666666666666,0.31555555555555553,-0.7122222222222222,0.25,0.0,0.125
1589543991.4002445,0.2,-4.15,8.74,0.4566666666666666,0.31555555555555553,-0.7122222222222222,0.4375,-0.125,0.0625
1589543991.4073806,0.2,-4.15,8.76,0.4566666666666666,0.31555555555555553,-0.7122222222222222,0.0625,-0.125,-0.125
1589543991.423942,0.21,-4.2,8.77,0.4566666666666666,0.31555555555555553,-0.7122222222222222,-0.5,0.125,-0.0625
1589543991.429725,0.2,-4.21,8.81,0.4633333333333333,0.3288888888888889,-0.7333333333333333,-0.4375,-0.0625,0.0
1589543991.4418602,0.2,-4.17,8.82,0.4633333333333333,0.3288888888888889,-0.7333333333333333,0.1875,0.0625,0.0
1589543991.4483285,0.21,-4.15,8.75,0.4633333333333333,0.3288888888888889,-0.7333333333333333,0.5,-0.0625,-0.125
1589543991.461541,0.2,-4.15,8.78,0.4633333333333333,0.3288888888888889,-0.7333333333333333,0.0625,0.0625,0.0625
1589543991.4699204,0.22,-4.2,8.75,0.4633333333333333,0.3288888888888889,-0.7333333333333333,-0.25,0.0625,0.0625
1589543991.481374,0.2,-4.19,8.78,0.4566666666666666,0.3211111111111111,-0.7266666666666667,-0.375,0.0625,-0.0625
1589543991.48785,0.2,-4.19,8.81,0.4566666666666666,0.3211111111111111,-0.7266666666666667,-0.0625,0.0,-0.0625
1589543991.4981954,0.21,-4.16,8.71,0.4566666666666666,0.3211111111111111,-0.7266666666666667,0.3125,0.125,-0.125
1589543991.5084753,0.21,-4.14,8.8,0.4566666666666666,0.3211111111111111,-0.7266666666666667,0.1875,-0.0625,0.0
1589543991.5202348,0.2,-4.17,8.79,0.4566666666666666,0.3211111111111111,-0.7266666666666667,-0.125,0.125,-0.0625
1589543991.5285547,0.2,-4.2,8.81,0.4511111111111111,0.3288888888888889,-0.7266666666666667,-0.4375,-0.0625,-0.1875
1589543991.537725,0.18,-4.2,8.77,0.4511111111111111,0.3288888888888889,-0.7266666666666667,-0.1875,-0.0625,-0.0625
1589543991.5522618,0.21,-4.15,8.72,0.4511111111111111,0.3288888888888889,-0.7266666666666667,0.3125,-0.1875,0.125
1589543991.5586176,0.2,-4.15,8.75,0.4511111111111111,0.3288888888888889,-0.7266666666666667,0.3125,0.0,-0.125
1589543991.5748804,0.2,-4.17,8.82,0.4511111111111111,0.3288888888888889,-0.7266666666666667,0.0,-0.0625,0.0
1589543991.581143,0.2,-4.19,8.79,0.4711111111111111,0.3211111111111111,-0.72,-0.4375,0.125,-0.125
1589543991.5887961,0.2,-4.2,8.8,0.4711111111111111,0.3211111111111111,-0.72,-0.25,0.0625,0.0625
