time,acc_x,acc_y,acc_z,mag_x,mag_y,mag_z,gyr_x,gyr_y,gyr_z
1589541150.7114134,-0.59,-4.1,8.76,0.4833333333333333,0.2788888888888889,-0.6377777777777778,-0.375,-0.125,-2.0
1589541150.7216668,-0.63,-4.13,8.84,0.4833333333333333,0.2788888888888889,-0.6377777777777778,-0.3125,-0.3125,-2.0
1589541150.733286,-0.61,-4.11,8.87,0.49,0.27111111111111114,-0.6522222222222223,-0.125,-0.1875,-1.9375
1589541150.7402494,-0.61,-4.08,8.86,0.49,0.27111111111111114,-0.6522222222222223,-0.125,-0.1875,-1.75
1589541150.7517307,-0.59,-4.1,8.79,0.49,0.27111111111111114,-0.6522222222222223,0.125,-0.3125,-1.75
1589541150.7593956,-0.55,-4.09,8.86,0.49,0.27111111111111114,-0.6522222222222223,0.125,-0.5,-1.875
1589541150.7714262,-0.53,-4.1,8.91,0.49,0.27111111111111114,-0.6522222222222223,0.0,-0.3125,-2.1875
1589541150.7787795,-0.55,-4.09,8.96,0.4955555555555556,0.27111111111111114,-0.6377777777777778,-0.0625,-0.3125,-2.5625
1589541150.7894769,-0.5,-4.07,8.86,0.4955555555555556,0.27111111111111114,-0.6377777777777778,0.0625,-0.1875,-3.0
1589541150.8054953,-0.5,-4.06,8.78,0.4955555555555556,0.27111111111111114,-0.6377777777777778,0.0,-0.3125,-3.8125
1589541150.8121564,-0.49,-4.09,8.83,0.4955555555555556,0.27111111111111114,-0.6377777777777778,-0.125,-0.3125,-4.75
1589541150.825498,-0.51,-4.06,8.81,0.4955555555555556,0.27111111111111114,-0.6377777777777778,-0.1875,-0.1875,-5.5
1589541150.831769,-0.56,-4.14,8.91,0.4577777777777778,0.27111111111111114,-0.6522222222222223,-0.25,-0.25,-6.0625
1589541150.8415713,-0.61,-4.14,8.86,0.4577777777777778,0.27111111111111114,-0.6522222222222223,-0.3125,0.0625,-6.0625
1589541150.8497596,-0.63,-4.12,8.78,0.4577777777777778,0.27111111111111114,-0.6522222222222223,-0.25,0.25,-5.1875
1589541150.864075,-0.62,-4.16,8.85,0.4577777777777778,0.27111111111111114,-0.6522222222222223,-0.1875,0.25,-4.375
1589541150.872236,-0.65,-4.15,8.87,0.4577777777777778,0.27111111111111114,-0.6522222222222223,-0.0625,0.125,-3.25
1589541150.8840096,-0.57,-4.11,8.91,0.4755555555555556,0.2788888888888889,-0.6322222222222222,-0.0625,-0.125,-2.125
1589541150.8899436,-0.54,-4.1,8.91,0.4755555555555556,0.2788888888888889,-0.6322222222222222,0.0,-0.0625,-1.625
1589541150.9030151,-0.48,-4.08,8.77,0.4755555555555556,0.2788888888888889,-0.6322222222222222,0.0,-0.25,-2.0
1589541150.910907,-0.52,-4.12,8.79,0.4755555555555556,0.2788888888888889,-0.6322222222222222,0.0,-0.1875,-2.5625
1589541150.9231071,-0.53,-4.11,8.83,0.4755555555555556,0.2788888888888889,-0.6322222222222222,0.0625,0.0625,-3.125
1589541150.9296846,-0.62,-4.16,8.92,0.4833333333333333,0.27111111111111114,-0.6677777777777778,0.0625,0.0625,-2.75
1589541150.9406366,-0.61,-4.13,8.87,0.4833333333333333,0.27111111111111114,-0.6677777777777778,0.0,0.5625,-2.125
1589541150.9500225,-0.59,-4.15,8.79,0.4833333333333333,0.27111111111111114,-0.6677777777777778,0.125,0.6875,-0.875
1589541150.9610767,-0.58,-4.13,8.79,0.4833333333333333,0.27111111111111114,-0.6677777777777778,0.0625,1.0,-0.25
1589541150.9780586,-0.48,-4.13,9.22,0.4833333333333333,0.27111111111111114,-0.6677777777777778,-0.5625,-0.75,-0.0625
1589541150.9841964,-0.57,-4.09,8.74,0.4833333333333333,0.27111111111111114,-0.6522222222222223,0.5,0.5,0.1875
1589541150.9923534,-0.54,-4.14,8.86,0.4833333333333333,0.27111111111111114,-0.6522222222222223,-0.5625,-0.25,0.0625
1589541151.0004876,-0.47,-4.11,8.91,0.4833333333333333,0.27111111111111114,-0.6522222222222223,0.0625,-0.0625,0.0
1589541151.0143785,-0.57,-4.12,8.82,0.4833333333333333,0.27111111111111114,-0.6522222222222223,0.25,0.3125,-0.0625
1589541151.0231404,-0.55,-4.1,8.84,0.4833333333333333,0.27111111111111114,-0.6522222222222223,0.125,0.0,0.0
1589541151.0346158,-0.52,-4.1,8.88,0.4833333333333333,0.27111111111111114,-0.6233333333333333,0.0,0.0,0.125
1589541151.0407598,-0.53,-4.11,8.85,0.4833333333333333,0.27111111111111114,-0.6233333333333333,0.125,0.0625,0.0625
1589541151.0522273,-0.54,-4.11,8.77,0.4833333333333333,0.27111111111111114,-0.6233333333333333,0.3125,0.375,0.25
1589541151.0606086,-0.55,-4.1,8.76,0.4833333333333333,0.27111111111111114,-0.6233333333333333,0.375,0.5,0.0
1589541151.0741544,-0.58,-4.11,8.81,0.4833333333333333,0.27111111111111114,-0.6233333333333333,0.125,0.1875,0.25
1589541151.081333,-0.56,-4.13,8.91,0.49,0.27111111111111114,-0.6522222222222223,-0.0625,0.0625,-0.0625
1589541151.0942852,-0.54,-4.11,8.93,0.49,0.27111111111111114,-0.6522222222222223,-0.0625,-0.125,0.0
1589541151.1008027,-0.52,-4.11,8.8,0.49,0.27111111111111114,-0.6522222222222223,0.0625,0.1875,-0.0625
1589541151.1109376,-0.52,-4.13,8.84,0.49,0.27111111111111114,-0.6522222222222223,0.125,0.3125,0.0
1589541151.1291895,-0.55,-4.11,8.84,0.49,0.27111111111111114,-0.6522222222222223,0.125,-0.125,0.125
1589541151.1347935,-0.54,-4.11,8.85,0.5022222222222222,0.2788888888888889,-0.6444444444444445,0.25,0.0625,0.0625
1589541151.1414015,-0.54,-4.12,8.9,0.5022222222222222,0.2788888888888889,-0.6444444444444445,0.5,0.125,0.0
1589541151.151454,-0.52,-4.1,8.79,0.5022222222222222,0.2788888888888889,-0.6444444444444445,0.25,0.125,-0.125
1589541151.1660526,-0.5,-4.13,8.84,0.5022222222222222,0.2788888888888889,-0.6444444444444445,0.0,0.0625,0.0
1589541151.1736927,-0.53,-4.13,8.86,0.5022222222222222,0.2788888888888889,-0.6444444444444445,-0.125,0.1875,-0.0625
1589541151.1855848,-0.55,-4.09,8.89,0.4755555555555556,0.2788888888888889,-0.6588888888888889,0.1875,0.3125,-0.1875
1589541151.1921813,-0.56,-4.08,8.9,0.4755555555555556,0.2788888888888889,-0.6588888888888889,0.375,0.375,-0.1875
1589541151.2056324,-0.54,-4.14,8.8,0.4755555555555556,0.2788888888888889,-0.6588888888888889,0.0625,0.1875,-0.0625
1589541151.2116795,-0.56,-4.09,8.82,0.4755555555555556,0.2788888888888889,-0.6588888888888889,-0.125,0.25,-0.1875
1589541151.2260392,-0.49,-4.08,8.99,0.4755555555555556,0.2788888888888889,-0.6588888888888889,-0.375,-0.375,0.0
1589541151.2320564,-0.52,-4.13,8.89,0.4711111111111111,0.2588888888888889,-0.6522222222222223,-0.25,0.125,0.1875
1589541151.242041,-0.6,-4.1,8.76,0.4711111111111111,0.2588888888888889,-0.6522222222222223,-0.5625,0.8125,-0.0625
1589541151.2523007,-0.52,-4.14,8.89,0.4711111111111111,0.2588888888888889,-0.6522222222222223,-0.1875,0.0625,0.0625
1589541151.2653766,-0.57,-4.15,8.83,0.4711111111111111,0.2588888888888889,-0.6522222222222223,-0.6875,0.1875,0.0625
1589541151.2800655,-0.54,-4.09,8.86,0.4711111111111111,0.2588888888888889,-0.6522222222222223,-0.375,0.0,0.125
1589541151.2855995,-0.56,-4.12,8.81,0.49,0.2788888888888889,-0.6466666666666666,-0.25,0.0625,0.0625
1589541151.2918978,-0.55,-4.1,8.86,0.49,0.2788888888888889,-0.6466666666666666,0.0,-0.25,0.0625
1589541151.3013904,-0.55,-4.14,8.74,0.49,0.2788888888888889,-0.6466666666666666,-0.1875,-0.1875,0.0
1589541151.3115575,-0.55,-4.11,8.8,0.49,0.2788888888888889,-0.6466666666666666,0.0625,-0.4375,0.0
1589541151.323998,-0.55,-4.1,8.8,0.49,0.2788888888888889,-0.6466666666666666,-0.25,-0.75,0.125
1589541151.3358922,-0.56,-4.09,8.86,0.49,0.2644444444444444,-0.6588888888888889,-0.875,-1.375,0.0625
1589541151.3418634,-0.48,-4.12,8.92,0.49,0.2644444444444444,-0.6588888888888889,-1.5625,-2.3125,0.0
1589541151.357585,-0.45,-4.14,8.86,0.49,0.2644444444444444,-0.6588888888888889,-1.5625,-2.5625,-0.4375
1589541151.3639288,-0.35,-4.04,8.83,0.49,0.2644444444444444,-0.6588888888888889,-0.875,-1.5625,-1.1875
1589541151.3744125,-0.32,-4.04,8.84,0.49,0.2644444444444444,-0.6588888888888889,-0.5625,-0.6875,-2.9375
1589541151.3815904,-0.37,-4.03,8.85,0.4633333333333333,0.27111111111111114,-0.6522222222222223,-0.3125,-0.375,-5.1875
1589541151.3974938,-0.46,-4.06,8.85,0.4633333333333333,0.27111111111111114,-0.6522222222222223,-0.1875,-0.25,-7.5
1589541151.403787,-0.55,-4.08,8.76,0.4633333333333333,0.27111111111111114,-0.6522222222222223,-0.3125,-0.0625,-8.5625
1589541151.4156446,-0.56,-4.05,8.84,0.4633333333333333,0.27111111111111114,-0.6522222222222223,-0.4375,-0.125,-8.375
1589541151.4244714,-0.52,-3.93,8.83,0.4633333333333333,0.27111111111111114,-0.6522222222222223,-0.8125,-0.25,-8.0625
1589541151.436213,-0.54,-3.48,8.97,0.49,0.2911111111111111,-0.6522222222222223,-1.8125,-0.9375,-8.0
1589541151.442192,-0.61,-3.13,8.87,0.49,0.2911111111111111,-0.6522222222222223,-4.125,-2.0625,-8.4375
1589541151.4541035,-0.7,-2.65,8.76,0.49,0.2911111111111111,-0.6522222222222223,-5.625,-2.9375,-6.8125
1589541151.4627388,-0.66,-2.23,8.94,0.49,0.2911111111111111,-0.6522222222222223,-8.875,-5.1875,-3.75
1589541151.47421,-0.76,-2.22,9.23,0.49,0.2911111111111111,-0.6522222222222223,-11.4375,-5.4375,-0.9375
1589541151.4815404,-0.66,-2.15,8.71,0.4833333333333333,0.2911111111111111,-0.6522222222222223,-7.375,-1.8125,4.75
1589541151.4929154,-0.58,-2.38,8.9,0.4833333333333333,0.2911111111111111,-0.6522222222222223,0.0,0.3125,13.4375
1589541151.503419,-0.55,-2.47,8.46,0.4833333333333333,0.2911111111111111,-0.6522222222222223,5.0625,1.5,23.75
1589541151.5158553,-0.47,-2.6,8.85,0.4833333333333333,0.2911111111111111,-0.6522222222222223,0.0625,-1.625,32.0
1589541151.5254505,-0.43,-2.68,8.89,0.4833333333333333,0.2911111111111111,-0.6522222222222223,-1.6875,-2.1875,39.0
1589541151.5320778,-0.42,-2.73,8.92,0.4755555555555556,0.2644444444444444,-0.6466666666666666,1.375,-1.3125,43.9375
1589541151.5376575,-0.42,-2.73,8.92,0.4755555555555556,0.2644444444444444,-0.6466666666666666,1.375,-1.3125,43.9375
1589541151.548232,-0.3,-2.86,9.01,0.4755555555555556,0.2644444444444444,-0.6466666666666666,1.3125,-1.75,47.4375
1589541151.5547745,-0.32,-2.92,8.88,0.4755555555555556,0.2644444444444444,-0.6466666666666666,-0.625,-2.4375,48.25
1589541151.567479,-0.29,-2.91,9.0,0.4755555555555556,0.2644444444444444,-0.6466666666666666,0.0625,-2.1875,46.75
1589541151.5746946,-0.24,-2.98,8.93,0.4755555555555556,0.2644444444444444,-0.6466666666666666,0.375,-2.1875,44.0625
1589541151.5834012,-0.19,-3.02,8.88,0.4633333333333333,0.2644444444444444,-0.6522222222222223,-0.75,-2.3125,39.9375
1589541151.5941956,-0.22,-3.06,8.72,0.4633333333333333,0.2644444444444444,-0.6522222222222223,-1.0625,-2.1875,34.5
1589541151.6038663,-0.29,-3.0,8.64,0.4633333333333333,0.2644444444444444,-0.6522222222222223,0.0,-1.375,28.8125
1589541151.613952,-0.26,-3.03,8.8,0.4633333333333333,0.2644444444444444,-0.6522222222222223,0.375,-1.125,23.1875
1589541151.6259773,-0.3,-3.05,8.85,0.4633333333333333,0.2644444444444444,-0.6522222222222223,0.125,-0.9375,17.875
1589541151.6332645,-0.28,-3.06,8.9,0.4955555555555556,0.25222222222222224,-0.6733333333333333,0.375,-0.5,12.25
1589541151.645306,-0.31,-3.12,8.95,0.4955555555555556,0.25222222222222224,-0.6733333333333333,0.25,-0.1875,6.5
1589541151.6546922,-0.36,-3.24,8.86,0.4955555555555556,0.25222222222222224,-0.6733333333333333,-0.0625,0.0625,0.875
1589541151.6667664,-0.37,-3.19,8.97,0.4955555555555556,0.25222222222222224,-0.6733333333333333,0.0625,0.25,-4.0625
1589541151.679643,-0.36,-3.23,8.91,0.4955555555555556,0.25222222222222224,-0.6733333333333333,0.0625,0.5,-8.875
1589541151.685652,-0.35,-3.23,8.89,0.5166666666666667,0.2644444444444444,-0.6733333333333333,-0.1875,0.5625,-13.5625
1589541151.6951554,-0.29,-3.18,8.76,0.5166666666666667,0.2644444444444444,-0.6733333333333333,-0.5625,0.625,-18.6875
1589541151.7046044,-0.34,-2.98,8.76,0.5166666666666667,0.2644444444444444,-0.6733333333333333,-0.6875,0.8125,-23.75
1589541151.7196212,-0.35,-3.06,8.67,0.5166666666666667,0.2644444444444444,-0.6733333333333333,-0.5,1.0625,-28.1875
1589541151.7267814,-0.36,-3.17,8.83,0.5166666666666667,0.2644444444444444,-0.6733333333333333,0.3125,1.4375,-31.875
1589541151.7378054,-0.36,-3.37,8.84,0.5077777777777778,0.2588888888888889,-0.6588888888888889,-0.125,1.5,-34.75
1589541151.7440438,-0.36,-3.36,8.94,0.5077777777777778,0.2588888888888889,-0.6588888888888889,-0.375,1.8125,-37.375
1589541151.7553608,-0.33,-3.23,8.74,0.5077777777777778,0.2588888888888889,-0.6588888888888889,0.1875,2.4375,-39.75
1589541151.7646275,-0.37,-3.42,8.95,0.5077777777777778,0.2588888888888889,-0.6588888888888889,0.4375,2.3125,-41.75
1589541151.7786396,-0.4,-3.42,8.94,0.5077777777777778,0.2588888888888889,-0.6588888888888889,-0.5625,1.6875,-43.125
1589541151.7845528,-0.57,-3.51,8.93,0.4811111111111111,0.28444444444444444,-0.6733333333333333,-0.5625,1.5625,-43.0
1589541151.794105,-0.72,-3.38,8.7,0.4811111111111111,0.28444444444444444,-0.6733333333333333,-0.4375,1.625,-40.5
1589541151.8040044,-0.81,-3.57,8.86,0.4811111111111111,0.28444444444444444,-0.6733333333333333,-0.1875,1.375,-35.875
1589541151.8156047,-0.93,-3.44,8.73,0.4811111111111111,0.28444444444444444,-0.6733333333333333,-1.3125,0.4375,-27.75
1589541151.825577,-0.87,-3.6,8.69,0.4811111111111111,0.28444444444444444,-0.6733333333333333,0.25,1.25,-15.875
1589541151.8336422,-0.73,-3.64,8.77,0.4744444444444445,0.2966666666666667,-0.7111111111111111,0.4375,-0.125,-3.3125
1589541151.8403895,-0.73,-3.64,8.77,0.4744444444444445,0.2966666666666667,-0.7111111111111111,0.4375,-0.125,-3.3125
1589541151.8496096,-0.66,-3.6,8.77,0.4744444444444445,0.2966666666666667,-0.7111111111111111,0.375,0.5625,8.0
1589541151.8559306,-0.61,-3.63,8.93,0.4744444444444445,0.2966666666666667,-0.7111111111111111,0.0625,-1.125,17.75
1589541151.865467,-0.57,-3.55,8.82,0.4744444444444445,0.2966666666666667,-0.7111111111111111,0.8125,-1.0625,26.0625
1589541151.8774006,-0.55,-3.63,9.04,0.4744444444444445,0.2966666666666667,-0.7111111111111111,0.9375,-1.0,33.5625
1589541151.8891175,-0.64,-3.82,8.88,0.4566666666666666,0.3111111111111111,-0.7111111111111111,0.4375,-1.9375,39.875
1589541151.8953855,-0.65,-3.86,8.96,0.4566666666666666,0.3111111111111111,-0.7111111111111111,0.0625,-2.1875,45.6875
1589541151.906137,-0.61,-3.62,8.77,0.4566666666666666,0.3111111111111111,-0.7111111111111111,-0.1875,-2.8125,51.25
1589541151.9156516,-0.62,-3.63,8.77,0.4566666666666666,0.3111111111111111,-0.7111111111111111,0.875,-2.375,57.125
1589541151.9277227,-0.6,-3.76,8.81,0.4566666666666666,0.3111111111111111,-0.7111111111111111,0.8125,-2.75,61.875
1589541151.9355302,-0.52,-3.75,8.68,0.4811111111111111,0.2911111111111111,-0.7177777777777777,0.3125,-2.8125,65.75
1589541151.9460373,-0.55,-3.85,8.81,0.4811111111111111,0.2911111111111111,-0.7177777777777777,0.875,-2.25,68.125
1589541151.9560854,-0.67,-4.05,8.74,0.4811111111111111,0.2911111111111111,-0.7177777777777777,0.4375,-3.3125,68.625
1589541151.9657118,-0.62,-3.83,8.87,0.4811111111111111,0.2911111111111111,-0.7177777777777777,0.25,-3.5625,68.625
1589541151.9776733,-0.52,-3.58,9.01,0.4811111111111111,0.2911111111111111,-0.7177777777777777,0.8125,-2.8125,68.6875
1589541151.9895287,-0.5,-3.4,8.91,0.4811111111111111,0.2644444444444444,-0.7588888888888888,0.875,-2.4375,64.375
1589541152.0001204,-0.5,-3.52,8.94,0.4811111111111111,0.2644444444444444,-0.7588888888888888,0.875,-2.4375,64.375
1589541152.0061214,-0.47,-3.51,8.76,0.4811111111111111,0.2644444444444444,-0.7588888888888888,0.25,-2.5625,61.25
1589541152.016117,-0.6,-3.54,8.81,0.4811111111111111,0.2644444444444444,-0.7588888888888888,-0.5,-2.5,51.6875
1589541152.0280097,-0.7,-3.6,8.82,0.4811111111111111,0.2644444444444444,-0.7588888888888888,0.5,-1.5,47.5
1589541152.035558,-0.73,-3.64,8.71,0.4688888888888889,0.23777777777777775,-0.7677777777777778,-0.125,-2.0625,43.6875
1589541152.0475922,-0.68,-3.51,8.81,0.4688888888888889,0.23777777777777775,-0.7677777777777778,-0.375,-1.9375,39.3125
1589541152.0602036,-0.78,-3.66,8.7,0.4688888888888889,0.23777777777777775,-0.7677777777777778,0.125,-1.0,34.625
1589541152.0669007,-0.78,-3.6,8.83,0.4688888888888889,0.23777777777777775,-0.7677777777777778,0.0625,-1.125,29.8125
1589541152.0790372,-0.76,-3.56,8.98,0.4688888888888889,0.23777777777777775,-0.7677777777777778,0.8125,0.125,25.75
1589541152.0867722,-0.82,-3.52,8.87,0.5155555555555555,0.21777777777777774,-0.7944444444444444,-0.25,-0.5625,22.0
1589541152.1001887,-0.82,-3.59,8.93,0.5155555555555555,0.21777777777777774,-0.7944444444444444,-1.0,-0.875,18.4375
1589541152.106385,-0.84,-3.59,8.79,0.5155555555555555,0.21777777777777774,-0.7944444444444444,-0.3125,-0.375,14.375
1589541152.116408,-0.87,-3.44,8.84,0.5155555555555555,0.21777777777777774,-0.7944444444444444,-0.8125,-0.5625,10.0
1589541152.1285934,-0.84,-3.41,8.86,0.5155555555555555,0.21777777777777774,-0.7944444444444444,-1.1875,-0.1875,6.0625
1589541152.1366904,-0.85,-3.51,8.88,0.5155555555555555,0.17888888888888888,-0.8244444444444444,-0.4375,0.625,2.3125
1589541152.146287,-0.82,-3.48,8.79,0.5155555555555555,0.17888888888888888,-0.8244444444444444,-0.6875,0.8125,-2.25
1589541152.156357,-0.99,-3.62,8.76,0.5155555555555555,0.17888888888888888,-0.8244444444444444,-1.1875,0.875,-6.625
1589541152.1666985,-0.96,-3.6,8.75,0.5155555555555555,0.17888888888888888,-0.8244444444444444,-0.8125,1.25,-10.375
1589541152.1787062,-0.99,-3.71,8.86,0.5155555555555555,0.17888888888888888,-0.8244444444444444,-0.8125,1.25,-13.625
1589541152.18614,-0.92,-3.51,8.69,0.5555555555555556,0.12555555555555556,-0.8177777777777778,-0.4375,2.3125,-16.5
1589541152.1979096,-0.94,-3.69,8.88,0.5555555555555556,0.12555555555555556,-0.8177777777777778,-1.5,0.875,-19.5625
1589541152.2111466,-0.93,-3.73,8.94,0.5555555555555556,0.12555555555555556,-0.8177777777777778,-1.8125,1.125,-23.0
1589541152.217228,-0.91,-3.67,8.85,0.5555555555555556,0.12555555555555556,-0.8177777777777778,-0.75,2.875,-26.4375
1589541152.2295856,-0.77,-3.48,8.53,0.5555555555555556,0.12555555555555556,-0.8177777777777778,-0.0625,3.5625,-30.125
1589541152.2364285,-0.7,-3.32,8.96,0.5822222222222222,0.09555555555555556,-0.81,-2.25,0.25,-34.4375
1589541152.2520409,-0.69,-3.28,8.91,0.5822222222222222,0.09555555555555556,-0.81,-2.125,0.6875,-38.1875
1589541152.2587042,-0.78,-3.46,8.69,0.5822222222222222,0.09555555555555556,-0.81,-1.9375,1.1875,-41.0625
1589541152.2672296,-0.85,-3.49,8.87,0.5822222222222222,0.09555555555555556,-0.81,-1.6875,1.75,-42.875
1589541152.2798848,-0.82,-3.55,8.73,0.5822222222222222,0.09555555555555556,-0.81,-1.375,1.8125,-43.6875
1589541152.290535,-0.81,-3.35,9.03,0.5577777777777778,0.03555555555555556,-0.86,-1.0,1.5,-44.6875
1589541152.2966213,-0.87,-3.6,8.81,0.5577777777777778,0.03555555555555556,-0.86,-0.6875,2.25,-44.9375
1589541152.3106775,-0.83,-3.47,8.94,0.5577777777777778,0.03555555555555556,-0.86,-1.625,1.4375,-45.0
1589541152.3175118,-0.74,-3.2,8.69,0.5577777777777778,0.03555555555555556,-0.86,0.125,3.125,-44.375
1589541152.3297706,-0.75,-3.33,8.8,0.5577777777777778,0.03555555555555556,-0.86,1.125,2.375,-43.875
1589541152.3369017,-0.62,-3.31,8.84,0.5111111111111111,0.03,-0.7233333333333334,0.0625,1.9375,-43.625
1589541152.3482318,-0.62,-3.44,8.66,0.5111111111111111,0.03,-0.7233333333333334,-0.75,1.5,-44.0625
1589541152.3606849,-0.72,-3.47,8.81,0.5111111111111111,0.03,-0.7233333333333334,-1.375,0.3125,-44.5
1589541152.3668892,-0.8,-3.58,8.8,0.5111111111111111,0.03,-0.7233333333333334,-0.125,1.5625,-42.875
1589541152.3839176,-0.66,-3.1,8.16,0.5111111111111111,0.03,-0.7233333333333334,0.0625,0.125,-40.875
1589541152.3895578,-0.73,-3.57,9.14,0.4922222222222222,0.11666666666666667,-0.6677777777777778,-0.9375,3.0,-37.625
1589541152.397857,-0.77,-3.56,9.02,0.4922222222222222,0.11666666666666667,-0.6677777777777778,-0.1875,1.1875,-35.1875
1589541152.4095592,-0.74,-3.55,8.76,0.4922222222222222,0.11666666666666667,-0.6677777777777778,0.0,1.4375,-32.25
1589541152.4183724,-0.72,-3.5,8.75,0.4922222222222222,0.11666666666666667,-0.6677777777777778,-0.375,0.8125,-29.25
1589541152.4288447,-0.8,-3.54,8.95,0.4922222222222222,0.11666666666666667,-0.6677777777777778,-0.3125,0.6875,-25.4375
1589541152.4416542,-0.77,-3.61,9.0,0.4844444444444445,0.17,-0.6677777777777778,-0.4375,0.125,-21.4375
1589541152.4486706,-0.66,-3.46,8.9,0.4844444444444445,0.17,-0.6677777777777778,0.3125,0.875,-17.125
1589541152.4619234,-0.58,-3.27,8.37,0.4844444444444445,0.17,-0.6677777777777778,0.8125,1.125,-13.5
1589541152.4680698,-0.53,-3.3,8.82,0.4844444444444445,0.17,-0.6677777777777778,-1.125,-1.625,-11.0
1589541152.4801106,-0.66,-3.57,8.79,0.4844444444444445,0.17,-0.6677777777777778,-0.6875,-0.875,-8.75
1589541152.4873426,-0.64,-3.53,8.89,0.4844444444444445,0.2088888888888889,-0.6233333333333333,0.125,-0.125,-5.625
1589541152.4973578,-0.68,-3.66,8.89,0.4844444444444445,0.2088888888888889,-0.6233333333333333,0.5,-0.25,-2.375
1589541152.502899,-0.68,-3.66,8.89,0.4844444444444445,0.2088888888888889,-0.6233333333333333,0.5,-0.25,-2.375
1589541152.508833,-0.75,-3.69,8.75,0.4844444444444445,0.2088888888888889,-0.6233333333333333,0.0,-0.625,1.25
1589541152.5180564,-0.65,-3.65,8.77,0.4844444444444445,0.2088888888888889,-0.6233333333333333,0.375,-0.625,5.0625
1589541152.5357928,-0.6,-3.64,8.88,0.4844444444444445,0.2088888888888889,-0.6233333333333333,0.25,-0.875,8.125
1589541152.541141,-0.59,-3.6,8.91,0.4844444444444445,0.2411111111111111,-0.6322222222222222,0.625,-1.3125,10.125
1589541152.5538766,-0.59,-3.42,8.9,0.4844444444444445,0.2411111111111111,-0.6322222222222222,0.4375,-1.4375,12.0
1589541152.5601175,-0.59,-3.45,8.71,0.4844444444444445,0.2411111111111111,-0.6322222222222222,0.5625,-1.375,14.3125
1589541152.572892,-0.63,-3.54,8.84,0.4844444444444445,0.2411111111111111,-0.6322222222222222,0.5625,-1.625,17.0625
1589541152.5814812,-0.6,-3.57,8.82,0.4844444444444445,0.2411111111111111,-0.6322222222222222,1.125,-1.375,20.0
1589541152.5910835,-0.54,-3.5,8.9,0.48,0.2411111111111111,-0.6377777777777778,1.1875,-1.5,21.9375
1589541152.5991259,-0.55,-3.42,8.79,0.48,0.2411111111111111,-0.6377777777777778,1.125,-1.625,23.0625
1589541152.6128044,-0.5,-3.62,8.76,0.48,0.2411111111111111,-0.6377777777777778,0.875,-1.0,23.5
1589541152.6195464,-0.54,-3.68,8.93,0.48,0.2411111111111111,-0.6377777777777778,0.6875,-1.5,22.4375
1589541152.6313815,-0.69,-3.61,8.77,0.48,0.2411111111111111,-0.6377777777777778,0.875,-1.3125,21.5
1589541152.6386838,-0.59,-3.66,8.96,0.48,0.2644444444444444,-0.6466666666666666,0.5,-1.25,22.4375
1589541152.650921,-0.52,-3.57,8.95,0.48,0.2644444444444444,-0.6466666666666666,0.5625,-1.5625,22.6875
1589541152.6590426,-0.37,-3.61,8.76,0.48,0.2644444444444444,-0.6466666666666666,0.5625,-1.3125,21.4375
1589541152.6691005,-0.4,-3.66,8.82,0.48,0.2644444444444444,-0.6466666666666666,0.375,-1.5,18.25
1589541152.681188,-0.41,-3.73,8.78,0.48,0.2644444444444444,-0.6466666666666666,0.4375,-1.0625,13.875
1589541152.6917405,-0.38,-3.56,8.86,0.54,0.2488888888888889,-0.6588888888888889,0.5,-0.875,9.3125
1589541152.6997387,-0.39,-3.56,8.84,0.54,0.2488888888888889,-0.6588888888888889,0.5,-0.625,4.5
1589541152.710536,-0.29,-3.4,8.76,0.54,0.2488888888888889,-0.6588888888888889,0.625,-0.5,-0.4375
1589541152.720406,-0.43,-3.74,8.87,0.54,0.2488888888888889,-0.6588888888888889,0.4375,0.0625,-5.9375
1589541152.7316375,-0.27,-3.35,8.67,0.54,0.2488888888888889,-0.6588888888888889,1.0625,1.0625,-11.5
1589541152.7432349,-0.24,-3.31,9.21,0.5722222222222222,0.2488888888888889,-0.6733333333333333,-0.125,-0.875,-17.3125
1589541152.74965,-0.16,-3.03,8.8,0.5722222222222222,0.2488888888888889,-0.6733333333333333,0.125,1.0625,-23.125
1589541152.7632453,-0.23,-3.12,8.7,0.5722222222222222,0.2488888888888889,-0.6733333333333333,0.125,0.6875,-28.6875
1589541152.769051,-0.32,-3.18,8.81,0.5722222222222222,0.2488888888888889,-0.6733333333333333,-0.5,0.6875,-33.25
1589541152.785173,-0.4,-3.42,8.85,0.5722222222222222,0.2488888888888889,-0.6733333333333333,-0.5,1.125,-36.5625
1589541152.7906182,-0.43,-3.52,8.85,0.6322222222222222,0.2288888888888889,-0.6733333333333333,-0.0625,1.6875,-38.25
1589541152.8000615,-0.83,-3.91,8.74,0.6322222222222222,0.2288888888888889,-0.6733333333333333,-0.1875,1.4375,-39.25
1589541152.8089285,-0.32,-3.65,8.65,0.6322222222222222,0.2288888888888889,-0.6733333333333333,0.125,1.5625,-36.1875
1589541152.8196723,-0.54,-3.75,9.04,0.6322222222222222,0.2288888888888889,-0.6733333333333333,-1.5,-0.125,-35.375
1589541152.8311946,-0.7,-3.75,8.85,0.6322222222222222,0.2288888888888889,-0.6733333333333333,0.5625,1.9375,-34.5625
1589541152.8396485,-0.33,-3.8,8.9,0.9344444444444444,0.15555555555555556,-0.6677777777777778,1.4375,1.8125,-31.3125
1589541152.8500257,-0.41,-3.62,8.96,0.9344444444444444,0.15555555555555556,-0.6677777777777778,-1.625,0.1875,-32.3125
1589541152.860456,-0.45,-3.69,8.84,0.9344444444444444,0.15555555555555556,-0.6677777777777778,-0.125,1.4375,-32.375
1589541152.8702044,-0.65,-3.99,8.93,0.9344444444444444,0.15555555555555556,-0.6677777777777778,1.1875,2.3125,-31.25
1589541152.8822215,-0.61,-3.74,8.47,0.9344444444444444,0.15555555555555556,-0.6677777777777778,-0.0625,2.75,-28.1875
1589541152.894836,-0.28,-3.62,9.03,1.6244444444444444,0.14666666666666667,-0.6377777777777778,-1.4375,-0.375,-24.4375
1589541152.9021733,-0.35,-3.52,8.72,1.6244444444444444,0.14666666666666667,-0.6377777777777778,0.125,0.0,-22.6875
1589541152.9144964,-0.34,-3.65,8.78,1.6244444444444444,0.14666666666666667,-0.6377777777777778,-0.5,-0.375,-21.125
1589541152.9210994,-0.42,-3.66,8.83,1.6244444444444444,0.14666666666666667,-0.6377777777777778,-0.4375,0.75,-19.5
1589541152.9367812,-0.42,-3.67,8.78,1.6244444444444444,0.14666666666666667,-0.6377777777777778,0.5,0.8125,-17.6875
1589541152.9436145,-0.36,-3.73,8.9,0.88,0.24,-0.7033333333333334,-0.0625,-0.125,-15.5
1589541152.9556036,-0.46,-3.78,8.94,0.88,0.24,-0.7033333333333334,-0.625,-0.375,-13.0625
1589541152.9621608,-0.49,-3.78,8.72,0.88,0.24,-0.7033333333333334,0.5,-0.0625,-9.8125
1589541152.9710119,-0.38,-3.61,8.76,0.88,0.24,-0.7033333333333334,0.4375,-0.125,-5.875
1589541152.9832876,-0.32,-3.6,8.86,0.88,0.24,-0.7033333333333334,0.0,-0.75,-2.0
1589541152.9940958,-0.33,-3.65,8.83,0.59,0.3055555555555556,-0.7177777777777777,0.1875,-0.3125,0.6875
1589541153.001119,-0.33,-3.72,8.87,0.59,0.3055555555555556,-0.7177777777777777,0.1875,-0.5625,3.0625
1589541153.0134382,-0.24,-3.52,8.79,0.59,0.3055555555555556,-0.7177777777777777,0.0,-0.75,5.125
1589541153.0209744,-0.28,-3.54,8.92,0.59,0.3055555555555556,-0.7177777777777777,0.5625,-0.5625,6.6875
1589541153.0331886,-0.29,-3.41,8.88,0.59,0.3055555555555556,-0.7177777777777777,0.125,-1.0,8.4375
1589541153.046791,-0.31,-3.59,8.82,0.5244444444444445,0.3288888888888889,-0.7177777777777777,0.25,-0.625,10.6875
1589541153.0529885,-0.27,-3.44,8.79,0.5244444444444445,0.3288888888888889,-0.7177777777777777,0.25,-1.1875,12.375
1589541153.0658126,-0.28,-3.47,8.76,0.5244444444444445,0.3288888888888889,-0.7177777777777777,0.25,-0.875,14.1875
1589541153.071678,-0.31,-3.57,8.82,0.5244444444444445,0.3288888888888889,-0.7177777777777777,0.1875,-1.3125,15.625
1589541153.0868516,-0.32,-3.52,8.85,0.5244444444444445,0.3288888888888889,-0.7177777777777777,0.0625,-1.25,17.1875
1589541153.0931244,-0.29,-3.38,8.92,0.5244444444444445,0.3233333333333333,-0.7177777777777777,0.375,-1.4375,19.0
1589541153.104529,-0.29,-3.56,8.85,0.5244444444444445,0.3233333333333333,-0.7177777777777777,0.4375,-0.8125,20.5
1589541153.111715,-0.25,-3.51,8.81,0.5244444444444445,0.3233333333333333,-0.7177777777777777,0.1875,-1.375,21.625
1589541153.1222475,-0.3,-3.49,8.81,0.5244444444444445,0.3233333333333333,-0.7177777777777777,0.5625,-1.0625,21.875
1589541153.1336586,-0.23,-3.46,8.87,0.5244444444444445,0.3233333333333333,-0.7177777777777777,0.5,-1.4375,22.0
1589541153.145251,-0.18,-3.39,8.92,0.5255555555555556,0.31777777777777777,-0.7322222222222222,0.5625,-1.5,22.125
1589541153.1516352,-0.21,-3.45,8.97,0.5255555555555556,0.31777777777777777,-0.7322222222222222,0.5625,-1.25,21.3125
1589541153.1615615,-0.14,-3.29,8.81,0.5255555555555556,0.31777777777777777,-0.7322222222222222,0.8125,-0.875,19.8125
1589541153.17239,-0.19,-3.29,9.12,0.5255555555555556,0.31777777777777777,-0.7322222222222222,0.5,-2.375,17.5625
1589541153.183744,-0.3,-3.35,8.97,0.5255555555555556,0.31777777777777777,-0.7322222222222222,1.0625,-2.125,15.9375
1589541153.1903641,-0.42,-3.66,9.09,0.4988888888888889,0.2911111111111111,-0.7088888888888889,1.3125,-1.375,15.8125
1589541153.2020185,-0.81,-14.81,2.91,0.4988888888888889,0.2911111111111111,-0.7088888888888889,4.0,3.125,17.4375
1589541153.215595,-13.45,-29.0,16.44,0.4988888888888889,0.2911111111111111,-0.7088888888888889,-28.75,-19.1875,-70.4375
1589541153.2221231,4.37,22.51,-3.66,0.4988888888888889,0.2911111111111111,-0.7088888888888889,-154.25,-14.4375,-271.0
1589541153.2371886,1.44,-2.35,13.86,0.4988888888888889,0.2911111111111111,-0.7088888888888889,-126.0,-24.8125,-297.6875
1589541153.2426608,-0.87,-1.33,0.97,0.4988888888888889,0.3055555555555556,-0.6944444444444444,-111.8125,-8.3125,-296.8125
1589541153.2539868,-1.61,-1.77,13.1,0.4988888888888889,0.3055555555555556,-0.6944444444444444,-37.25,131.25,-276.1875
1589541153.2613456,-2.87,-1.2,10.91,0.4988888888888889,0.3055555555555556,-0.6944444444444444,42.0,99.0,-251.6875
1589541153.2725728,1.89,-1.86,13.3,0.4988888888888889,0.3055555555555556,-0.6944444444444444,154.5625,-25.6875,-227.6875
1589541153.28346,-3.64,6.25,4.0,0.4988888888888889,0.3055555555555556,-0.6944444444444444,210.6875,32.25,-211.0
1589541153.2910905,2.4,-0.57,15.7,0.4355555555555555,0.4688888888888889,-0.6677777777777778,49.125,26.0,-156.375
1589541153.3028474,-0.1,-0.7,6.05,0.4355555555555555,0.4688888888888889,-0.6677777777777778,-70.875,-28.6875,-94.875
1589541153.3117435,1.2,-1.34,12.8,0.4355555555555555,0.4688888888888889,-0.6677777777777778,1.1875,30.625,-83.125
1589541153.321471,0.91,-1.02,5.55,0.4355555555555555,0.4688888888888889,-0.6677777777777778,40.6875,9.125,-78.4375
1589541153.3342154,1.57,-2.21,10.08,0.4355555555555555,0.4688888888888889,-0.6677777777777778,3.0,9.125,-65.875
1589541153.3417494,5.04,-22.41,9.76,0.3644444444444445,0.4844444444444445,-0.6822222222222222,-17.75,-6.5,-54.0625
1589541153.3521519,1.43,-0.6,6.52,0.3644444444444445,0.4844444444444445,-0.6822222222222222,4.5,14.375,-26.1875
1589541153.3639526,1.29,0.0,7.81,0.3644444444444445,0.4844444444444445,-0.6822222222222222,11.6875,-1.6875,17.375
1589541153.3763757,1.29,-4.45,7.78,0.3644444444444445,0.4844444444444445,-0.6822222222222222,-2.8125,-5.9375,21.75
1589541153.3845494,1.26,-4.78,8.6,0.3644444444444445,0.4844444444444445,-0.6822222222222222,-5.5625,1.0625,21.125
1589541153.395603,0.95,-4.04,8.86,0.3466666666666667,0.4955555555555556,-0.6877777777777778,2.1875,1.0625,22.5
1589541153.4029305,0.85,-4.0,8.9,0.3466666666666667,0.4955555555555556,-0.6877777777777778,4.0625,0.1875,20.875
1589541153.4153705,0.99,-4.11,8.65,0.3466666666666667,0.4955555555555556,-0.6877777777777778,-1.0625,-0.5625,18.0
1589541153.4222858,0.85,-4.22,8.85,0.3466666666666667,0.4955555555555556,-0.6877777777777778,-0.9375,-1.0625,18.5625
1589541153.4341333,0.61,-3.96,8.66,0.3466666666666667,0.4955555555555556,-0.6877777777777778,0.125,-1.625,18.75
1589541153.4457564,0.55,-4.05,8.75,0.37333333333333335,0.49,-0.6944444444444444,-0.3125,-1.0,21.25
1589541153.4524155,0.85,-4.03,8.7,0.37333333333333335,0.49,-0.6944444444444444,0.9375,-1.6875,23.8125
1589541153.4678519,1.13,-4.26,8.98,0.37333333333333335,0.49,-0.6944444444444444,0.375,-0.875,24.75
1589541153.4745052,0.82,-4.19,8.64,0.37333333333333335,0.49,-0.6944444444444444,-0.75,-1.4375,23.0625
1589541153.4876268,0.78,-4.17,8.71,0.37333333333333335,0.49,-0.6944444444444444,-0.1875,-0.75,21.5625
1589541153.493616,1.07,-4.26,8.86,0.37333333333333335,0.48,-0.6877777777777778,0.6875,-0.4375,21.75
1589541153.5041091,0.85,-4.25,8.88,0.37333333333333335,0.48,-0.6877777777777778,0.3125,-0.8125,20.5625
1589541153.5133429,0.69,-4.15,8.65,0.37333333333333335,0.48,-0.6877777777777778,0.75,-0.5,17.6875
