time,acc_x,acc_y,acc_z,mag_x,mag_y,mag_z,gyr_x,gyr_y,gyr_z
1589542489.75345,-0.45,-3.95,8.89,0.4566666666666666,0.2788888888888889,-0.6311111111111111,0.5625,0.6875,-0.0625
1589542489.759402,-0.47,-3.94,8.8,0.4833333333333333,0.2855555555555556,-0.6377777777777778,0.5,0.3125,0.0
1589542489.7707512,-0.44,-3.97,8.93,0.4833333333333333,0.2855555555555556,-0.6377777777777778,-0.1875,-0.375,-0.0625
1589542489.776817,-0.49,-3.93,8.76,0.4833333333333333,0.2855555555555556,-0.6377777777777778,-0.0625,-0.4375,0.0
1589542489.7856047,-0.48,-3.93,8.78,0.4833333333333333,0.2855555555555556,-0.6377777777777778,-0.25,-0.6875,0.0
1589542489.7985961,-0.44,-3.91,8.85,0.4833333333333333,0.2855555555555556,-0.6377777777777778,-0.3125,-0.625,-0.25
1589542489.80638,-0.45,-3.93,8.84,0.4577777777777778,0.3055555555555556,-0.6044444444444445,-0.0625,-0.4375,0.0625
1589542489.8164682,-0.45,-3.89,8.89,0.4577777777777778,0.3055555555555556,-0.6044444444444445,-0.25,-0.5625,-0.25
1589542489.8297164,-0.45,-3.91,8.76,0.4577777777777778,0.3055555555555556,-0.6044444444444445,0.0,-0.4375,-0.5625
1589542489.8365734,-0.43,-3.84,8.83,0.4577777777777778,0.3055555555555556,-0.6044444444444445,0.0,-0.4375,-1.0
1589542489.848336,-0.42,-3.89,8.88,0.4577777777777778,0.3055555555555556,-0.6044444444444445,-0.0625,-0.5,-1.5625
1589542489.855461,-0.46,-3.92,8.89,0.4777777777777778,0.3,-0.6255555555555555,0.125,-0.25,-2.125
1589542489.8687046,-0.44,-3.98,8.87,0.4777777777777778,0.3,-0.6255555555555555,0.0625,-0.25,-2.625
1589542489.8761225,-0.45,-4.01,8.8,0.4777777777777778,0.3,-0.6255555555555555,-0.1875,-0.1875,-2.625
1589542489.886099,-0.46,-3.98,8.81,0.4777777777777778,0.3,-0.6255555555555555,-0.5,-0.375,-2.5625
1589542489.8983324,-0.41,-3.95,8.9,0.4777777777777778,0.3,-0.6255555555555555,-0.75,-0.5,-2.375
1589542489.910078,-0.41,-3.97,8.85,0.49,0.3,-0.6311111111111111,-0.75,-0.4375,-2.4375
1589542489.9192376,-0.45,-3.97,8.85,0.49,0.3,-0.6311111111111111,-0.3125,0.125,-2.5625
1589542489.9294894,-0.42,-3.98,8.73,0.49,0.3,-0.6311111111111111,-0.3125,0.1875,-2.3125
1589542489.9363465,-0.43,-3.97,8.73,0.49,0.3,-0.6311111111111111,0.0,0.0,-1.875
1589542489.9487484,-0.42,-4.01,8.81,0.49,0.3,-0.6311111111111111,0.1875,0.375,-1.5
1589542489.9574847,-0.45,-4.01,8.85,0.49,0.2733333333333333,-0.6255555555555555,0.3125,0.25,-1.0625
1589542489.9687989,-0.44,-3.98,8.87,0.49,0.2733333333333333,-0.6255555555555555,0.5,0.1875,-0.6875
1589542489.980862,-0.41,-3.9,8.81,0.49,0.2733333333333333,-0.6255555555555555,0.3125,0.25,-0.625
1589542489.9868233,-0.39,-3.91,8.91,0.49,0.2733333333333333,-0.6255555555555555,0.0625,-0.125,-0.6875
1589542489.9995787,-0.41,-3.93,8.88,0.49,0.2733333333333333,-0.6255555555555555,-0.0625,-0.1875,-0.8125
1589542490.00715,-0.42,-3.9,8.94,0.4711111111111111,0.2855555555555556,-0.6166666666666667,-0.5,-0.625,-1.1875
1589542490.019603,-0.38,-3.92,8.83,0.4711111111111111,0.2855555555555556,-0.6166666666666667,-0.5,-0.25,-1.5625
1589542490.0270019,-0.37,-3.98,8.76,0.4711111111111111,0.2855555555555556,-0.6166666666666667,-0.5,0.1875,-2.0
1589542490.0398893,-0.36,-4.06,8.76,0.4711111111111111,0.2855555555555556,-0.6166666666666667,-0.1875,0.5,-1.875
1589542490.0493324,-0.41,-4.16,8.82,0.4711111111111111,0.2855555555555556,-0.6166666666666667,0.1875,0.625,-1.5
1589542490.0575314,-0.44,-4.1,8.83,0.4777777777777778,0.2933333333333333,-0.6466666666666666,0.3125,0.8125,-0.875
1589542490.0670366,-0.46,-4.02,8.81,0.4777777777777778,0.2933333333333333,-0.6466666666666666,0.5625,0.8125,-0.4375
1589542490.0779786,-0.46,-4.01,8.78,0.4777777777777778,0.2933333333333333,-0.6466666666666666,0.4375,0.25,-0.375
1589542490.0873034,-0.42,-3.98,8.88,0.4777777777777778,0.2933333333333333,-0.6466666666666666,0.4375,0.25,-0.1875
1589542490.0996304,-0.43,-3.96,8.9,0.4777777777777778,0.2933333333333333,-0.6466666666666666,0.6875,0.625,-0.0625
1589542490.1079535,-0.41,-3.95,8.93,0.4777777777777778,0.2855555555555556,-0.6311111111111111,0.5,0.4375,0.0625
1589542490.1196518,-0.47,-3.93,8.77,0.4777777777777778,0.2855555555555556,-0.6311111111111111,0.4375,0.5,0.0
1589542490.128383,-0.46,-3.93,8.72,0.4777777777777778,0.2855555555555556,-0.6311111111111111,-0.0625,-0.125,0.0
1589542490.1385653,-0.41,-3.99,8.82,0.4777777777777778,0.2855555555555556,-0.6311111111111111,-1.0625,-0.875,0.0
1589542490.1498306,-0.43,-3.95,8.83,0.4777777777777778,0.2855555555555556,-0.6311111111111111,-1.25,-0.9375,0.0
1589542490.1574314,-0.39,-3.96,8.85,0.4633333333333333,0.2855555555555556,-0.6311111111111111,-1.375,-1.375,-0.0625
1589542490.171717,-0.36,-3.94,8.86,0.4633333333333333,0.2855555555555556,-0.6311111111111111,-1.4375,-1.875,-0.25
1589542490.1774929,-0.38,-3.92,8.76,0.4633333333333333,0.2855555555555556,-0.6311111111111111,-0.9375,-1.0,-0.8125
1589542490.1878862,-0.36,-3.94,8.8,0.4633333333333333,0.2855555555555556,-0.6311111111111111,-0.3125,-0.375,-1.25
1589542490.199459,-0.43,-3.95,8.82,0.4633333333333333,0.2855555555555556,-0.6311111111111111,0.4375,0.375,-1.5625
1589542490.2106824,-0.41,-3.94,8.85,0.49,0.3,-0.6311111111111111,0.375,0.375,-1.8125
1589542490.2173214,-0.42,-3.92,8.88,0.49,0.3,-0.6311111111111111,0.125,0.0,-1.6875
1589542490.229989,-0.43,-3.93,8.81,0.49,0.3,-0.6311111111111111,-0.625,-0.5625,-1.8125
1589542490.237606,-0.41,-3.88,8.95,0.49,0.3,-0.6311111111111111,-1.5625,-1.3125,-2.0
1589542490.2496276,-0.42,-3.8,8.97,0.49,0.3,-0.6311111111111111,-1.5,-1.4375,-1.875
1589542490.2573135,-0.43,-3.79,8.91,0.4777777777777778,0.2933333333333333,-0.64,-1.1875,-1.0,-1.4375
1589542490.2672508,-0.8,-3.39,8.68,0.4777777777777778,0.2933333333333333,-0.64,-0.6875,-0.625,-1.125
1589542490.2728598,-0.8,-3.39,8.68,0.4777777777777778,0.2933333333333333,-0.64,-0.6875,-0.625,-1.125
1589542490.2843792,-0.66,-3.57,8.87,0.4777777777777778,0.2933333333333333,-0.64,-0.75,-0.625,0.0625
1589542490.2918086,-0.46,-3.73,8.86,0.4777777777777778,0.2933333333333333,-0.64,-0.6875,-0.875,2.1875
1589542490.3045466,-0.31,-3.74,8.83,0.4777777777777778,0.2933333333333333,-0.64,-0.1875,-0.125,3.0
1589542490.3105795,-0.32,-3.72,8.82,0.4777777777777778,0.3055555555555556,-0.6255555555555555,-0.75,-1.0,3.1875
1589542490.3185089,-0.32,-3.56,8.76,0.4777777777777778,0.3055555555555556,-0.6255555555555555,-1.3125,-1.3125,3.0625
1589542490.3299909,-0.25,-3.47,8.9,0.4777777777777778,0.3055555555555556,-0.6255555555555555,-3.0625,-2.6875,1.3125
1589542490.342148,-0.36,-2.57,8.92,0.4777777777777778,0.3055555555555556,-0.6255555555555555,-3.4375,-2.3125,-0.5
1589542490.3504252,-0.53,-2.62,9.06,0.4777777777777778,0.3055555555555556,-0.6255555555555555,-2.375,-1.25,2.4375
1589542490.3619404,-0.79,-2.67,9.03,0.4566666666666666,0.2933333333333333,-0.6311111111111111,-0.8125,-0.875,5.8125
1589542490.3679526,-0.77,-2.67,8.73,0.4566666666666666,0.2933333333333333,-0.6311111111111111,0.9375,0.4375,15.625
1589542490.373262,-0.77,-2.67,8.73,0.4566666666666666,0.2933333333333333,-0.6311111111111111,0.9375,0.4375,15.625
1589542490.3835518,-0.64,-2.62,8.79,0.4566666666666666,0.2933333333333333,-0.6311111111111111,-0.375,-1.5625,26.5
1589542490.3896062,-0.63,-2.68,8.78,0.4566666666666666,0.2933333333333333,-0.6311111111111111,0.125,-2.25,35.875
1589542490.4009054,-0.67,-2.78,8.92,0.4566666666666666,0.2933333333333333,-0.6311111111111111,0.75,-2.5,43.3125
1589542490.4083705,-0.68,-2.84,8.89,0.4833333333333333,0.3055555555555556,-0.6255555555555555,0.625,-2.375,50.625
1589542490.4208827,-0.64,-2.82,9.04,0.4833333333333333,0.3055555555555556,-0.6255555555555555,0.6875,-3.25,57.5
1589542490.4314127,-0.66,-2.87,8.92,0.4833333333333333,0.3055555555555556,-0.6255555555555555,0.5,-3.3125,63.6875
1589542490.439448,-0.62,-2.82,8.87,0.4833333333333333,0.3055555555555556,-0.6255555555555555,0.9375,-2.9375,69.25
1589542490.4562232,-0.66,-2.76,8.99,0.4833333333333333,0.3055555555555556,-0.6255555555555555,0.625,-3.4375,74.375
1589542490.4622226,-0.72,-2.78,8.87,0.49,0.2788888888888889,-0.6255555555555555,-0.125,-4.125,78.4375
1589542490.4698546,-0.74,-2.81,9.01,0.49,0.2788888888888889,-0.6255555555555555,0.0625,-4.4375,82.5
1589542490.4818587,-0.8,-2.88,8.57,0.49,0.2788888888888889,-0.6255555555555555,1.0625,-4.3125,87.0
1589542490.493932,-0.8,-2.91,8.86,0.49,0.2788888888888889,-0.6255555555555555,1.625,-4.25,91.125
1589542490.5021982,-0.82,-2.84,8.94,0.49,0.2788888888888889,-0.6255555555555555,0.25,-5.625,94.6875
1589542490.5135734,-0.96,-2.8,8.93,0.5166666666666667,0.2466666666666667,-0.64,0.9375,-5.25,98.8125
1589542490.5199795,-1.02,-2.75,8.99,0.5166666666666667,0.2466666666666667,-0.64,1.0,-5.5,102.9375
1589542490.5332408,-1.16,-2.82,9.08,0.5166666666666667,0.2466666666666667,-0.64,0.6875,-7.5,107.0625
1589542490.5398462,-1.12,-2.71,8.92,0.5166666666666667,0.2466666666666667,-0.64,2.125,-6.875,112.0
1589542490.5514965,-1.19,-2.75,9.18,0.5166666666666667,0.2466666666666667,-0.64,1.75,-5.25,117.875
1589542490.5597606,-1.27,-2.86,9.3,0.5244444444444445,0.22,-0.6611111111111111,0.3125,-5.75,123.8125
1589542490.5698225,-1.28,-2.68,8.94,0.5244444444444445,0.22,-0.6611111111111111,1.6875,-6.75,129.0
1589542490.5802836,-1.31,-2.63,8.63,0.5244444444444445,0.22,-0.6611111111111111,3.0625,-4.125,134.8125
1589542490.5903099,-1.16,-2.61,8.89,0.5244444444444445,0.22,-0.6611111111111111,1.625,-5.5,140.3125
1589542490.6019044,-1.12,-2.72,9.01,0.5244444444444445,0.22,-0.6611111111111111,1.3125,-8.375,144.75
1589542490.6116185,-1.16,-2.65,8.97,0.5311111111111111,0.14888888888888888,-0.6522222222222223,0.9375,-8.5,147.375
1589542490.6202295,-1.3,-2.75,8.83,0.5311111111111111,0.14888888888888888,-0.6522222222222223,1.625,-7.375,148.75
1589542490.6311734,-1.36,-2.69,8.75,0.5311111111111111,0.14888888888888888,-0.6522222222222223,2.125,-7.9375,149.5625
1589542490.6399136,-1.43,-2.73,8.66,0.5311111111111111,0.14888888888888888,-0.6522222222222223,2.1875,-6.875,151.0625
1589542490.651298,-1.45,-2.76,9.42,0.5311111111111111,0.14888888888888888,-0.6522222222222223,1.625,-8.625,151.8125
1589542490.6634693,-1.59,-2.65,8.84,0.5433333333333333,0.09555555555555556,-0.6666666666666666,2.3125,-7.25,153.25
1589542490.6701715,-1.64,-2.78,9.28,0.5433333333333333,0.09555555555555556,-0.6666666666666666,1.8125,-7.25,154.25
1589542490.6848516,-1.6,-2.61,8.68,0.5433333333333333,0.09555555555555556,-0.6666666666666666,1.3125,-7.8125,154.8125
1589542490.6910918,-1.61,-2.53,8.67,0.5433333333333333,0.09555555555555556,-0.6666666666666666,1.75,-6.625,155.3125
1589542490.7025616,-1.81,-2.69,9.26,0.5433333333333333,0.09555555555555556,-0.6666666666666666,1.3125,-8.9375,154.8125
1589542490.708902,-1.62,-2.29,8.08,0.57,0.03,-0.6822222222222222,3.625,-5.625,154.9375
1589542490.7205153,-1.62,-2.29,8.08,0.57,0.03,-0.6822222222222222,3.625,-5.625,154.9375
1589542490.7298436,-1.71,-2.19,7.96,0.57,0.03,-0.6822222222222222,1.0625,-8.875,149.125
1589542490.7439687,-1.92,-2.4,9.62,0.57,0.03,-0.6822222222222222,0.9375,-7.25,144.1875
1589542490.752248,-2.06,-2.35,9.27,0.57,0.03,-0.6822222222222222,-0.75,-10.75,140.4375
1589542490.7595801,-2.04,-2.2,8.62,0.5488888888888889,-0.03333333333333333,-0.7022222222222222,1.8125,-6.4375,137.25
1589542490.766597,-2.04,-2.2,8.62,0.5488888888888889,-0.03333333333333333,-0.7022222222222222,1.8125,-6.4375,137.25
1589542490.7781415,-2.1,-2.26,9.18,0.5488888888888889,-0.03333333333333333,-0.7022222222222222,1.8125,-6.4375,137.25
1589542490.7842815,-2.12,-2.2,8.87,0.5488888888888889,-0.03333333333333333,-0.7022222222222222,1.4375,-7.0,135.0
1589542490.791283,-2.12,-2.12,8.84,0.5488888888888889,-0.03333333333333333,-0.7022222222222222,0.9375,-6.125,128.0625
1589542490.8033438,-2.42,-2.2,9.4,0.5488888888888889,-0.03333333333333333,-0.7022222222222222,1.125,-5.875,124.5625
1589542490.8116453,-2.29,-1.94,8.61,0.5288888888888889,-0.09888888888888887,-0.7088888888888889,3.1875,-2.9375,122.3125
1589542490.8219905,-2.09,-1.88,8.83,0.5288888888888889,-0.09888888888888887,-0.7088888888888889,1.125,-5.625,118.0625
1589542490.8357534,-2.33,-1.98,9.17,0.5288888888888889,-0.09888888888888887,-0.7088888888888889,2.0,-5.0625,113.125
1589542490.8416288,-2.02,-1.69,8.86,0.5288888888888889,-0.09888888888888887,-0.7088888888888889,1.125,-4.625,107.0625
1589542490.856502,-2.1,-1.68,9.24,0.5288888888888889,-0.09888888888888887,-0.7088888888888889,0.75,-4.8125,100.3125
1589542490.862632,-2.28,-1.67,8.9,0.5288888888888889,-0.14222222222222222,-0.7444444444444445,1.6875,-3.6875,94.0625
1589542490.8741946,-2.15,-1.59,9.0,0.5288888888888889,-0.14222222222222222,-0.7444444444444445,0.3125,-4.25,86.375
1589542490.8805525,-1.99,-1.5,9.27,0.5288888888888889,-0.14222222222222222,-0.7444444444444445,-0.8125,-6.625,78.0
1589542490.8904836,-2.4,-1.62,9.63,0.5288888888888889,-0.14222222222222222,-0.7444444444444445,0.9375,-1.375,69.875
1589542490.902479,-2.35,-1.48,8.62,0.5288888888888889,-0.14222222222222222,-0.7444444444444445,1.875,-1.6875,62.1875
1589542490.913743,-1.97,-1.32,8.83,0.5011111111111111,-0.17888888888888888,-0.7588888888888888,0.4375,-3.75,54.0
1589542490.9211118,-2.47,-1.52,9.12,0.5011111111111111,-0.17888888888888888,-0.7588888888888888,-0.9375,-1.25,45.3125
1589542490.9308734,-2.51,-1.53,9.14,0.5011111111111111,-0.17888888888888888,-0.7588888888888888,-0.75,-3.0,37.875
1589542490.9407375,-2.47,-1.5,9.09,0.5011111111111111,-0.17888888888888888,-0.7588888888888888,2.75,1.3125,31.875
1589542490.956045,-2.22,-1.4,8.92,0.5011111111111111,-0.17888888888888888,-0.7588888888888888,-0.625,-0.25,23.375
1589542490.963965,-2.23,-1.39,8.85,0.44222222222222224,-0.20444444444444448,-0.8088888888888889,-1.5,-1.5625,15.1875
1589542490.9747422,-2.57,-1.6,9.65,0.44222222222222224,-0.20444444444444448,-0.8088888888888889,-0.4375,1.75,8.0625
1589542490.9858994,-2.04,-1.19,7.92,0.44222222222222224,-0.20444444444444448,-0.8088888888888889,1.0,1.4375,2.1875
1589542490.9922585,-2.34,-1.51,9.95,0.44222222222222224,-0.20444444444444448,-0.8088888888888889,-2.625,-1.1875,-4.125
1589542491.0081408,-2.07,-1.28,8.72,0.44222222222222224,-0.20444444444444448,-0.8088888888888889,0.3125,-0.75,-7.9375
1589542491.0143518,-2.2,-1.4,8.96,0.3944444444444444,-0.23222222222222225,-0.7866666666666666,-1.625,4.9375,-12.6875
1589542491.026051,-2.15,-1.34,8.13,0.3944444444444444,-0.23222222222222225,-0.7866666666666666,1.9375,1.5625,-16.8125
1589542491.0327592,-2.73,-1.64,9.39,0.3944444444444444,-0.23222222222222225,-0.7866666666666666,-2.8125,3.9375,-21.75
1589542491.0457375,-1.99,-1.3,8.19,0.3944444444444444,-0.23222222222222225,-0.7866666666666666,-1.0625,3.8125,-25.125
1589542491.0532598,-2.38,-1.54,8.92,0.3944444444444444,-0.23222222222222225,-0.7866666666666666,-0.5625,2.125,-28.4375
1589542491.065414,-2.81,-1.66,9.2,0.3944444444444444,-0.27,-0.7733333333333333,-1.375,5.1875,-30.5625
1589542491.0718882,-2.77,-1.63,8.49,0.3944444444444444,-0.27,-0.7733333333333333,-0.1875,3.5625,-31.9375
1589542491.0833259,-2.87,-1.79,9.53,0.3944444444444444,-0.27,-0.7733333333333333,-0.1875,4.0,-31.8125
1589542491.0920825,-3.06,-1.82,8.99,0.3944444444444444,-0.27,-0.7733333333333333,-2.0625,1.1875,-32.5
1589542491.1036065,-3.0,-1.83,9.55,0.3944444444444444,-0.27,-0.7733333333333333,-3.125,-0.625,-31.75
1589542491.1112187,-2.75,-1.63,9.13,0.34444444444444444,-0.25,-0.8244444444444444,0.25,3.8125,-28.6875
1589542491.122468,-2.87,-1.69,8.63,0.34444444444444444,-0.25,-0.8244444444444444,-0.375,1.875,-26.0
1589542491.1327221,-2.81,-1.7,8.65,0.34444444444444444,-0.25,-0.8244444444444444,0.125,2.4375,-23.875
1589542491.1451285,-2.84,-1.65,8.39,0.34444444444444444,-0.25,-0.8244444444444444,-0.25,1.6875,-22.1875
1589542491.1586149,-2.97,-1.86,9.39,0.34444444444444444,-0.25,-0.8244444444444444,-2.875,-2.3125,-21.5625
1589542491.164444,-2.46,-1.66,9.64,0.3388888888888889,-0.3111111111111111,-0.6733333333333333,-2.25,-2.8125,-19.625
1589542491.172648,-2.6,-1.68,9.27,0.3388888888888889,-0.3111111111111111,-0.6733333333333333,-0.125,2.4375,-17.4375
1589542491.1829839,-3.05,-1.84,8.72,0.3388888888888889,-0.3111111111111111,-0.6733333333333333,3.8125,5.3125,-14.5625
1589542491.1954925,-3.1,-1.87,8.85,0.3388888888888889,-0.3111111111111111,-0.6733333333333333,0.0,2.125,-14.5625
1589542491.2059135,-2.69,-1.76,9.26,0.3388888888888889,-0.3111111111111111,-0.6733333333333333,-1.0625,-0.25,-13.6875
1589542491.2173455,-2.53,-1.65,8.94,0.4211111111111111,-0.2611111111111111,-0.6466666666666666,0.9375,0.375,-12.8125
1589542491.224068,-2.43,-1.57,8.78,0.4211111111111111,-0.2611111111111111,-0.6466666666666666,-0.875,0.3125,-13.875
1589542491.2354672,-2.44,-1.71,9.11,0.4211111111111111,-0.2611111111111111,-0.6466666666666666,-2.625,-2.5,-15.5
1589542491.2424872,-2.39,-1.74,9.4,0.4211111111111111,-0.2611111111111111,-0.6466666666666666,0.0625,-1.25,-17.1875
1589542491.2542355,-2.86,-1.95,9.37,0.4211111111111111,-0.2611111111111111,-0.6466666666666666,1.625,3.75,-20.25
1589542491.2631366,-3.06,-1.97,8.31,0.4477777777777778,-0.2344444444444445,-0.64,0.0,2.3125,-23.4375
1589542491.2733538,-2.44,-1.75,8.83,0.4477777777777778,-0.2344444444444445,-0.64,-1.0625,-1.875,-26.5625
1589542491.282989,-2.64,-1.79,8.92,0.4477777777777778,-0.2344444444444445,-0.64,0.125,0.25,-29.5
1589542491.2956305,-2.7,-1.92,9.49,0.4477777777777778,-0.2344444444444445,-0.64,1.125,0.75,-30.75
1589542491.3100314,-2.33,-1.67,7.96,0.4477777777777778,-0.2344444444444445,-0.64,1.8125,4.1875,-31.375
1589542491.3164847,-2.52,-1.83,8.65,0.4655555555555556,-0.21333333333333332,-0.6522222222222223,0.4375,2.0,-33.625
1589542491.3260741,-2.52,-1.99,9.92,0.4655555555555556,-0.21333333333333332,-0.6522222222222223,-2.375,-2.6875,-37.4375
1589542491.336517,-2.67,-1.92,8.93,0.4655555555555556,-0.21333333333333332,-0.6522222222222223,-0.125,1.5625,-39.5625
1589542491.3479714,-2.85,-2.1,9.12,0.4655555555555556,-0.21333333333333332,-0.6522222222222223,-1.0,0.125,-41.0625
1589542491.3547516,-2.4,-1.89,8.93,0.4655555555555556,-0.21333333333333332,-0.6522222222222223,0.0625,-0.125,-41.875
1589542491.3687615,-2.56,-2.01,9.0,0.4922222222222222,-0.1811111111111111,-0.6466666666666666,-0.3125,1.125,-43.5
1589542491.3751998,-2.44,-1.99,9.07,0.4922222222222222,-0.1811111111111111,-0.6466666666666666,-1.125,-0.0625,-45.875
1589542491.3875391,-2.55,-1.91,7.87,0.4922222222222222,-0.1811111111111111,-0.6466666666666666,2.3125,6.0625,-46.9375
1589542491.39484,-2.48,-1.77,8.6,0.4922222222222222,-0.1811111111111111,-0.6466666666666666,0.1875,3.1875,-49.6875
1589542491.4067333,-1.8,-2.06,9.52,0.4922222222222222,-0.1811111111111111,-0.6466666666666666,-2.125,-2.3125,-52.6875
1589542491.4138026,-1.43,-2.18,8.54,0.4988888888888889,-0.1688888888888889,-0.6666666666666666,1.1875,3.125,-58.4375
1589542491.4273806,-1.65,-2.44,9.26,0.4988888888888889,-0.1688888888888889,-0.6666666666666666,0.375,4.9375,-67.6875
1589542491.433152,-1.53,-2.1,8.69,0.4988888888888889,-0.1688888888888889,-0.6666666666666666,-0.8125,4.3125,-81.0625
1589542491.4457705,-2.41,-2.45,8.99,0.4988888888888889,-0.1688888888888889,-0.6666666666666666,-2.4375,3.5,-96.8125
1589542491.4614224,-2.2,-2.63,9.24,0.4988888888888889,-0.1688888888888889,-0.6666666666666666,-1.375,2.0625,-99.0625
1589542491.467033,-2.13,-2.75,9.17,0.4922222222222222,-0.14888888888888888,-0.6666666666666666,-1.625,5.3125,-100.4375
1589542491.4739687,-1.94,-2.76,8.62,0.4922222222222222,-0.14888888888888888,-0.6666666666666666,-0.5625,5.25,-106.0625
1589542491.4840007,-1.77,-3.0,9.23,0.4922222222222222,-0.14888888888888888,-0.6666666666666666,-2.625,3.625,-115.125
1589542491.495455,-1.66,-2.72,8.94,0.4922222222222222,-0.14888888888888888,-0.6666666666666666,-1.5625,5.5625,-124.5625
1589542491.5057335,-1.98,-2.9,8.26,0.4922222222222222,-0.14888888888888888,-0.6666666666666666,1.9375,9.25,-131.625
1589542491.5136006,-1.69,-2.81,8.79,0.5333333333333333,-0.17555555555555555,-0.6666666666666666,-4.8125,3.125,-138.5
1589542491.5253146,-2.23,-3.17,8.86,0.5333333333333333,-0.17555555555555555,-0.6666666666666666,-3.375,4.8125,-139.4375
1589542491.5396788,-2.04,-2.93,8.22,0.5333333333333333,-0.17555555555555555,-0.6666666666666666,0.375,9.5625,-137.4375
1589542491.545633,-2.12,-3.16,9.18,0.5333333333333333,-0.17555555555555555,-0.6666666666666666,-2.8125,4.75,-135.25
1589542491.5556881,-2.29,-3.25,9.42,0.5333333333333333,-0.17555555555555555,-0.6666666666666666,-1.0625,7.5625,-132.3125
1589542491.5639155,-2.59,-3.64,9.48,0.5633333333333334,-0.4122222222222222,-0.5333333333333333,-1.625,5.1875,-128.8125
1589542491.5779667,-2.48,-3.5,9.28,0.5633333333333334,-0.4122222222222222,-0.5333333333333333,-3.6875,3.0,-123.4375
1589542491.5839148,-2.16,-3.18,8.74,0.5633333333333334,-0.4122222222222222,-0.5333333333333333,-0.5625,7.8125,-114.375
1589542491.597493,-2.29,-3.56,9.29,0.5633333333333334,-0.4122222222222222,-0.5333333333333333,0.3125,5.0,-106.375
1589542491.606141,-2.19,-3.26,8.4,0.5633333333333334,-0.4122222222222222,-0.5333333333333333,0.0,5.3125,-98.1875
1589542491.6137025,-2.0,-3.27,8.8,1.3877777777777778,-0.3111111111111111,0.1955555555555556,-1.9375,7.3125,-89.5625
1589542491.6206186,-2.0,-3.27,8.8,1.3877777777777778,-0.3111111111111111,0.1955555555555556,-1.9375,7.3125,-89.5625
1589542491.6270945,-1.97,-3.31,8.51,1.3877777777777778,-0.3111111111111111,0.1955555555555556,-1.75,1.1875,-82.1875
1589542491.637917,-1.86,-3.28,9.07,1.3877777777777778,-0.3111111111111111,0.1955555555555556,-3.0625,-0.5625,-75.25
1589542491.646653,-1.76,-3.14,8.06,1.3877777777777778,-0.3111111111111111,0.1955555555555556,0.0,4.375,-68.0625
1589542491.6564019,-1.71,-3.3,9.56,1.3877777777777778,-0.3111111111111111,0.1955555555555556,-2.6875,-0.875,-65.8125
1589542491.6642365,-1.66,-3.31,8.28,0.8566666666666667,0.06333333333333334,-0.6766666666666666,-0.5625,3.25,-63.875
1589542491.6764915,-1.49,-3.3,8.77,0.8566666666666667,0.06333333333333334,-0.6766666666666666,1.25,6.5,-63.5625
1589542491.6855974,-1.18,-3.21,9.16,0.8566666666666667,0.06333333333333334,-0.6766666666666666,0.25,3.5,-65.5625
1589542491.6979804,-1.18,-3.11,8.3,0.8566666666666667,0.06333333333333334,-0.6766666666666666,0.125,2.5625,-70.3125
1589542491.706881,-1.23,-3.3,10.22,0.8566666666666667,0.06333333333333334,-0.6766666666666666,-2.9375,-0.875,-75.125
1589542491.7147374,-1.24,-3.14,8.25,0.6144444444444445,0.09777777777777777,-0.7033333333333334,1.5625,2.6875,-77.5625
1589542491.7290006,-1.1,-2.7,8.02,0.6144444444444445,0.09777777777777777,-0.7033333333333334,-1.1875,7.8125,-79.3125
1589542491.7352738,-1.27,-3.53,9.12,0.6144444444444445,0.09777777777777777,-0.7033333333333334,-4.5,1.0625,-81.6875
1589542491.7449384,-1.23,-3.56,8.13,0.6144444444444445,0.09777777777777777,-0.7033333333333334,1.4375,6.25,-83.4375
1589542491.757172,-1.11,-3.59,9.14,0.6144444444444445,0.09777777777777777,-0.7033333333333334,0.375,4.625,-88.6875
1589542491.7685099,-1.02,-3.36,9.06,0.5722222222222222,0.15222222222222226,-0.72,-2.0,2.3125,-94.75
1589542491.7759125,-1.18,-3.56,9.1,0.5722222222222222,0.15222222222222226,-0.72,-2.1875,3.8125,-98.5
1589542491.7864866,-1.3,-3.76,8.93,0.5722222222222222,0.15222222222222226,-0.72,-1.875,1.4375,-100.8125
1589542491.7954311,-1.16,-3.34,8.92,0.5722222222222222,0.15222222222222226,-0.72,-1.1875,4.625,-101.1875
1589542491.8081872,-1.26,-3.66,8.82,0.5722222222222222,0.15222222222222226,-0.72,-0.3125,6.0,-99.4375
1589542491.8153439,-1.16,-3.46,9.06,0.5555555555555556,0.19333333333333333,-0.7111111111111111,-1.375,3.75,-96.875
1589542491.8258517,-1.19,-3.42,8.82,0.5555555555555556,0.19333333333333333,-0.7111111111111111,-0.6875,3.5,-92.9375
1589542491.8355086,-1.12,-3.42,8.91,0.5555555555555556,0.19333333333333333,-0.7111111111111111,-0.0625,4.3125,-87.6875
1589542491.847107,-1.09,-3.29,9.49,0.5555555555555556,0.19333333333333333,-0.7111111111111111,-2.4375,1.375,-82.6875
1589542491.862605,-1.52,-4.02,9.77,0.5555555555555556,0.19333333333333333,-0.7111111111111111,-3.1875,-3.3125,-77.5625
1589542491.8690572,-1.5,-4.16,8.07,0.5011111111111111,0.22333333333333333,-0.7233333333333334,0.5625,6.1875,-65.75
1589542491.8804975,-1.66,-4.29,9.07,0.5011111111111111,0.22333333333333333,-0.7233333333333334,0.25,3.1875,-55.0
1589542491.8863544,-2.6,-9.76,10.66,0.5011111111111111,0.22333333333333333,-0.7233333333333334,2.1875,2.125,-43.0625
1589542491.9003818,-15.12,-25.22,-1.32,0.5011111111111111,0.22333333333333333,-0.7233333333333334,-7.9375,14.0625,-84.25
1589542491.9075544,2.3,-0.54,18.4,0.5011111111111111,0.22333333333333333,-0.7233333333333334,-150.6875,-73.625,-610.125
1589542491.9201672,-3.59,-1.23,15.61,0.4955555555555556,0.26666666666666666,-0.6822222222222222,-152.0625,48.0,-710.875
1589542491.9262257,-1.39,-0.81,1.82,0.4955555555555556,0.26666666666666666,-0.6822222222222222,-140.9375,151.75,-321.1875
1589542491.9396114,1.6,-2.17,14.64,0.4955555555555556,0.26666666666666666,-0.6822222222222222,-39.625,-21.3125,-247.5625
1589542491.9578578,0.61,-2.46,10.19,0.4955555555555556,0.26666666666666666,-0.6822222222222222,102.4375,32.125,-194.4375
1589542491.966239,2.0,-14.62,12.84,0.3855555555555555,0.4666666666666667,-0.6611111111111111,173.0625,28.8125,-177.25
1589542491.9762876,-0.21,5.77,4.87,0.3855555555555555,0.4666666666666667,-0.6611111111111111,181.125,36.375,-129.375
1589542491.9868555,2.72,-0.18,10.97,0.3855555555555555,0.4666666666666667,-0.6611111111111111,-34.625,-9.6875,-58.25
1589542491.9971075,2.3,-3.92,9.37,0.3855555555555555,0.4666666666666667,-0.6611111111111111,-30.5625,-10.75,-39.5625
1589542492.0080998,4.99,-7.83,7.77,0.3855555555555555,0.4666666666666667,-0.6611111111111111,27.625,18.75,-44.75
1589542492.0196884,1.6,0.1,6.77,0.3333333333333333,0.4533333333333333,-0.6822222222222222,9.4375,3.0625,-22.4375
1589542492.0319164,2.56,-4.72,8.82,0.3333333333333333,0.4533333333333333,-0.6822222222222222,-11.125,-1.5,-8.0
1589542492.0378046,0.99,-3.17,8.46,0.3333333333333333,0.4533333333333333,-0.6822222222222222,1.375,-1.5,0.1875
1589542492.0518098,0.65,-3.75,9.19,0.3333333333333333,0.4533333333333333,-0.6822222222222222,1.3125,5.375,5.125
1589542492.059079,1.16,-3.81,8.57,0.3333333333333333,0.4533333333333333,-0.6822222222222222,0.125,-0.5625,5.5625
1589542492.0677881,1.09,-3.92,8.7,0.3144444444444445,0.4833333333333333,-0.6822222222222222,-1.0,1.375,5.75
1589542492.0773091,1.06,-3.8,8.8,0.3144444444444445,0.4833333333333333,-0.6822222222222222,0.0625,-0.4375,5.4375
1589542492.0905335,0.89,-3.75,8.72,0.3144444444444445,0.4833333333333333,-0.6822222222222222,0.75,0.5,4.3125
1589542492.0968914,0.92,-3.64,8.77,0.3144444444444445,0.4833333333333333,-0.6822222222222222,0.8125,-0.125,3.3125
1589542492.1091535,1.03,-3.84,8.78,0.3144444444444445,0.4833333333333333,-0.6822222222222222,0.0,-0.1875,2.6875
1589542492.116536,0.93,-3.84,8.89,0.3411111111111111,0.48,-0.6611111111111111,-1.3125,0.0,2.1875
1589542492.123965,0.93,-3.84,8.89,0.3411111111111111,0.48,-0.6611111111111111,-1.3125,0.0,2.1875
1589542492.1371806,0.98,-3.7,8.65,0.3411111111111111,0.48,-0.6611111111111111,0.6875,-0.0625,3.5625
1589542492.1474235,1.07,-3.8,8.8,0.3411111111111111,0.48,-0.6611111111111111,0.9375,-0.125,2.9375
1589542492.1609554,0.94,-3.82,8.91,0.3411111111111111,0.48,-0.6611111111111111,0.0625,-0.0625,1.5625
1589542492.1724749,0.94,-3.9,8.87,0.3477777777777778,0.48,-0.6733333333333333,-0.3125,-0.875,0.25
1589542492.1797512,0.94,-3.84,8.72,0.3477777777777778,0.48,-0.6733333333333333,-0.8125,0.3125,0.375
1589542492.1899922,1.02,-3.76,8.64,0.3477777777777778,0.48,-0.6733333333333333,0.3125,-0.375,0.0
1589542492.2033715,0.93,-3.78,8.91,0.3477777777777778,0.48,-0.6733333333333333,0.75,0.25,0.3125
1589542492.2106805,0.94,-3.79,8.88,0.3477777777777778,0.48,-0.6733333333333333,0.3125,-0.4375,0.0625
1589542492.2170115,0.97,-3.78,8.74,0.3288888888888889,0.4888888888888889,-0.6877777777777778,-0.4375,0.1875,0.0625
1589542492.22848,1.0,-3.81,8.72,0.3288888888888889,0.4888888888888889,-0.6877777777777778,-0.625,-0.4375,0.0625
1589542492.2419233,1.02,-3.76,8.64,0.3288888888888889,0.4888888888888889,-0.6877777777777778,-0.125,0.25,0.1875
1589542492.2479243,0.95,-3.74,8.86,0.3288888888888889,0.4888888888888889,-0.6877777777777778,0.4375,-0.375,0.0625
1589542492.2625005,0.94,-3.75,8.82,0.3288888888888889,0.4888888888888889,-0.6877777777777778,0.5,0.25,0.0
1589542492.2680225,1.0,-3.75,8.83,0.3411111111111111,0.4811111111111111,-0.6877777777777778,-0.1875,-0.3125,0.0
1589542492.2812624,1.0,-3.82,8.66,0.3411111111111111,0.4811111111111111,-0.6877777777777778,-0.625,0.125,0.25
1589542492.28794,0.92,-3.81,8.76,0.3411111111111111,0.4811111111111111,-0.6877777777777778,-0.3125,0.0,-0.0625
1589542492.2979732,0.99,-3.76,8.73,0.3411111111111111,0.4811111111111111,-0.6877777777777778,0.5625,0.125,0.0625
1589542492.3103895,0.94,-3.74,8.86,0.3411111111111111,0.4811111111111111,-0.6877777777777778,0.5,-0.0625,0.0625
1589542492.3197901,1.02,-3.75,8.75,0.3288888888888889,0.4888888888888889,-0.6966666666666667,0.125,0.0625,-0.125
1589542492.331265,0.94,-3.82,8.83,0.3288888888888889,0.4888888888888889,-0.6966666666666667,-0.625,-0.25,0.0625
1589542492.338166,0.99,-3.82,8.63,0.3288888888888889,0.4888888888888889,-0.6966666666666667,-0.5,0.0625,0.0625
1589542492.3545105,0.99,-3.77,8.81,0.3288888888888889,0.4888888888888889,-0.6966666666666667,0.125,0.0625,0.0
1589542492.3606055,1.0,-3.76,8.83,0.3288888888888889,0.4888888888888889,-0.6966666666666667,0.625,0.0625,-0.125
1589542492.3678055,0.92,-3.79,8.9,0.3477777777777778,0.4811111111111111,-0.6966666666666667,0.125,0.125,0.0625
1589542492.379617,1.03,-3.81,8.77,0.3477777777777778,0.4811111111111111,-0.6966666666666667,-0.3125,-0.1875,0.0625
1589542492.3898182,0.95,-3.81,8.68,0.3477777777777778,0.4811111111111111,-0.6966666666666667,-0.375,0.0,-0.0625
1589542492.3998766,0.99,-3.8,8.73,0.3477777777777778,0.4811111111111111,-0.6966666666666667,0.125,0.0625,0.0625
1589542492.4109304,0.94,-3.74,8.84,0.3477777777777778,0.4811111111111111,-0.6966666666666667,0.4375,-0.0625,0.0625
1589542492.4181654,0.94,-3.78,8.86,0.3144444444444445,0.4955555555555556,-0.6966666666666667,0.25,-0.25,0.125
1589542492.4335132,0.98,-3.78,8.74,0.3144444444444445,0.4955555555555556,-0.6966666666666667,-0.3125,-0.0625,0.0
1589542492.440265,0.98,-3.82,8.66,0.3144444444444445,0.4955555555555556,-0.6966666666666667,-0.3125,-0.25,0.1875
1589542492.4495642,0.94,-3.81,8.75,0.3144444444444445,0.4955555555555556,-0.6966666666666667,-0.1875,0.0625,0.0
1589542492.4621885,0.94,-3.76,8.84,0.3144444444444445,0.4955555555555556,-0.6966666666666667,0.625,0.0,0.0625
1589542492.4738085,0.99,-3.75,8.8,0.3288888888888889,0.4777777777777778,-0.6966666666666667,-0.1875,-0.1875,0.0
1589542492.4802258,0.97,-3.79,8.83,0.3288888888888889,0.4777777777777778,-0.6966666666666667,-0.1875,-0.1875,0.0
1589542492.4912882,1.0,-3.78,8.66,0.3288888888888889,0.4777777777777778,-0.6966666666666667,-0.1875,-0.25,0.125
1589542492.4990313,0.96,-3.81,8.8,0.3288888888888889,0.4777777777777778,-0.6966666666666667,0.1875,0.0,0.25
1589542492.5117905,0.99,-3.76,8.79,0.3288888888888889,0.4777777777777778,-0.6966666666666667,0.375,-0.125,-0.0625
1589542492.5193887,0.97,-3.75,8.84,0.3288888888888889,0.49,-0.7022222222222222,-0.125,0.125,0.125
1589542492.529965,1.0,-3.8,8.77,0.3288888888888889,0.49,-0.7022222222222222,-0.375,-0.1875,0.0625
1589542492.540792,0.98,-3.81,8.69,0.3288888888888889,0.49,-0.7022222222222222,-0.1875,-0.125,-0.0625
1589542492.5496778,0.98,-3.8,8.69,0.3288888888888889,0.49,-0.7022222222222222,0.1875,-0.125,-0.0625
1589542492.5620592,0.96,-3.8,8.81,0.3288888888888889,0.49,-0.7022222222222222,0.4375,-0.0625,0.1875
1589542492.5694704,0.97,-3.76,8.83,0.3288888888888889,0.49,-0.6888888888888889,0.0625,0.0625,-0.0625
1589542492.5794055,0.97,-3.78,8.82,0.3288888888888889,0.49,-0.6888888888888889,-0.375,0.0,0.0625
1589542492.591176,0.99,-3.81,8.67,0.3288888888888889,0.49,-0.6888888888888889,-0.3125,-0.0625,-0.0625
1589542492.603919,0.99,-3.79,8.73,0.3288888888888889,0.49,-0.6888888888888889,0.125,-0.1875,0.0625
1589542492.6125305,0.99,-3.78,8.81,0.3288888888888889,0.49,-0.6888888888888889,0.3125,-0.0625,0.1875
1589542492.6236706,0.99,-3.78,8.84,0.3333333333333333,0.4777777777777778,-0.6666666666666666,0.25,-0.0625,-0.0625
1589542492.6305115,0.98,-3.75,8.82,0.3333333333333333,0.4777777777777778,-0.6666666666666666,-0.25,-0.125,-0.0625
1589542492.643692,0.99,-3.82,8.67,0.3333333333333333,0.4777777777777778,-0.6666666666666666,-0.1875,-0.25,0.0625
1589542492.649805,0.97,-3.8,8.75,0.3333333333333333,0.4777777777777778,-0.6666666666666666,-0.125,-0.0625,0.125
1589542492.6626954,0.96,-3.81,8.79,0.3333333333333333,0.4777777777777778,-0.6666666666666666,0.25,0.0,-0.0625
1589542492.6701825,0.94,-3.78,8.87,0.3411111111111111,0.4977777777777778,-0.6966666666666667,0.1875,0.0625,0.0625
1589542492.6799307,0.99,-3.78,8.81,0.3411111111111111,0.4977777777777778,-0.6966666666666667,-0.0625,-0.125,-0.0625
1589542492.692318,0.97,-3.81,8.7,0.3411111111111111,0.4977777777777778,-0.6966666666666667,-0.375,0.125,0.0
1589542492.703159,0.99,-3.82,8.71,0.3411111111111111,0.4977777777777778,-0.6966666666666667,-0.25,-0.0625,0.125
1589542492.7159517,0.98,-3.78,8.82,0.3411111111111111,0.4977777777777778,-0.6966666666666667,0.1875,-0.125,0.0
1589542492.7219064,0.98,-3.77,8.83,0.3411111111111111,0.4977777777777778,-0.6966666666666667,0.1875,-0.125,0.0625
1589542492.7361975,0.96,-3.8,8.85,0.3411111111111111,0.4977777777777778,-0.6966666666666667,0.0625,0.0,0.0625
1589542492.742684,0.97,-3.78,8.71,0.3411111111111111,0.4977777777777778,-0.6966666666666667,-0.25,0.0625,0.0
1589542492.750634,0.99,-3.8,8.77,0.3411111111111111,0.4977777777777778,-0.6966666666666667,-0.3125,-0.25,-0.0625
1589542492.7628539,0.98,-3.8,8.78,0.3411111111111111,0.4977777777777778,-0.6966666666666667,0.125,-0.0625,-0.0625
1589542492.7747693,0.97,-3.79,8.83,0.3288888888888889,0.4777777777777778,-0.6822222222222222,0.3125,0.0,0.0625
1589542492.7807465,0.98,-3.76,8.79,0.3288888888888889,0.4777777777777778,-0.6822222222222222,0.125,-0.0625,0.125
1589542492.7947187,0.99,-3.78,8.71,0.3288888888888889,0.4777777777777778,-0.6822222222222222,-0.0625,-0.0625,0.125
1589542492.801672,0.97,-3.82,8.72,0.3288888888888889,0.4777777777777778,-0.6822222222222222,-0.1875,0.0625,0.0
1589542492.8152812,0.96,-3.81,8.79,0.3288888888888889,0.4777777777777778,-0.6822222222222222,0.0,-0.0625,-0.0625
1589542492.8220072,0.96,-3.79,8.84,0.3333333333333333,0.4977777777777778,-0.6877777777777778,0.25,0.0,-0.0625
1589542492.8314974,0.97,-3.77,8.83,0.3333333333333333,0.4977777777777778,-0.6877777777777778,0.125,-0.125,0.0
1589542492.8412187,1.0,-3.78,8.74,0.3333333333333333,0.4977777777777778,-0.6877777777777778,-0.125,-0.1875,0.125
1589542492.851573,0.98,-3.8,8.74,0.3333333333333333,0.4977777777777778,-0.6877777777777778,-0.1875,-0.3125,0.0625
1589542492.86745,0.99,-3.79,8.78,0.3333333333333333,0.4977777777777778,-0.6877777777777778,-0.125,-0.125,0.1875
1589542492.8741605,0.97,-3.79,8.81,0.3411111111111111,0.4833333333333333,-0.6666666666666666,0.375,-0.0625,0.125
1589542492.8814595,0.96,-3.79,8.83,0.3411111111111111,0.4833333333333333,-0.6666666666666666,0.3125,-0.125,0.0625
1589542492.8934298,0.99,-3.77,8.7,0.3411111111111111,0.4833333333333333,-0.6666666666666666,0.0625,-0.125,0.0625
1589542492.9022608,0.95,-3.78,8.75,0.3411111111111111,0.4833333333333333,-0.6666666666666666,-0.1875,-0.25,0.0
1589542492.913985,0.97,-3.79,8.79,0.3411111111111111,0.4833333333333333,-0.6666666666666666,-0.25,0.0,-0.0625
1589542492.9255285,0.96,-3.79,8.83,0.3411111111111111,0.49,-0.6966666666666667,0.125,0.0,0.0
1589542492.932125,0.95,-3.78,8.82,0.3411111111111111,0.49,-0.6966666666666667,0.1875,0.1875,0.0625
1589542492.9460027,0.98,-3.75,8.73,0.3411111111111111,0.49,-0.6966666666666667,0.125,-0.0625,-0.0625
1589542492.9518552,0.99,-3.79,8.73,0.3411111111111111,0.49,-0.6966666666666667,-0.1875,-0.0625,0.0625
1589542492.966351,0.96,-3.78,8.78,0.3411111111111111,0.49,-0.6966666666666667,-0.125,0.0,0.0625
1589542492.9730213,0.97,-3.79,8.83,0.3144444444444445,0.4977777777777778,-0.7111111111111111,0.0625,0.0625,-0.0625
1589542492.9840586,0.98,-3.77,8.82,0.3144444444444445,0.4977777777777778,-0.7111111111111111,0.375,-0.125,0.0
1589542492.9919314,0.97,-3.77,8.76,0.3144444444444445,0.4977777777777778,-0.7111111111111111,0.0,-0.125,-0.125
1589542493.0021338,0.96,-3.76,8.75,0.3144444444444445,0.4977777777777778,-0.7111111111111111,-0.125,-0.0625,0.0
1589542493.015624,0.97,-3.79,8.78,0.3144444444444445,0.4977777777777778,-0.7111111111111111,-0.125,0.0,0.0625
1589542493.02269,0.97,-3.79,8.79,0.3288888888888889,0.4833333333333333,-0.6755555555555556,0.0625,-0.125,0.0
1589542493.0324235,0.96,-3.78,8.75,0.3288888888888889,0.4833333333333333,-0.6755555555555556,0.3125,0.25,0.0
