time,acc_x,acc_y,acc_z,mag_x,mag_y,mag_z,gyr_x,gyr_y,gyr_z
1589543968.55576,0.5,-4.16,8.78,0.5111111111111111,0.36777777777777776,-0.7022222222222222,0.0,0.0625,0.0625
1589543968.5629945,0.5,-4.18,8.79,0.5166666666666667,0.3944444444444444,-0.6588888888888889,0.125,0.0625,-0.0625
1589543968.5734274,0.51,-4.17,8.8,0.5166666666666667,0.3944444444444444,-0.6588888888888889,0.0625,-0.0625,0.0
1589543968.5832398,0.49,-4.17,8.72,0.5166666666666667,0.3944444444444444,-0.6588888888888889,-0.125,-0.0625,-0.0625
1589543968.593351,0.5,-4.16,8.78,0.5166666666666667,0.3944444444444444,-0.6588888888888889,0.0,0.0,0.0
1589543968.605433,0.5,-4.16,8.85,0.5166666666666667,0.3944444444444444,-0.6588888888888889,-0.0625,0.125,-0.0625
1589543968.6131911,0.5,-4.17,8.89,0.5044444444444445,0.3744444444444445,-0.6877777777777778,0.0,0.25,0.0625
1589543968.6237664,0.49,-4.16,8.83,0.5044444444444445,0.3744444444444445,-0.6877777777777778,0.0625,0.25,-0.1875
1589543968.632999,0.49,-4.16,8.72,0.5044444444444445,0.3744444444444445,-0.6877777777777778,0.125,0.125,0.0
1589543968.644326,0.48,-4.16,8.76,0.5044444444444445,0.3744444444444445,-0.6877777777777778,0.125,0.0,-0.0625
1589543968.6611874,0.49,-4.15,8.79,0.5044444444444445,0.3744444444444445,-0.6877777777777778,0.125,0.0625,-0.125
1589543968.6669352,0.49,-4.16,8.83,0.4977777777777778,0.3744444444444445,-0.68,0.0625,-0.125,0.0
1589543968.6785285,0.5,-4.17,8.84,0.4977777777777778,0.3744444444444445,-0.68,-0.25,0.1875,-0.125
1589543968.6852345,0.48,-4.17,8.75,0.4977777777777778,0.3744444444444445,-0.68,-0.5,-0.0625,-0.1875
1589543968.6988688,0.48,-4.16,8.82,0.4977777777777778,0.3744444444444445,-0.68,-0.375,-0.125,-0.0625
1589543968.7056036,0.48,-4.18,8.85,0.4977777777777778,0.3744444444444445,-0.68,-0.375,0.0625,-0.125
1589543968.7171805,0.49,-4.16,8.86,0.5166666666666667,0.38222222222222224,-0.68,-0.3125,-0.125,-0.0625
1589543968.7232873,0.51,-4.16,8.84,0.5166666666666667,0.38222222222222224,-0.68,-0.0625,0.1875,-0.25
1589543968.7340364,0.49,-4.16,8.69,0.5166666666666667,0.38222222222222224,-0.68,-0.125,0.25,-0.0625
1589543968.7436204,0.49,-4.18,8.71,0.5166666666666667,0.38222222222222224,-0.68,0.0,0.375,-0.125
1589543968.757947,0.48,-4.15,8.78,0.5166666666666667,0.38222222222222224,-0.68,0.0625,0.1875,-0.125
1589543968.7646804,0.48,-4.16,8.81,0.5433333333333333,0.38222222222222224,-0.6533333333333333,-0.25,0.375,0.0
1589543968.7751696,0.49,-4.15,8.82,0.5433333333333333,0.38222222222222224,-0.6533333333333333,-0.0625,0.375,0.0
1589543968.7837837,0.51,-4.18,8.76,0.5433333333333333,0.38222222222222224,-0.6533333333333333,-0.0625,0.5,0.0
1589543968.7948275,0.48,-4.16,8.8,0.5433333333333333,0.38222222222222224,-0.6533333333333333,-0.1875,0.75,-0.0625
1589543968.8065386,0.47,-4.14,8.83,0.5433333333333333,0.38222222222222224,-0.6533333333333333,-0.25,0.75,0.0
1589543968.8174539,0.46,-4.17,8.85,0.5111111111111111,0.38222222222222224,-0.68,-0.375,0.5,0.0
1589543968.8265526,0.71,-4.28,9.26,0.5111111111111111,0.38222222222222224,-0.68,-1.5625,-2.1875,0.125
1589543968.8375325,0.58,-4.18,8.92,0.5111111111111111,0.38222222222222224,-0.68,-0.625,-0.9375,-0.125
1589543968.8500526,0.42,-4.13,8.48,0.5111111111111111,0.38222222222222224,-0.68,0.25,1.875,-0.0625
1589543968.8559947,0.39,-4.09,8.6,0.5111111111111111,0.38222222222222224,-0.68,-0.125,-0.0625,0.0
1589543968.8632848,0.61,-4.23,9.11,0.5244444444444445,0.38222222222222224,-0.68,-1.25,-2.375,0.0625
1589543968.875499,0.49,-4.18,8.81,0.5244444444444445,0.38222222222222224,-0.68,-0.375,-0.25,0.1875
1589543968.8886256,0.44,-4.12,8.6,0.5244444444444445,0.38222222222222224,-0.68,0.125,0.625,-0.0625
1589543968.8952866,0.57,-4.24,8.96,0.5244444444444445,0.38222222222222224,-0.68,-0.75,-1.0625,0.0625
1589543968.9103606,0.58,-4.19,9.12,0.5244444444444445,0.38222222222222224,-0.68,-1.0,-1.6875,-0.0625
1589543968.9168015,0.49,-4.13,8.77,0.5044444444444445,0.38222222222222224,-0.6733333333333333,0.125,0.9375,0.125
1589543968.9290972,0.43,-4.13,8.72,0.5044444444444445,0.38222222222222224,-0.6733333333333333,-0.125,0.375,-0.0625
1589543968.9361465,0.66,-4.08,8.87,0.5044444444444445,0.38222222222222224,-0.6733333333333333,-1.5,-2.375,-0.1875
1589543968.9452386,0.26,-3.86,8.5,0.5044444444444445,0.38222222222222224,-0.6733333333333333,-2.125,-2.9375,-0.375
1589543968.9560506,0.38,-3.73,8.62,0.5044444444444445,0.38222222222222224,-0.6733333333333333,-4.25,-6.125,0.4375
1589543968.9659574,-0.19,-2.65,8.9,0.5244444444444445,0.38222222222222224,-0.6733333333333333,-5.5,-8.0625,2.3125
1589543968.9743047,0.13,-3.04,9.26,0.5244444444444445,0.38222222222222224,-0.6733333333333333,-7.0,-7.75,7.0625
1589543968.9888062,-0.13,-3.01,8.96,0.5244444444444445,0.38222222222222224,-0.6733333333333333,-4.25,-3.9375,14.0
1589543968.9957874,-0.15,-2.72,8.78,0.5244444444444445,0.38222222222222224,-0.6733333333333333,-0.5,-0.75,25.5
1589543969.0064793,0.02,-2.72,8.78,0.5244444444444445,0.38222222222222224,-0.6733333333333333,1.5625,-0.75,38.3125
1589543969.0143855,0.2,-2.83,8.8,0.5044444444444445,0.3888888888888889,-0.68,0.1875,-2.125,48.4375
1589543969.024227,0.28,-2.95,8.97,0.5044444444444445,0.3888888888888889,-0.68,-0.375,-3.4375,56.0625
1589543969.0298355,0.28,-2.95,8.97,0.5044444444444445,0.3888888888888889,-0.68,-0.375,-3.4375,56.0625
1589543969.037538,0.25,-2.97,8.84,0.5044444444444445,0.3888888888888889,-0.68,0.6875,-2.875,61.0
1589543969.0453653,0.25,-3.09,8.97,0.5044444444444445,0.3888888888888889,-0.68,0.5625,-3.625,65.0625
1589543969.0586016,0.26,-3.12,8.83,0.5044444444444445,0.3888888888888889,-0.68,0.25,-3.125,68.8125
1589543969.0662336,0.26,-3.13,8.91,0.5433333333333333,0.3744444444444445,-0.68,0.5625,-3.25,71.5625
1589543969.0803175,0.24,-3.12,8.87,0.5433333333333333,0.3744444444444445,-0.68,0.4375,-3.625,73.5625
1589543969.0863378,0.16,-3.14,8.68,0.5433333333333333,0.3744444444444445,-0.68,0.5625,-3.125,74.875
1589543969.0957842,0.15,-3.24,8.75,0.5433333333333333,0.3744444444444445,-0.68,0.5,-3.5,76.625
1589543969.1074805,0.11,-3.27,8.81,0.5433333333333333,0.3744444444444445,-0.68,0.25,-3.875,78.5
1589543969.1191206,0.02,-3.39,8.82,0.5433333333333333,0.3477777777777778,-0.68,0.5625,-3.6875,80.1875
1589543969.1267064,0.02,-3.46,8.87,0.5433333333333333,0.3477777777777778,-0.68,0.375,-4.1875,81.875
1589543969.138751,-0.03,-3.46,8.81,0.5433333333333333,0.3477777777777778,-0.68,0.5,-4.25,83.5
1589543969.145952,-0.18,-3.52,8.91,0.5433333333333333,0.3477777777777778,-0.68,0.625,-4.25,85.125
1589543969.1583033,-0.2,-3.41,8.91,0.5433333333333333,0.3477777777777778,-0.68,0.5,-4.125,87.4375
1589543969.1657953,-0.18,-3.46,8.92,0.57,0.31555555555555553,-0.68,0.75,-4.0625,90.125
1589543969.1770716,-0.24,-3.51,8.86,0.57,0.31555555555555553,-0.68,0.9375,-4.0,92.375
1589543969.1859787,-0.21,-3.51,8.81,0.57,0.31555555555555553,-0.68,0.3125,-4.625,94.1875
1589543969.196257,-0.22,-3.48,8.77,0.57,0.31555555555555553,-0.68,0.4375,-4.5625,94.8125
1589543969.2087245,-0.32,-3.51,8.79,0.57,0.31555555555555553,-0.68,0.6875,-4.375,94.5
1589543969.2175806,-0.39,-3.57,8.89,0.57,0.2822222222222222,-0.7022222222222222,0.5,-4.625,94.25
1589543969.2309234,-0.46,-3.61,8.84,0.57,0.2822222222222222,-0.7022222222222222,0.625,-4.625,94.375
1589543969.2369316,-0.44,-3.59,8.78,0.57,0.2822222222222222,-0.7022222222222222,0.6875,-4.5,94.0625
1589543969.2500641,-0.46,-3.54,8.83,0.57,0.2822222222222222,-0.7022222222222222,0.75,-4.375,93.4375
1589543969.2586071,-0.52,-3.46,8.93,0.57,0.2822222222222222,-0.7022222222222222,0.875,-4.25,92.0
1589543969.2666745,-0.47,-3.49,8.92,0.6022222222222222,0.2433333333333333,-0.7088888888888889,0.6875,-4.3125,90.1875
1589543969.2763884,-0.54,-3.56,8.96,0.6022222222222222,0.2433333333333333,-0.7088888888888889,0.5,-4.125,88.0625
1589543969.2903755,-0.51,-3.58,8.81,0.6022222222222222,0.2433333333333333,-0.7088888888888889,0.625,-3.4375,85.3125
1589543969.2965634,-0.61,-3.46,8.94,0.6022222222222222,0.2433333333333333,-0.7088888888888889,0.5625,-3.9375,81.125
1589543969.308638,-0.64,-3.33,8.9,0.6022222222222222,0.2433333333333333,-0.7088888888888889,0.125,-4.1875,77.5
1589543969.316642,-0.68,-3.35,8.74,0.6088888888888889,0.19666666666666666,-0.73,1.3125,-2.75,74.875
1589543969.3267784,-0.73,-3.32,9.01,0.6088888888888889,0.19666666666666666,-0.73,0.875,-3.25,72.4375
1589543969.3374677,-0.76,-3.25,8.61,0.6088888888888889,0.19666666666666666,-0.73,0.8125,-2.75,70.8125
1589543969.3470054,-0.81,-3.31,8.82,0.6088888888888889,0.19666666666666666,-0.73,1.1875,-2.0625,68.75
1589543969.363656,-0.9,-3.41,9.08,0.6088888888888889,0.19666666666666666,-0.73,0.625,-2.8125,66.4375
1589543969.369764,-0.95,-3.27,8.6,0.6166666666666667,0.19666666666666666,-0.7233333333333334,1.0,-1.5625,65.1875
1589543969.3833745,-0.94,-3.28,9.05,0.6166666666666667,0.19666666666666666,-0.7233333333333334,0.0,-4.0625,64.25
1589543969.3896484,-1.06,-3.43,8.91,0.6166666666666667,0.19666666666666666,-0.7233333333333334,-0.875,-4.9375,62.875
1589543969.4020908,-1.04,-3.33,8.74,0.6166666666666667,0.19666666666666666,-0.7233333333333334,0.0625,-3.5625,61.6875
1589543969.4099462,-1.02,-3.26,8.85,0.6166666666666667,0.19666666666666666,-0.7233333333333334,0.625,-2.4375,60.8125
1589543969.4214349,-1.02,-3.23,8.78,0.62,0.15555555555555556,-0.7444444444444445,0.4375,-2.9375,59.0625
1589543969.4268172,-1.12,-3.31,9.14,0.62,0.15555555555555556,-0.7444444444444445,-0.0625,-3.625,57.1875
1589543969.4416735,-1.09,-3.14,8.42,0.62,0.15555555555555556,-0.7444444444444445,0.625,-1.5625,55.8125
1589543969.4477606,-1.25,-3.31,8.86,0.62,0.15555555555555556,-0.7444444444444445,1.0625,-1.375,54.25
1589543969.4593234,-1.2,-3.26,8.98,0.62,0.15555555555555556,-0.7444444444444445,-0.3125,-3.9375,52.0625
1589543969.4665089,-1.45,-3.46,9.04,0.64,0.14333333333333334,-0.7233333333333334,-0.1875,-3.3125,50.6875
1589543969.479499,-1.34,-3.26,8.75,0.64,0.14333333333333334,-0.7233333333333334,0.5625,-2.125,49.875
1589543969.4876645,-1.35,-3.34,8.83,0.64,0.14333333333333334,-0.7233333333333334,0.75,-1.5,49.4375
1589543969.4981847,-1.39,-3.29,8.82,0.64,0.14333333333333334,-0.7233333333333334,0.3125,-2.375,48.1875
1589543969.5112467,-1.51,-3.36,9.0,0.64,0.14333333333333334,-0.7233333333333334,0.0625,-2.4375,46.625
1589543969.5196915,-1.53,-3.36,8.93,0.6166666666666667,0.09777777777777777,-0.78,-0.125,-2.5,46.125
1589543969.5287552,-1.56,-3.31,8.88,0.6166666666666667,0.09777777777777777,-0.78,0.1875,-1.9375,46.0625
1589543969.5403216,-1.57,-3.36,9.01,0.6166666666666667,0.09777777777777777,-0.78,0.4375,-1.9375,45.8125
1589543969.5489495,-1.53,-3.2,8.64,0.6166666666666667,0.09777777777777777,-0.78,0.8125,-0.875,45.4375
1589543969.5600295,-1.67,-3.34,9.14,0.6166666666666667,0.09777777777777777,-0.78,-0.3125,-2.875,43.6875
1589543969.5722167,-1.6,-3.22,9.1,0.6111111111111112,0.08333333333333333,-0.7733333333333333,-0.8125,-3.3125,42.5625
1589543969.578293,-1.76,-3.33,8.91,0.6111111111111112,0.08333333333333333,-0.7733333333333333,0.8125,-0.875,42.375
1589543969.5922482,-1.73,-3.29,8.93,0.6111111111111112,0.08333333333333333,-0.7733333333333333,0.1875,-2.0625,41.3125
1589543969.5983882,-1.67,-3.13,8.73,0.6111111111111112,0.08333333333333333,-0.7733333333333333,-0.25,-1.875,40.8125
1589543969.6105516,-1.75,-3.14,8.92,0.6111111111111112,0.08333333333333333,-0.7733333333333333,-0.0625,-2.25,40.5
1589543969.6184561,-1.63,-2.89,8.92,0.6222222222222222,0.07777777777777778,-0.8066666666666666,-0.375,-2.5625,40.5
1589543969.6310804,-1.66,-3.01,8.99,0.6222222222222222,0.07777777777777778,-0.8066666666666666,0.25,-1.5625,41.125
1589543969.637662,-1.8,-3.09,8.79,0.6222222222222222,0.07777777777777778,-0.8066666666666666,0.5625,-1.3125,41.5625
1589543969.6493886,-1.77,-3.01,8.9,0.6222222222222222,0.07777777777777778,-0.8066666666666666,-0.25,-1.4375,42.0
1589543969.6620975,-1.76,-3.01,8.99,0.6222222222222222,0.07777777777777778,-0.8066666666666666,-0.375,-2.25,42.375
1589543969.6684568,-1.82,-3.0,9.0,0.6088888888888889,0.054444444444444434,-0.8366666666666667,-0.25,-2.0625,43.25
1589543969.6790495,-1.86,-3.01,8.88,0.6088888888888889,0.054444444444444434,-0.8366666666666667,0.4375,-1.125,44.375
1589543969.689976,-1.9,-3.04,8.93,0.6088888888888889,0.054444444444444434,-0.8366666666666667,0.25,-1.5,45.625
1589543969.698606,-1.91,-3.04,9.01,0.6088888888888889,0.054444444444444434,-0.8366666666666667,-0.4375,-2.125,46.0
1589543969.7106335,-1.87,-2.96,8.79,0.6088888888888889,0.054444444444444434,-0.8366666666666667,0.25,-1.0,46.9375
1589543969.720815,-1.95,-3.0,8.79,0.5955555555555555,0.01,-0.8222222222222222,0.1875,-1.1875,48.0
1589543969.7287867,-2.0,-2.98,8.91,0.5955555555555555,0.01,-0.8222222222222222,-0.9375,-2.75,48.25
1589543969.742939,-2.06,-2.97,8.64,0.5955555555555555,0.01,-0.8222222222222222,-0.125,-1.25,49.4375
1589543969.7489266,-2.01,-2.93,8.96,0.5955555555555555,0.01,-0.8222222222222222,-0.4375,-2.0625,51.0
1589543969.7619693,-2.07,-2.88,8.92,0.5955555555555555,0.01,-0.8222222222222222,-0.8125,-2.375,52.8125
1589543969.7681575,-2.14,-2.92,9.12,0.6022222222222222,-0.042222222222222223,-0.8511111111111112,-0.1875,-1.8125,54.9375
1589543969.7789154,-2.04,-2.81,8.82,0.6022222222222222,-0.042222222222222223,-0.8511111111111112,0.1875,-1.1875,57.25
1589543969.7890408,-2.1,-2.9,8.89,0.6022222222222222,-0.042222222222222223,-0.8511111111111112,0.125,-0.9375,59.375
1589543969.799663,-2.12,-2.82,9.03,0.6022222222222222,-0.042222222222222223,-0.8511111111111112,-0.25,-1.625,60.9375
1589543969.8112574,-2.18,-2.83,9.15,0.6022222222222222,-0.042222222222222223,-0.8511111111111112,-1.0625,-3.3125,62.25
1589543969.8189926,-2.11,-2.74,8.86,0.6144444444444445,-0.09555555555555556,-0.8133333333333334,-0.625,-1.75,64.25
1589543969.8289294,-2.26,-2.75,8.87,0.6144444444444445,-0.09555555555555556,-0.8133333333333334,0.1875,-1.0,66.625
1589543969.8395574,-2.22,-2.71,8.96,0.6144444444444445,-0.09555555555555556,-0.8133333333333334,-0.625,-2.5,68.25
1589543969.8497539,-2.25,-2.72,8.92,0.6144444444444445,-0.09555555555555556,-0.8133333333333334,-0.75,-2.5625,70.5
1589543969.861488,-2.22,-2.69,8.88,0.6144444444444445,-0.09555555555555556,-0.8133333333333334,0.25,-1.375,73.625
1589543969.8705425,-2.42,-2.74,9.03,0.5822222222222222,-0.12777777777777774,-0.8222222222222222,-0.0625,-1.5,76.3125
1589543969.8795366,-2.33,-2.69,8.92,0.5822222222222222,-0.12777777777777774,-0.8222222222222222,-1.375,-3.6875,78.875
1589543969.8946648,-2.53,-2.75,8.94,0.5822222222222222,-0.12777777777777774,-0.8222222222222222,-0.375,-3.8125,81.6875
1589543969.9005227,-2.49,-2.63,8.7,0.5822222222222222,-0.12777777777777774,-0.8222222222222222,-0.1875,-3.9375,84.0
1589543969.911658,-2.57,-2.64,8.91,0.5822222222222222,-0.12777777777777774,-0.8222222222222222,0.125,-2.5,86.4375
1589543969.9190252,-2.59,-2.63,9.05,0.5188888888888888,-0.20777777777777776,-0.8422222222222222,-0.5,-4.4375,90.375
1589543969.9297767,-2.58,-2.58,9.03,0.5188888888888888,-0.20777777777777776,-0.8422222222222222,-0.5,-4.4375,90.375
1589543969.9397464,-2.5,-2.4,8.81,0.5188888888888888,-0.20777777777777776,-0.8422222222222222,0.0,-3.8125,92.5625
1589543969.9533381,-2.44,-2.33,8.91,0.5188888888888888,-0.20777777777777776,-0.8422222222222222,-0.125,-4.625,95.1875
1589543969.96112,-2.59,-2.34,9.09,0.5188888888888888,-0.20777777777777776,-0.8422222222222222,-0.4375,-4.6875,96.5625
1589543969.9734151,-2.66,-2.32,8.96,0.4544444444444444,-0.2488888888888889,-0.7733333333333333,0.5,-4.0625,99.8125
1589543969.9800742,-2.81,-2.29,8.92,0.4544444444444444,-0.2488888888888889,-0.7733333333333333,0.6875,-4.5,102.6875
1589543969.9917946,-2.56,-2.14,8.95,0.4544444444444444,-0.2488888888888889,-0.7733333333333333,0.0,-5.375,104.5625
1589543969.9997938,-2.36,-2.0,8.94,0.4544444444444444,-0.2488888888888889,-0.7733333333333333,0.4375,-4.4375,105.25
1589543970.01107,-2.66,-2.0,8.93,0.4544444444444444,-0.2488888888888889,-0.7733333333333333,0.5,-4.5625,105.8125
1589543970.0188112,-2.44,-1.91,8.97,0.4577777777777778,-0.2766666666666667,-0.7155555555555555,0.0625,-5.5,106.6875
1589543970.0295944,-2.66,-1.96,9.16,0.4577777777777778,-0.2766666666666667,-0.7155555555555555,0.5625,-5.0625,108.0
1589543970.0442646,-2.65,-1.89,8.91,0.4577777777777778,-0.2766666666666667,-0.7155555555555555,0.875,-4.0625,109.3125
1589543970.0504544,-2.93,-1.97,9.21,0.4577777777777778,-0.2766666666666667,-0.7155555555555555,0.1875,-5.75,110.125
1589543970.065578,-2.87,-1.88,8.95,0.4577777777777778,-0.2766666666666667,-0.7155555555555555,1.25,-4.125,111.4375
1589543970.07089,-2.91,-1.85,8.74,0.4444444444444444,-0.28444444444444444,-0.6944444444444444,0.25,-5.5,112.5
1589543970.0810642,-2.98,-1.83,9.04,0.4444444444444444,-0.28444444444444444,-0.6944444444444444,0.75,-5.1875,113.625
1589543970.0898592,-2.75,-1.66,8.55,0.4444444444444444,-0.28444444444444444,-0.6944444444444444,1.1875,-4.3125,113.4375
1589543970.1038795,-2.62,-1.63,9.08,0.4444444444444444,-0.28444444444444444,-0.6944444444444444,-0.375,-7.6875,111.3125
1589543970.1116815,-2.7,-1.59,9.13,0.4444444444444444,-0.28444444444444444,-0.6944444444444444,-1.875,-7.375,108.1875
1589543970.1240606,-2.17,-1.39,9.4,0.4577777777777778,-0.3,-0.7022222222222222,-3.75,-9.875,107.5
1589543970.1305542,-1.99,-1.32,9.72,0.4577777777777778,-0.3,-0.7022222222222222,0.5,-4.9375,109.125
1589543970.1426635,-2.32,-1.24,8.47,0.4577777777777778,-0.3,-0.7022222222222222,3.5625,-1.1875,111.0625
1589543970.1508193,-2.18,-1.26,8.9,0.4577777777777778,-0.3,-0.7022222222222222,3.125,-4.0625,111.75
1589543970.1630855,-1.58,-0.78,8.09,0.4577777777777778,-0.3,-0.7022222222222222,2.25,-3.5,107.0625
1589543970.1691296,-2.24,-0.97,9.73,0.43666666666666665,-0.31222222222222223,-0.6944444444444444,-1.5,-9.25,99.1875
1589543970.180596,-2.24,-0.97,9.73,0.43666666666666665,-0.31222222222222223,-0.6944444444444444,-1.5,-9.25,99.1875
1589543970.1909618,-3.09,-0.89,9.25,0.43666666666666665,-0.31222222222222223,-0.6944444444444444,0.625,-4.875,85.875
1589543970.2008324,-2.78,-0.83,9.07,0.43666666666666665,-0.31222222222222223,-0.6944444444444444,1.25,-2.5,82.6875
1589543970.2177136,-2.25,-0.59,8.11,0.43666666666666665,-0.31222222222222223,-0.6944444444444444,0.5625,-4.0625,76.625
1589543970.2242124,-2.59,-0.78,9.59,0.4088888888888889,-0.3322222222222222,-0.7022222222222222,-1.875,-8.3125,67.6875
1589543970.2312279,-1.84,-0.22,7.82,0.4088888888888889,-0.3322222222222222,-0.7022222222222222,1.9375,-1.25,64.4375
1589543970.2442956,-0.64,-0.31,9.3,0.4088888888888889,-0.3322222222222222,-0.7022222222222222,-2.625,-7.375,46.375
1589543970.2554693,-0.16,0.06,9.03,0.4088888888888889,-0.3322222222222222,-0.7022222222222222,-1.3125,-2.3125,9.4375
1589543970.2628784,-0.16,-0.67,9.36,0.4088888888888889,-0.3322222222222222,-0.7022222222222222,-1.4375,-0.5625,-31.25
1589543970.2748725,-0.12,-0.95,8.85,0.37777777777777777,-0.34444444444444444,-0.7088888888888889,-0.625,3.625,-74.1875
1589543970.280954,-1.11,-0.77,8.95,0.37777777777777777,-0.34444444444444444,-0.7088888888888889,-0.75,5.6875,-119.375
1589543970.290987,-0.89,-0.8,9.07,0.37777777777777777,-0.34444444444444444,-0.7088888888888889,-1.9375,7.0,-154.5
1589543970.3027322,-0.34,-1.11,8.87,0.37777777777777777,-0.34444444444444444,-0.7088888888888889,-0.9375,9.8125,-187.75
1589543970.3126485,-0.6,-1.37,8.94,0.37777777777777777,-0.34444444444444444,-0.7088888888888889,-1.0625,10.5,-222.75
1589543970.3204634,-0.91,-1.72,8.76,0.4177777777777778,-0.34444444444444444,-0.68,-3.1875,10.625,-257.875
1589543970.335145,-0.63,-2.43,9.21,0.4177777777777778,-0.34444444444444444,-0.68,-3.375,12.0625,-291.625
1589543970.341254,-1.28,-2.47,8.67,0.4177777777777778,-0.34444444444444444,-0.68,-0.625,16.6875,-322.5625
1589543970.354216,-2.35,-2.53,8.82,0.4177777777777778,-0.34444444444444444,-0.68,-2.8125,16.875,-346.5
1589543970.3630302,-3.03,-3.23,9.37,0.4177777777777778,-0.34444444444444444,-0.68,-2.125,16.75,-350.375
1589543970.3758016,-3.75,-3.7,8.14,0.5011111111111111,-0.2788888888888889,-0.73,2.875,21.1875,-342.0625
1589543970.3815908,-4.26,-3.97,8.97,0.5011111111111111,-0.2788888888888889,-0.73,-3.8125,13.3125,-333.875
1589543970.3926528,-3.76,-3.99,9.26,0.5011111111111111,-0.2788888888888889,-0.73,-4.875,11.5,-318.6875
1589543970.4039571,-3.48,-3.99,8.88,0.5011111111111111,-0.2788888888888889,-0.73,-1.0,14.25,-304.0625
1589543970.4139392,-4.11,-4.36,8.64,0.5011111111111111,-0.2788888888888889,-0.73,-1.8125,13.875,-288.4375
1589543970.4258995,-4.14,-4.42,9.11,0.6044444444444445,-0.21333333333333332,-0.7155555555555555,-2.9375,10.9375,-269.5625
1589543970.4320307,-4.2,-4.55,9.2,0.6044444444444445,-0.21333333333333332,-0.7155555555555555,-2.125,11.0,-250.1875
1589543970.4424968,-3.46,-4.4,8.74,0.6044444444444445,-0.21333333333333332,-0.7155555555555555,-1.625,10.8125,-230.125
1589543970.455173,-3.94,-4.74,8.94,0.6044444444444445,-0.21333333333333332,-0.7155555555555555,-2.375,8.8125,-211.6875
1589543970.4667952,-3.22,-4.53,8.89,0.6044444444444445,-0.21333333333333332,-0.7155555555555555,-2.25,7.5625,-192.1875
1589543970.4727454,-2.94,-4.29,8.91,0.7466666666666667,-0.20777777777777776,-0.7022222222222222,-1.9375,7.1875,-176.0
1589543970.4858875,-2.87,-4.43,9.2,0.7466666666666667,-0.20777777777777776,-0.7022222222222222,-2.8125,6.0,-160.1875
1589543970.4927197,-2.97,-4.72,8.64,0.7466666666666667,-0.20777777777777776,-0.7022222222222222,-0.3125,7.5,-143.4375
1589543970.506071,-2.95,-4.82,8.73,0.7466666666666667,-0.20777777777777776,-0.7022222222222222,-0.75,6.0,-128.875
1589543970.51396,-2.55,-4.33,8.98,0.7466666666666667,-0.20777777777777776,-0.7022222222222222,-2.25,4.0625,-114.0625
1589543970.5259285,-2.41,-4.34,8.92,1.1977777777777778,-0.44,-0.5544444444444444,-0.8125,4.1875,-99.375
1589543970.5322065,-2.35,-4.38,8.85,1.1977777777777778,-0.44,-0.5544444444444444,-0.4375,4.375,-86.0
1589543970.5424178,-2.53,-4.69,8.71,1.1977777777777778,-0.44,-0.5544444444444444,-1.0625,2.9375,-72.4375
1589543970.5527067,-2.44,-4.82,9.04,1.1977777777777778,-0.44,-0.5544444444444444,-1.4375,1.25,-58.875
1589543970.5642204,-2.17,-4.37,8.69,1.1977777777777778,-0.44,-0.5544444444444444,-0.375,2.3125,-45.125
1589543970.572175,-2.15,-4.53,8.89,1.4788888888888894,-0.18777777777777774,-0.6711111111111111,-0.5,0.75,-31.0
1589543970.5840724,-2.2,-4.77,8.95,1.4788888888888894,-0.18777777777777774,-0.6711111111111111,-0.375,0.25,-17.5
1589543970.5922985,-1.8,-4.34,8.79,1.4788888888888894,-0.18777777777777774,-0.6711111111111111,0.25,0.0,-5.3125
1589543970.6035259,-1.78,-4.44,8.81,1.4788888888888894,-0.18777777777777774,-0.6711111111111111,0.0,-0.625,4.3125
1589543970.614424,-1.73,-4.36,8.84,1.4788888888888894,-0.18777777777777774,-0.6711111111111111,-0.5,-1.3125,10.75
1589543970.624428,-1.57,-4.28,8.94,0.8844444444444445,-0.006666666666666667,-0.7566666666666667,0.0625,-0.875,16.1875
1589543970.6369805,-1.52,-4.19,8.79,0.8844444444444445,-0.006666666666666667,-0.7566666666666667,0.4375,-0.75,19.25
1589543970.6427007,-1.49,-4.23,8.7,0.8844444444444445,-0.006666666666666667,-0.7566666666666667,0.0,-1.1875,20.8125
1589543970.6581204,-1.26,-3.82,8.85,0.8844444444444445,-0.006666666666666667,-0.7566666666666667,0.375,-2.0,20.3125
1589543970.6643288,-0.98,-3.3,8.84,0.8844444444444445,-0.006666666666666667,-0.7566666666666667,0.375,-1.4375,19.25
1589543970.6758456,-0.92,-3.21,8.98,0.6944444444444444,0.06222222222222223,-0.7644444444444445,-0.625,-1.8125,17.5
1589543970.6832132,-1.05,-3.38,8.99,0.6944444444444444,0.06222222222222223,-0.7644444444444445,0.375,-0.6875,15.1875
1589543970.6928554,-1.29,-3.58,8.84,0.6944444444444444,0.06222222222222223,-0.7644444444444445,0.5625,-0.375,12.75
1589543970.7027314,-1.2,-3.44,8.92,0.6944444444444444,0.06222222222222223,-0.7644444444444445,-0.125,-1.25,11.5625
1589543970.7171748,-1.23,-3.42,8.89,0.6944444444444444,0.06222222222222223,-0.7644444444444445,0.25,-0.9375,11.0
1589543970.7293868,-1.37,-3.61,8.9,0.62,0.08,-0.7644444444444445,0.0625,-0.375,11.3125
1589543970.735866,-1.37,-3.58,8.89,0.62,0.08,-0.7644444444444445,0.1875,-0.5,13.0625
1589543970.7438126,-1.36,-3.49,8.84,0.62,0.08,-0.7644444444444445,-0.0625,-1.0625,15.5
1589543970.7562134,-1.25,-3.12,8.72,0.62,0.08,-0.7644444444444445,0.125,-1.25,18.4375
1589543970.770098,-1.31,-3.36,8.91,0.62,0.08,-0.7644444444444445,-0.25,-1.9375,23.375
1589543970.775574,-1.32,-3.49,8.77,0.5866666666666667,0.11555555555555555,-0.7422222222222222,-0.125,-1.625,28.4375
1589543970.7882204,-1.36,-3.54,8.94,0.5866666666666667,0.11555555555555555,-0.7422222222222222,-0.3125,-2.5625,31.6875
1589543970.7948134,-1.34,-3.67,8.92,0.5866666666666667,0.11555555555555555,-0.7422222222222222,-0.375,-2.625,34.3125
1589543970.8087356,-1.39,-3.8,8.96,0.5866666666666667,0.11555555555555555,-0.7422222222222222,0.625,-1.375,35.8125
1589543970.8153927,-1.53,-4.08,8.7,0.5866666666666667,0.11555555555555555,-0.7422222222222222,1.0,-0.6875,35.8125
1589543970.8268518,-1.55,-4.03,8.81,0.6111111111111112,0.10444444444444444,-0.7777777777777778,0.0,-1.875,33.5
1589543970.8336186,-1.43,-3.76,9.19,0.6111111111111112,0.10444444444444444,-0.7777777777777778,-0.1875,-2.5625,30.9375
1589543970.8447485,-1.4,-3.7,8.81,0.6111111111111112,0.10444444444444444,-0.7777777777777778,0.6875,-1.25,28.875
1589543970.8544025,-1.39,-3.72,8.98,0.6111111111111112,0.10444444444444444,-0.7777777777777778,-0.5,-2.6875,25.9375
1589543970.8665688,-1.7,-4.07,8.87,0.6111111111111112,0.10444444444444444,-0.7777777777777778,0.3125,-1.3125,24.125
1589543970.8742938,-1.42,-3.74,9.15,0.5988888888888889,0.07777777777777778,-0.8044444444444444,0.125,-1.5,21.5
1589543970.8854258,-1.24,-3.46,8.69,0.5988888888888889,0.07777777777777778,-0.8044444444444444,0.3125,-1.125,18.875
1589543970.894185,-1.27,-3.62,8.81,0.5988888888888889,0.07777777777777778,-0.8044444444444444,0.125,-1.1875,16.1875
1589543970.9063857,-1.2,-3.58,9.03,0.5988888888888889,0.07777777777777778,-0.8044444444444444,-0.375,-1.4375,13.0
1589543970.9156766,-1.16,-3.51,8.8,0.5988888888888889,0.07777777777777778,-0.8044444444444444,1.125,0.6875,10.5
1589543970.9267228,-1.11,-3.5,9.02,0.6,0.04777777777777778,-0.7855555555555556,0.1875,-0.6875,7.875
1589543970.9388561,-1.23,-3.55,8.92,0.6,0.04777777777777778,-0.7855555555555556,-0.1875,-1.375,4.8125
1589543970.945652,-1.23,-3.51,8.77,0.6,0.04777777777777778,-0.7855555555555556,0.0625,-0.75,2.3125
1589543970.9593422,-1.21,-3.57,8.94,0.6,0.04777777777777778,-0.7855555555555556,0.1875,-0.5625,0.1875
1589543970.9671695,-1.06,-3.49,8.65,0.6,0.04777777777777778,-0.7855555555555556,-0.25,-0.6875,-1.75
1589543970.9786837,-1.03,-3.39,9.02,0.5877777777777777,0.07222222222222223,-0.7655555555555555,-1.1875,-2.375,-4.5
1589543970.9845176,-27.12,-29.93,0.65,0.5877777777777777,0.07222222222222223,-0.7655555555555555,3.25,19.0,17.125
1589543970.994576,4.55,6.64,1.37,0.5877777777777777,0.07222222222222223,-0.7655555555555555,-15.6875,36.1875,-8.1875
1589543971.0048592,1.29,0.46,12.3,0.5877777777777777,0.07222222222222223,-0.7655555555555555,-45.625,-45.0,-63.875
1589543971.0161633,0.16,2.02,6.19,0.5877777777777777,0.07222222222222223,-0.7655555555555555,35.375,-26.0625,-36.0625
1589543971.0235856,0.99,1.01,6.55,0.5755555555555556,0.07222222222222223,-0.7511111111111111,35.75,42.125,-44.5625
1589543971.0316775,0.99,1.01,6.55,0.5755555555555556,0.07222222222222223,-0.7511111111111111,35.75,42.125,-44.5625
1589543971.044499,-0.17,-2.04,8.25,0.5755555555555556,0.07222222222222223,-0.7511111111111111,-3.125,1.1875,-31.0
1589543971.054719,-1.2,-2.82,9.37,0.5755555555555556,0.07222222222222223,-0.7511111111111111,9.5,8.1875,-22.5625
1589543971.0666456,-1.1,-2.7,9.39,0.5755555555555556,0.07222222222222223,-0.7511111111111111,-6.3125,-4.1875,-12.8125
1589543971.0785575,-0.94,-2.53,8.3,0.5555555555555556,0.09888888888888887,-0.7511111111111111,-0.125,1.4375,-1.1875
1589543971.0875106,-0.85,-2.6,9.26,0.5555555555555556,0.09888888888888887,-0.7511111111111111,3.1875,-0.1875,6.3125
1589543971.0980158,-0.74,-2.3,8.66,0.5555555555555556,0.09888888888888887,-0.7511111111111111,-1.0625,-0.8125,8.1875
1589543971.105425,-0.77,-2.49,9.31,0.5555555555555556,0.09888888888888887,-0.7511111111111111,-1.0625,-0.5,8.25
1589543971.1166482,-1.39,-3.23,8.56,0.5555555555555556,0.09888888888888887,-0.7511111111111111,1.0625,1.4375,8.375
1589543971.1245134,-0.28,-3.03,7.45,0.5822222222222222,0.10666666666666667,-0.7377777777777778,-0.375,-0.9375,4.25
1589543971.1361394,1.22,0.75,11.4,0.5822222222222222,0.10666666666666667,-0.7377777777777778,-4.375,-5.9375,-24.25
1589543971.1493578,-0.87,-1.75,7.9,0.5822222222222222,0.10666666666666667,-0.7377777777777778,8.3125,8.9375,-32.9375
1589543971.155316,-1.57,-2.84,8.87,0.5822222222222222,0.10666666666666667,-0.7377777777777778,-0.4375,2.375,-20.6875
1589543971.1679842,-2.98,-6.72,8.16,0.5822222222222222,0.10666666666666667,-0.7377777777777778,-5.4375,-1.75,-8.8125
1589543971.1744792,-1.2,-3.55,9.12,0.5511111111111111,0.09333333333333334,-0.7588888888888888,0.5,0.1875,-3.6875
1589543971.1806822,-1.2,-3.55,9.12,0.5511111111111111,0.09333333333333334,-0.7588888888888888,0.5,0.1875,-3.6875
1589543971.1911635,-1.37,-3.56,9.11,0.5511111111111111,0.09333333333333334,-0.7588888888888888,1.75,-1.1875,-2.875
1589543971.1975856,-1.38,-3.84,9.13,0.5511111111111111,0.09333333333333334,-0.7588888888888888,0.5625,0.875,-0.1875
1589543971.2090108,-1.56,-3.78,8.8,0.5511111111111111,0.09333333333333334,-0.7588888888888888,-1.0,-0.625,-0.1875
1589543971.217909,-1.58,-3.72,8.67,0.5511111111111111,0.09333333333333334,-0.7588888888888888,0.125,0.8125,0.0625
1589543971.2269092,-1.48,-3.84,9.0,0.5777777777777777,0.10666666666666667,-0.7511111111111111,-0.75,-0.375,-0.0625
1589543971.2382116,-1.51,-3.76,8.93,0.5777777777777777,0.10666666666666667,-0.7511111111111111,-0.0625,-0.3125,0.0
1589543971.2466748,-1.53,-3.73,8.8,0.5777777777777777,0.10666666666666667,-0.7511111111111111,0.5625,-0.375,-0.125
1589543971.2560387,-1.51,-3.78,8.87,0.5777777777777777,0.10666666666666667,-0.7511111111111111,-0.1875,-0.1875,-0.125
1589543971.2689462,-1.56,-3.81,8.77,0.5777777777777777,0.10666666666666667,-0.7511111111111111,-0.375,0.0,-0.0625
1589543971.2761452,-1.5,-3.83,8.94,0.5577777777777778,0.09333333333333334,-0.7511111111111111,-0.5,0.0,-0.25
1589543971.2880573,-1.55,-3.75,8.85,0.5577777777777778,0.09333333333333334,-0.7511111111111111,0.0,-0.25,0.0625
1589543971.2973814,-1.51,-3.75,8.88,0.5577777777777778,0.09333333333333334,-0.7511111111111111,0.375,-0.25,-0.125
1589543971.3074107,-1.54,-3.79,8.84,0.5577777777777778,0.09333333333333334,-0.7511111111111111,0.0625,-0.125,-0.125
1589543971.3187435,-1.5,-3.79,8.92,0.5577777777777778,0.09333333333333334,-0.7511111111111111,-0.625,0.0625,0.0625
1589543971.3265526,-1.57,-3.8,8.75,0.5577777777777778,0.10666666666666667,-0.7588888888888888,-0.375,0.0625,-0.125
1589543971.3408842,-1.51,-3.83,8.92,0.5577777777777778,0.10666666666666667,-0.7588888888888888,-0.1875,-0.1875,-0.125
1589543971.3467355,-1.53,-3.75,8.78,0.5577777777777778,0.10666666666666667,-0.7588888888888888,0.3125,-0.125,0.0
1589543971.3603215,-1.49,-3.74,8.94,0.5577777777777778,0.10666666666666667,-0.7588888888888888,0.1875,0.0,-0.125
1589543971.3695798,-1.54,-3.77,8.85,0.5577777777777778,0.10666666666666667,-0.7588888888888888,-0.3125,-0.125,-0.0625
1589543971.3803792,-1.53,-3.79,8.82,0.57,0.09333333333333334,-0.7733333333333333,-0.3125,0.125,-0.0625
1589543971.3872929,-1.52,-3.8,8.86,0.57,0.09333333333333334,-0.7733333333333333,-0.0625,-0.0625,0.125
1589543971.4003587,-1.49,-3.77,8.86,0.57,0.09333333333333334,-0.7733333333333333,0.125,-0.25,0.0
1589543971.4069204,-1.53,-3.74,8.8,0.57,0.09333333333333334,-0.7733333333333333,0.3125,0.125,0.0
1589543971.419551,-1.52,-3.77,8.86,0.57,0.09333333333333334,-0.7733333333333333,-0.375,0.0,-0.0625
1589543971.427826,-1.53,-3.8,8.86,0.5844444444444444,0.10666666666666667,-0.73,-0.625,-0.0625,0.0625
1589543971.4399552,-1.52,-3.8,8.89,0.5844444444444444,0.10666666666666667,-0.73,-0.4375,-0.125,0.0625
1589543971.4499474,-1.51,-3.78,8.85,0.5844444444444444,0.10666666666666667,-0.73,-0.0625,-0.0625,0.0
1589543971.4597664,-1.52,-3.76,8.87,0.5844444444444444,0.10666666666666667,-0.73,0.375,-0.375,0.0625
1589543971.4737976,-1.54,-3.78,8.89,0.5844444444444444,0.10666666666666667,-0.73,0.0625,-0.25,0.0
1589543971.4798384,-1.53,-3.79,8.89,0.57,0.11333333333333333,-0.7655555555555555,-0.375,-0.125,-0.0625
1589543971.4929032,-1.52,-3.8,8.84,0.57,0.11333333333333333,-0.7655555555555555,-0.25,0.0625,-0.0625
1589543971.4988725,-1.53,-3.78,8.77,0.57,0.11333333333333333,-0.7655555555555555,-0.125,-0.25,0.125
1589543971.5110445,-1.5,-3.77,8.9,0.57,0.11333333333333333,-0.7655555555555555,0.125,-0.1875,0.0
1589543971.5202975,-1.51,-3.76,8.92,0.57,0.11333333333333333,-0.7655555555555555,0.0625,-0.25,0.0625
1589543971.5280738,-1.51,-3.8,8.92,0.5844444444444444,0.10666666666666667,-0.7377777777777778,-0.3125,0.125,0.0625
1589543971.53767,-1.53,-3.79,8.83,0.5844444444444444,0.10666666666666667,-0.7377777777777778,-0.4375,-0.0625,-0.0625
1589543971.551701,-1.51,-3.79,8.79,0.5844444444444444,0.10666666666666667,-0.7377777777777778,-0.125,-0.125,-0.125
1589543971.5576384,-1.53,-3.76,8.92,0.5844444444444444,0.10666666666666667,-0.7377777777777778,0.0625,-0.125,-0.125
1589543971.5713437,-1.52,-3.77,8.9,0.5844444444444444,0.10666666666666667,-0.7377777777777778,0.1875,-0.1875,-0.125
1589543971.5786655,-1.52,-3.81,8.92,0.5844444444444444,0.11333333333333333,-0.7588888888888888,-0.0625,0.0625,-0.0625
1589543971.5878735,-1.54,-3.81,8.9,0.5844444444444444,0.11333333333333333,-0.7588888888888888,-0.4375,0.0625,-0.1875
1589543971.598575,-1.52,-3.81,8.78,0.5844444444444444,0.11333333333333333,-0.7588888888888888,-0.0625,-0.125,-0.0625
1589543971.6083698,-1.52,-3.79,8.88,0.5844444444444444,0.11333333333333333,-0.7588888888888888,0.0,-0.25,-0.125
1589543971.6204185,-1.51,-3.75,8.92,0.5844444444444444,0.11333333333333333,-0.7588888888888888,0.25,-0.1875,0.0
1589543971.631451,-1.54,-3.81,8.9,0.5644444444444444,0.09888888888888887,-0.7655555555555555,-0.375,0.0625,0.0
1589543971.6434689,-1.53,-3.79,8.86,0.5644444444444444,0.09888888888888887,-0.7655555555555555,-0.375,0.0625,0.0
1589543971.6495054,-1.53,-3.8,8.76,0.5644444444444444,0.09888888888888887,-0.7655555555555555,0.125,-0.1875,-0.0625
1589543971.6623652,-1.53,-3.77,8.81,0.5644444444444444,0.09888888888888887,-0.7655555555555555,0.125,-0.0625,-0.125
1589543971.6712756,-1.52,-3.75,8.89,0.5644444444444444,0.09888888888888887,-0.7655555555555555,0.0,-0.0625,0.0
1589543971.6824608,-1.53,-3.78,8.91,0.5844444444444444,0.10666666666666667,-0.7511111111111111,-0.1875,0.0,0.0
1589543971.6888664,-1.52,-3.8,8.89,0.5844444444444444,0.10666666666666667,-0.7511111111111111,-0.3125,0.0625,0.0
1589543971.7028828,-1.53,-3.79,8.8,0.5844444444444444,0.10666666666666667,-0.7511111111111111,0.0625,-0.1875,-0.125
1589543971.708548,-1.52,-3.75,8.85,0.5844444444444444,0.10666666666666667,-0.7511111111111111,0.1875,-0.125,-0.0625
1589543971.7228274,-1.51,-3.76,8.91,0.5844444444444444,0.10666666666666667,-0.7511111111111111,0.0625,0.0,0.0
1589543971.7296743,-1.52,-3.76,8.91,0.57,0.10666666666666667,-0.7588888888888888,-0.1875,0.0625,0.0
1589543971.7393296,-1.52,-3.81,8.84,0.57,0.10666666666666667,-0.7588888888888888,-0.5,-0.0625,0.0625
1589543971.7486155,-1.51,-3.8,8.75,0.57,0.10666666666666667,-0.7588888888888888,-0.25,0.125,-0.0625
1589543971.759139,-1.54,-3.81,8.81,0.57,0.10666666666666667,-0.7588888888888888,0.1875,-0.0625,-0.0625
1589543971.7736402,-1.51,-3.79,8.88,0.57,0.10666666666666667,-0.7588888888888888,0.0,-0.25,0.0
1589543971.7805846,-1.5,-3.76,8.91,0.5511111111111111,0.11333333333333333,-0.7511111111111111,-0.125,-0.125,-0.0625
1589543971.7930913,-1.53,-3.76,8.88,0.5511111111111111,0.11333333333333333,-0.7511111111111111,-0.3125,0.1875,0.0625
1589543971.7991288,-1.53,-3.8,8.76,0.5511111111111111,0.11333333333333333,-0.7511111111111111,-0.3125,0.0,0.0
1589543971.809222,-1.53,-3.78,8.84,0.5511111111111111,0.11333333333333333,-0.7511111111111111,0.0625,0.0,0.0
1589543971.821433,-1.53,-3.76,8.9,0.5511111111111111,0.11333333333333333,-0.7511111111111111,0.125,0.0625,0.0
1589543971.8329492,-1.51,-3.76,8.92,0.5577777777777778,0.12,-0.7655555555555555,-0.0625,-0.0625,-0.0625
1589543971.8391554,-1.51,-3.76,8.92,0.5577777777777778,0.12,-0.7655555555555555,-0.1875,0.0625,0.125
1589543971.8534167,-1.53,-3.82,8.76,0.5577777777777778,0.12,-0.7655555555555555,-0.25,0.0625,-0.0625
1589543971.859933,-1.52,-3.79,8.81,0.5577777777777778,0.12,-0.7655555555555555,0.0,0.0625,-0.0625
1589543971.871511,-1.52,-3.77,8.87,0.5577777777777778,0.12,-0.7655555555555555,0.125,-0.0625,-0.125
1589543971.8796506,-1.53,-3.79,8.9,0.5777777777777777,0.09888888888888887,-0.7377777777777778,-0.125,0.0,-0.0625
1589543971.8893304,-1.53,-3.78,8.89,0.5777777777777777,0.09888888888888887,-0.7377777777777778,-0.25,-0.0625,0.0625
1589543971.8994265,-1.51,-3.78,8.76,0.5777777777777777,0.09888888888888887,-0.7377777777777778,-0.25,-0.125,0.0
1589543971.909998,-1.52,-3.8,8.81,0.5777777777777777,0.09888888888888887,-0.7377777777777778,-0.25,-0.125,0.0
1589543971.922097,-1.52,-3.78,8.9,0.5777777777777777,0.09888888888888887,-0.7377777777777778,0.1875,-0.1875,-0.125
1589543971.934251,-1.52,-3.77,8.92,0.57,0.10666666666666667,-0.7511111111111111,-0.125,-0.375,0.0
1589543971.9414272,-1.54,-3.76,8.92,0.57,0.10666666666666667,-0.7511111111111111,-0.3125,0.0,0.0
1589543971.9527507,-1.51,-3.79,8.78,0.57,0.10666666666666667,-0.7511111111111111,-0.3125,-0.0625,0.0
1589543971.9597838,-1.54,-3.79,8.81,0.57,0.10666666666666667,-0.7511111111111111,-0.125,-0.0625,0.0625
1589543971.972395,-1.53,-3.77,8.86,0.57,0.10666666666666667,-0.7511111111111111,0.125,-0.1875,-0.0625
