time,acc_x,acc_y,acc_z,mag_x,mag_y,mag_z,gyr_x,gyr_y,gyr_z
1589543831.3714964,0.11,-4.13,8.76,0.52,0.36777777777777776,-0.6844444444444444,0.0625,0.0,0.125
1589543831.3813055,0.1,-4.11,8.72,0.52,0.36777777777777776,-0.6844444444444444,0.125,0.25,0.0625
1589543831.3912668,0.13,-4.12,8.68,0.52,0.36777777777777776,-0.6844444444444444,0.125,0.125,0.0625
1589543831.401372,0.14,-4.13,8.76,0.52,0.36777777777777776,-0.6844444444444444,-0.125,0.0625,-0.0625
1589543831.4144793,0.13,-4.15,8.8,0.52,0.36777777777777776,-0.6844444444444444,0.0625,0.3125,-0.0625
1589543831.4214694,0.11,-4.15,8.84,0.52,0.3533333333333333,-0.72,0.125,0.4375,0.0625
1589543831.4330375,0.1,-4.16,8.9,0.52,0.3533333333333333,-0.72,0.25,0.125,-0.25
1589543831.4422708,0.12,-4.19,8.8,0.52,0.3533333333333333,-0.72,0.3125,0.0625,-0.1875
1589543831.45421,0.12,-4.19,8.82,0.52,0.3533333333333333,-0.72,0.1875,0.25,-0.25
1589543831.4644036,0.12,-4.16,8.86,0.52,0.3533333333333333,-0.72,0.0,0.125,0.0
1589543831.4718096,0.15,-4.15,8.84,0.5277777777777778,0.3466666666666667,-0.6911111111111111,0.125,0.125,-0.125
1589543831.4865787,0.1,-4.15,8.77,0.5277777777777778,0.3466666666666667,-0.6911111111111111,0.0,0.5625,0.0625
1589543831.494783,0.12,-4.15,8.67,0.5277777777777778,0.3466666666666667,-0.6911111111111111,0.375,0.9375,0.1875
1589543831.5061738,0.09,-4.14,8.68,0.5277777777777778,0.3466666666666667,-0.6911111111111111,0.375,1.125,0.125
1589543831.5145528,0.12,-4.13,8.8,0.5277777777777778,0.3466666666666667,-0.6911111111111111,0.5625,1.0,0.1875
1589543831.5259554,0.09,-4.13,8.79,0.5277777777777778,0.3533333333333333,-0.6977777777777778,0.625,1.0,0.1875
1589543831.5323806,0.09,-4.14,8.82,0.5277777777777778,0.3533333333333333,-0.6977777777777778,0.625,0.75,0.25
1589543831.5423374,0.11,-4.13,8.76,0.5277777777777778,0.3533333333333333,-0.6977777777777778,0.125,0.125,0.0625
1589543831.5530038,0.12,-4.13,8.81,0.5277777777777778,0.3533333333333333,-0.6977777777777778,-0.0625,0.0,0.0625
1589543831.5652,0.12,-4.15,8.89,0.5277777777777778,0.3533333333333333,-0.6977777777777778,-0.4375,-0.5,-0.0625
1589543831.572428,0.11,-4.15,8.82,0.5066666666666667,0.36,-0.6766666666666666,-0.3125,-0.5,-0.125
1589543831.5825722,0.12,-4.14,8.71,0.5066666666666667,0.36,-0.6766666666666666,-0.125,-0.1875,0.0
1589543831.5925415,0.11,-4.16,8.68,0.5066666666666667,0.36,-0.6766666666666666,-0.1875,-0.25,0.125
1589543831.6053278,0.1,-4.14,8.74,0.5066666666666667,0.36,-0.6766666666666666,-0.125,-0.5,-0.0625
1589543831.620398,0.11,-4.14,8.73,0.5066666666666667,0.36,-0.6766666666666666,-0.0625,-0.625,0.0
1589543831.6263602,0.11,-4.16,8.82,0.5133333333333333,0.3411111111111111,-0.6844444444444444,-0.125,-0.625,0.0
1589543831.6371465,0.11,-4.14,8.82,0.5133333333333333,0.3411111111111111,-0.6844444444444444,-0.125,-0.5625,0.0
1589543831.6432033,0.11,-4.14,8.76,0.5133333333333333,0.3411111111111111,-0.6844444444444444,-0.1875,-0.5625,0.125
1589543831.657265,0.11,-4.13,8.81,0.5133333333333333,0.3411111111111111,-0.6844444444444444,-0.1875,-0.5,0.0625
1589543831.666107,0.1,-4.11,8.8,0.5133333333333333,0.3411111111111111,-0.6844444444444444,-0.25,-0.25,0.125
1589543831.676151,0.1,-4.11,8.84,0.5277777777777778,0.3533333333333333,-0.67,-0.5625,-0.5625,-0.125
1589543831.683491,0.17,-4.02,8.9,0.5277777777777778,0.3533333333333333,-0.67,-0.875,-1.125,-0.125
1589543831.6958065,0.24,-3.69,8.73,0.5277777777777778,0.3533333333333333,-0.67,-0.75,-0.9375,-0.875
1589543831.7020805,0.21,-3.79,8.78,0.5277777777777778,0.3533333333333333,-0.67,-0.4375,-0.4375,-2.5625
1589543831.7143536,0.16,-3.94,8.79,0.5277777777777778,0.3533333333333333,-0.67,-0.3125,0.0,-4.75
1589543831.722545,0.11,-4.12,8.77,0.5277777777777778,0.3466666666666667,-0.6844444444444444,-0.0625,0.1875,-5.875
1589543831.732939,0.09,-4.15,8.77,0.5277777777777778,0.3466666666666667,-0.6844444444444444,0.0,0.375,-5.6875
1589543831.7438204,0.09,-4.1,8.7,0.5277777777777778,0.3466666666666667,-0.6844444444444444,-0.25,0.25,-5.0
1589543831.7562895,0.1,-4.11,8.73,0.5277777777777778,0.3466666666666667,-0.6844444444444444,-0.1875,0.25,-4.3125
1589543831.7703776,0.13,-4.06,8.8,0.5277777777777778,0.3466666666666667,-0.6844444444444444,0.0,0.125,-3.625
1589543831.777066,0.15,-3.99,8.86,0.52,0.3533333333333333,-0.6911111111111111,-0.3125,0.0,-3.5
1589543831.7859561,0.18,-3.94,8.88,0.52,0.3533333333333333,-0.6911111111111111,-0.5625,-0.4375,-3.9375
1589543831.7935286,0.17,-3.89,8.76,0.52,0.3533333333333333,-0.6911111111111111,-0.6875,-0.375,-4.9375
1589543831.8081553,0.2,-3.87,8.76,0.52,0.3533333333333333,-0.6911111111111111,-0.75,-0.375,-6.375
1589543831.8160493,0.15,-3.93,8.81,0.52,0.3533333333333333,-0.6911111111111111,-0.6875,-0.0625,-7.75
1589543831.8287678,0.16,-3.95,8.82,0.5066666666666667,0.3466666666666667,-0.6844444444444444,-0.625,0.1875,-7.75
1589543831.8346891,0.24,-3.82,8.75,0.5066666666666667,0.3466666666666667,-0.6844444444444444,-0.8125,0.25,-7.8125
1589543831.8472862,0.26,-3.68,8.76,0.5066666666666667,0.3466666666666667,-0.6844444444444444,-0.6875,0.125,-8.25
1589543831.8536882,0.3,-3.49,8.71,0.5066666666666667,0.3466666666666667,-0.6844444444444444,-1.0625,0.375,-9.0625
1589543831.868357,0.06,-2.98,8.66,0.5066666666666667,0.3466666666666667,-0.6844444444444444,-2.25,-1.25,-10.625
1589543831.8735588,0.06,-2.8,9.11,0.52,0.3533333333333333,-0.7055555555555556,-2.0,-0.8125,-12.8125
1589543831.886749,-0.05,-2.6,8.65,0.52,0.3533333333333333,-0.7055555555555556,-2.375,0.125,-14.5
1589543831.893437,-0.08,-2.76,8.93,0.52,0.3533333333333333,-0.7055555555555556,-3.9375,-1.375,-14.25
1589543831.9031992,-0.04,-3.0,8.68,0.52,0.3533333333333333,-0.7055555555555556,-1.875,0.6875,-12.4375
1589543831.9089453,-0.04,-3.0,8.68,0.52,0.3533333333333333,-0.7055555555555556,-1.875,0.6875,-12.4375
1589543831.9155655,-0.06,-3.01,8.95,0.52,0.3533333333333333,-0.7055555555555556,-1.3125,0.125,-10.6875
1589543831.9266913,-0.1,-2.75,8.95,0.5066666666666667,0.36,-0.7055555555555556,1.375,1.25,-3.75
1589543831.9399848,-0.07,-2.77,8.65,0.5066666666666667,0.36,-0.7055555555555556,1.1875,0.5,6.25
1589543831.9468892,-0.04,-2.93,8.93,0.5066666666666667,0.36,-0.7055555555555556,-1.125,-1.625,15.0625
1589543831.9601386,-0.09,-2.93,8.82,0.5066666666666667,0.36,-0.7055555555555556,0.5,-0.5,23.4375
1589543831.9665856,-0.07,-2.9,8.68,0.5066666666666667,0.36,-0.7055555555555556,0.6875,-0.9375,30.9375
1589543831.9804988,0.1,-3.06,8.91,0.5333333333333333,0.37333333333333335,-0.6977777777777778,0.0625,-1.8125,36.875
1589543831.9870448,0.05,-3.06,8.86,0.5333333333333333,0.37333333333333335,-0.6977777777777778,0.625,-1.25,41.0
1589543831.9989376,0.02,-3.13,8.75,0.5333333333333333,0.37333333333333335,-0.6977777777777778,0.375,-1.75,44.75
1589543832.005933,0.06,-3.16,8.81,0.5333333333333333,0.37333333333333335,-0.6977777777777778,-0.25,-2.625,48.3125
1589543832.0177455,0.03,-3.19,8.82,0.5333333333333333,0.37333333333333335,-0.6977777777777778,-0.1875,-2.75,51.125
1589543832.0242414,-0.01,-3.14,8.79,0.52,0.36,-0.6911111111111111,0.0625,-2.75,53.625
1589543832.0354595,-0.06,-3.22,8.8,0.52,0.36,-0.6911111111111111,0.4375,-2.8125,56.1875
1589543832.0457387,-0.11,-3.3,8.72,0.52,0.36,-0.6911111111111111,0.0625,-3.0625,58.625
1589543832.055608,-0.06,-3.22,8.79,0.52,0.36,-0.6911111111111111,0.4375,-2.875,61.0625
1589543832.0679445,-0.12,-3.26,8.85,0.52,0.36,-0.6911111111111111,0.5,-2.875,62.5
1589543832.0790005,-0.13,-3.3,8.77,0.54,0.3466666666666667,-0.7122222222222222,0.5625,-2.875,64.0625
1589543832.0861664,-0.11,-3.26,8.76,0.54,0.3466666666666667,-0.7122222222222222,0.4375,-3.1875,65.75
1589543832.0952768,-0.17,-3.36,8.93,0.54,0.3466666666666667,-0.7122222222222222,0.25,-3.375,66.8125
1589543832.111178,-0.2,-3.37,8.79,0.54,0.3466666666666667,-0.7122222222222222,0.75,-2.6875,67.625
1589543832.1174526,-0.19,-3.39,8.75,0.54,0.3466666666666667,-0.7122222222222222,0.3125,-3.5625,67.875
1589543832.1243885,-0.19,-3.35,8.84,0.5277777777777778,0.32666666666666666,-0.7,-0.0625,-3.4375,67.75
1589543832.1367226,-0.26,-3.32,8.82,0.5277777777777778,0.32666666666666666,-0.7,0.25,-3.5625,67.375
1589543832.149957,-0.38,-3.43,8.82,0.5277777777777778,0.32666666666666666,-0.7,0.3125,-3.0625,67.6875
1589543832.1560068,-0.43,-3.43,8.77,0.5277777777777778,0.32666666666666666,-0.7,0.6875,-3.125,69.0625
1589543832.1678374,-0.36,-3.36,8.87,0.5277777777777778,0.32666666666666666,-0.7,0.25,-3.75,70.8125
1589543832.175322,-0.41,-3.34,8.86,0.5733333333333334,0.30666666666666664,-0.72,0.1875,-3.5,71.9375
1589543832.1898177,-0.54,-3.4,8.94,0.5733333333333334,0.30666666666666664,-0.72,0.8125,-3.0625,73.3125
1589543832.1961515,-0.64,-3.47,8.73,0.5733333333333334,0.30666666666666664,-0.72,0.5625,-2.9375,75.9375
1589543832.208485,-0.66,-3.48,8.87,0.5733333333333334,0.30666666666666664,-0.72,0.5625,-3.1875,78.5625
1589543832.216939,-0.71,-3.48,8.8,0.5733333333333334,0.30666666666666664,-0.72,0.75,-3.625,81.3125
1589543832.2257073,-0.73,-3.51,8.84,0.5788888888888889,0.27555555555555555,-0.7266666666666667,0.1875,-4.625,84.4375
1589543832.2362425,-0.8,-3.45,8.78,0.5788888888888889,0.27555555555555555,-0.7266666666666667,0.25,-4.375,87.125
1589543832.2465904,-0.81,-3.51,8.78,0.5788888888888889,0.27555555555555555,-0.7266666666666667,0.5625,-4.4375,89.8125
1589543832.2560785,-0.81,-3.46,8.8,0.5788888888888889,0.27555555555555555,-0.7266666666666667,0.5625,-4.25,92.3125
1589543832.2679598,-0.89,-3.42,8.83,0.5788888888888889,0.27555555555555555,-0.7266666666666667,0.4375,-4.4375,94.8125
1589543832.276216,-0.87,-3.4,8.99,0.5988888888888889,0.2411111111111111,-0.7555555555555555,0.5625,-4.75,97.25
1589543832.2898126,-0.9,-3.37,8.78,0.5988888888888889,0.2411111111111111,-0.7555555555555555,0.875,-4.1875,98.75
1589543832.2966745,-0.98,-3.42,8.71,0.5988888888888889,0.2411111111111111,-0.7555555555555555,0.3125,-5.1875,99.5625
1589543832.3084488,-1.07,-3.47,8.83,0.5988888888888889,0.2411111111111111,-0.7555555555555555,0.625,-4.75,100.875
1589543832.3222349,-1.11,-3.4,8.85,0.5988888888888889,0.2411111111111111,-0.7555555555555555,0.875,-4.375,101.6875
1589543832.329043,-0.99,-3.29,8.78,0.6055555555555555,0.20777777777777776,-0.7622222222222222,0.5625,-5.1875,102.25
1589543832.3410132,-1.17,-3.39,8.9,0.6055555555555555,0.20777777777777776,-0.7622222222222222,0.0625,-5.3125,101.375
1589543832.3478234,-1.21,-3.36,8.68,0.6055555555555555,0.20777777777777776,-0.7622222222222222,0.875,-4.0625,101.25
1589543832.3568444,-1.19,-3.3,8.79,0.6055555555555555,0.20777777777777776,-0.7622222222222222,0.875,-4.4375,101.0
1589543832.3689368,-1.31,-3.4,8.87,0.6055555555555555,0.20777777777777776,-0.7622222222222222,0.3125,-4.875,100.1875
1589543832.379819,-1.33,-3.26,8.82,0.6111111111111112,0.1688888888888889,-0.7911111111111111,0.6875,-4.5625,99.5625
1589543832.3870034,-1.37,-3.25,8.88,0.6111111111111112,0.1688888888888889,-0.7911111111111111,0.625,-4.4375,98.25
1589543832.3967485,-1.25,-3.05,8.84,0.6111111111111112,0.1688888888888889,-0.7911111111111111,0.625,-4.375,96.9375
1589543832.4069686,-1.56,-3.21,8.81,0.6111111111111112,0.1688888888888889,-0.7911111111111111,0.8125,-3.875,96.5
1589543832.4187155,-1.55,-3.15,8.81,0.6111111111111112,0.1688888888888889,-0.7911111111111111,0.5,-3.875,96.5625
1589543832.4254248,-1.55,-3.13,8.99,0.6111111111111112,0.12777777777777774,-0.8044444444444444,0.5,-4.8125,96.9375
1589543832.4356382,-1.55,-3.13,8.99,0.6111111111111112,0.12777777777777774,-0.8044444444444444,0.5,-4.8125,96.9375
1589543832.4415116,-1.68,-3.18,8.97,0.6111111111111112,0.12777777777777774,-0.8044444444444444,0.75,-4.25,97.5625
1589543832.448975,-1.67,-3.01,8.8,0.6111111111111112,0.12777777777777774,-0.8044444444444444,0.125,-4.0,98.1875
1589543832.4605243,-1.7,-2.92,8.89,0.6111111111111112,0.12777777777777774,-0.8044444444444444,0.375,-4.3125,98.9375
1589543832.469941,-1.75,-2.99,9.01,0.6111111111111112,0.12777777777777774,-0.8044444444444444,1.0,-4.375,99.9375
1589543832.4773226,-1.7,-2.88,8.78,0.6022222222222222,0.07444444444444444,-0.8122222222222222,0.5625,-3.25,100.3125
1589543832.486845,-1.73,-2.79,9.03,0.6022222222222222,0.07444444444444444,-0.8122222222222222,0.4375,-3.5,100.9375
1589543832.4986765,-1.75,-2.7,8.42,0.6022222222222222,0.07444444444444444,-0.8122222222222222,1.0625,-2.0625,101.5
1589543832.5114605,-1.68,-2.49,8.8,0.6022222222222222,0.07444444444444444,-0.8122222222222222,0.5625,-4.875,101.5
1589543832.5190766,-1.86,-2.6,8.99,0.6022222222222222,0.07444444444444444,-0.8122222222222222,-0.25,-5.5625,101.0625
1589543832.5302367,-1.81,-2.47,8.91,0.5877777777777777,0.015555555555555557,-0.84,0.0625,-3.5625,101.9375
1589543832.5374491,-1.61,-2.33,8.9,0.5877777777777777,0.015555555555555557,-0.84,0.3125,-3.3125,103.0
1589543832.5505302,-1.67,-2.33,8.65,0.5877777777777777,0.015555555555555557,-0.84,-0.375,-4.5625,103.375
1589543832.5566585,-1.25,-1.92,9.02,0.5877777777777777,0.015555555555555557,-0.84,-1.75,-6.1875,103.5
1589543832.5691195,-1.53,-2.03,9.14,0.5877777777777777,0.015555555555555557,-0.84,0.9375,-4.0625,103.8125
1589543832.5760515,-1.6,-2.04,8.47,0.5877777777777777,-0.06333333333333334,-0.8266666666666667,1.625,-1.9375,104.5
1589543832.5858667,-1.6,-2.04,8.47,0.5877777777777777,-0.06333333333333334,-0.8266666666666667,1.625,-1.9375,104.5
1589543832.5914829,-1.51,-2.06,9.31,0.5877777777777777,-0.06333333333333334,-0.8266666666666667,-1.6875,-5.875,103.9375
1589543832.598752,-1.95,-2.27,8.82,0.5877777777777777,-0.06333333333333334,-0.8266666666666667,1.0,-1.3125,104.625
1589543832.610383,-2.04,-2.24,8.13,0.5877777777777777,-0.06333333333333334,-0.8266666666666667,2.375,0.4375,105.625
1589543832.6217313,-2.16,-2.36,8.89,0.5877777777777777,-0.06333333333333334,-0.8266666666666667,-3.0625,-6.75,104.9375
1589543832.6273086,-2.18,-2.34,9.46,0.5422222222222223,-0.13666666666666666,-0.8177777777777778,-1.8125,-6.1875,106.0625
1589543832.6423998,-2.37,-2.33,8.42,0.5422222222222223,-0.13666666666666666,-0.8177777777777778,2.5625,1.5625,108.6875
1589543832.6492019,-2.33,-2.22,7.98,0.5422222222222223,-0.13666666666666666,-0.8177777777777778,0.0,-1.875,109.0625
1589543832.6574385,-2.48,-2.38,9.7,0.5422222222222223,-0.13666666666666666,-0.8177777777777778,-3.375,-9.5,109.0
1589543832.6690032,-2.68,-2.32,8.5,0.5422222222222223,-0.13666666666666666,-0.8177777777777778,0.0625,-3.3125,110.3125
1589543832.6800885,-2.74,-2.24,8.54,0.51,-0.17777777777777778,-0.8388888888888889,1.0625,-1.8125,111.9375
1589543832.6871314,-2.24,-2.01,9.27,0.51,-0.17777777777777778,-0.8388888888888889,-2.125,-7.1875,113.4375
1589543832.7016988,-2.35,-1.95,8.43,0.51,-0.17777777777777778,-0.8388888888888889,-0.8125,-4.4375,115.75
1589543832.70767,-2.77,-2.1,9.13,0.51,-0.17777777777777778,-0.8388888888888889,1.5625,-4.6875,116.1875
1589543832.7198892,-2.84,-2.04,9.17,0.51,-0.17777777777777778,-0.8388888888888889,-0.9375,-6.1875,115.5
1589543832.7288332,-2.6,-1.87,8.92,0.4266666666666667,-0.27111111111111114,-0.8266666666666667,-0.625,-3.875,116.5
1589543832.7383227,-2.51,-1.68,8.77,0.4266666666666667,-0.27111111111111114,-0.8266666666666667,2.875,-3.3125,118.5625
1589543832.7480009,-2.85,-1.87,9.51,0.4266666666666667,-0.27111111111111114,-0.8266666666666667,1.5,-4.6875,117.4375
1589543832.757611,-2.4,-1.6,8.65,0.4266666666666667,-0.27111111111111114,-0.8266666666666667,0.4375,-1.875,116.625
1589543832.765753,-2.4,-1.6,8.65,0.4266666666666667,-0.27111111111111114,-0.8266666666666667,0.4375,-1.875,116.625
1589543832.7725024,-2.45,-1.6,9.54,0.4266666666666667,-0.27111111111111114,-0.8266666666666667,0.0625,-5.375,115.0
1589543832.7877035,-2.84,-1.48,8.31,0.37666666666666665,-0.31222222222222223,-0.7766666666666666,1.125,-2.75,113.0625
1589543832.7967436,-2.84,-1.48,8.31,0.37666666666666665,-0.31222222222222223,-0.7766666666666666,1.125,-2.75,113.0625
1589543832.8025286,-3.07,-1.62,9.1,0.37666666666666665,-0.31222222222222223,-0.7766666666666666,0.25,-5.1875,112.5
1589543832.8099778,-2.95,-1.36,8.49,0.37666666666666665,-0.31222222222222223,-0.7766666666666666,0.6875,-4.25,112.4375
1589543832.8210952,-3.11,-1.4,9.22,0.37666666666666665,-0.31222222222222223,-0.7766666666666666,0.3125,-5.0,111.25
1589543832.827238,-2.75,-1.22,9.03,0.3655555555555556,-0.31555555555555553,-0.7266666666666667,-0.375,-6.3125,108.6875
1589543832.8394933,-3.21,-1.23,9.18,0.3655555555555556,-0.31555555555555553,-0.7266666666666667,0.4375,-5.0625,106.0
1589543832.8481755,-3.25,-1.1,8.84,0.3655555555555556,-0.31555555555555553,-0.7266666666666667,0.875,-4.9375,103.8125
1589543832.8598318,-2.8,-0.97,8.81,0.3655555555555556,-0.31555555555555553,-0.7266666666666667,0.5625,-4.875,103.375
1589543832.874604,-2.65,-0.93,9.22,0.3655555555555556,-0.31555555555555553,-0.7266666666666667,-0.125,-5.75,100.5
1589543832.8800802,-2.9,-0.77,8.81,0.37333333333333335,-0.3322222222222222,-0.72,0.75,-4.0,96.875
1589543832.8882153,-2.68,-0.76,9.11,0.37333333333333335,-0.3322222222222222,-0.72,0.5,-4.875,94.625
1589543832.8981664,-3.16,-0.77,9.2,0.37333333333333335,-0.3322222222222222,-0.72,-0.3125,-5.25,90.5625
1589543832.9091995,-2.64,-0.56,8.71,0.37333333333333335,-0.3322222222222222,-0.72,1.125,-4.125,87.875
1589543832.920682,-2.59,-0.6,9.24,0.37333333333333335,-0.3322222222222222,-0.72,-0.5625,-5.6875,82.3125
1589543832.9283662,-2.72,-0.49,9.07,0.3644444444444445,-0.3477777777777778,-0.7055555555555556,0.1875,-4.0,77.6875
1589543832.9361606,-2.72,-0.49,9.07,0.3644444444444445,-0.3477777777777778,-0.7055555555555556,0.1875,-4.0,77.6875
1589543832.9459453,-2.39,-0.45,8.78,0.3644444444444445,-0.3477777777777778,-0.7055555555555556,0.625,-3.6875,72.6875
1589543832.9522405,-2.55,-0.31,8.68,0.3644444444444445,-0.3477777777777778,-0.7055555555555556,-0.75,-5.25,66.8125
1589543832.9593275,-3.01,-0.56,8.9,0.3644444444444445,-0.3477777777777778,-0.7055555555555556,1.875,-1.0625,62.5
1589543832.970734,-2.34,-0.09,9.03,0.3644444444444445,-0.3477777777777778,-0.7055555555555556,-0.3125,-4.6875,57.875
1589543832.977741,-1.72,0.25,8.88,0.35,-0.3555555555555556,-0.7122222222222222,-1.125,-4.3125,48.25
1589543832.988376,-1.72,0.25,8.88,0.35,-0.3555555555555556,-0.7122222222222222,-1.125,-4.3125,48.25
1589543832.9943054,-2.79,-0.08,8.18,0.35,-0.3555555555555556,-0.7122222222222222,-1.0,-2.9375,26.1875
1589543833.0048535,-2.29,-0.06,9.0,0.35,-0.3555555555555556,-0.7122222222222222,0.625,-0.75,14.75
1589543833.0115256,-1.72,0.09,9.39,0.35,-0.3555555555555556,-0.7122222222222222,-2.875,-4.875,1.75
1589543833.0242667,-2.78,-0.05,8.8,0.35,-0.3555555555555556,-0.7122222222222222,-0.875,-0.4375,-15.625
1589543833.030678,-3.42,-0.13,8.24,0.3388888888888889,-0.3655555555555556,-0.7122222222222222,3.5,6.5,-29.4375
1589543833.0425382,-3.38,-0.4,9.69,0.3388888888888889,-0.3655555555555556,-0.7122222222222222,-1.375,-0.9375,-35.375
1589543833.0489182,-3.24,-0.41,9.73,0.3388888888888889,-0.3655555555555556,-0.7122222222222222,-2.4375,-0.8125,-35.25
1589543833.0590734,-2.4,-0.35,9.19,0.3388888888888889,-0.3655555555555556,-0.7122222222222222,2.5,5.1875,-35.0
1589543833.0709696,-3.13,-0.65,9.75,0.3388888888888889,-0.3655555555555556,-0.7122222222222222,-2.6875,-2.6875,-39.625
1589543833.083216,-3.4,-0.46,8.88,0.3566666666666667,-0.3588888888888889,-0.72,-0.1875,2.8125,-41.5625
1589543833.0891259,-2.95,-0.44,9.26,0.3566666666666667,-0.3588888888888889,-0.72,0.9375,2.875,-38.6875
1589543833.0991776,-3.5,-0.49,8.92,0.3566666666666667,-0.3588888888888889,-0.72,-2.0625,-0.1875,-38.125
1589543833.1092904,-2.82,-0.43,9.12,0.3566666666666667,-0.3588888888888889,-0.72,-1.1875,0.875,-36.5
1589543833.1213565,-2.91,-0.42,9.02,0.3566666666666667,-0.3588888888888889,-0.72,-0.4375,1.375,-35.3125
1589543833.1295338,-2.9,-0.5,9.12,0.3711111111111111,-0.38,-0.72,-0.4375,2.0625,-35.875
1589543833.1411347,-2.84,-0.46,9.22,0.3711111111111111,-0.38,-0.72,-0.8125,0.4375,-34.5625
1589543833.1541774,-3.15,-0.48,8.74,0.3711111111111111,-0.38,-0.72,-0.6875,1.8125,-36.75
1589543833.1606634,-2.93,-0.49,8.7,0.3711111111111111,-0.38,-0.72,-1.3125,1.3125,-41.125
1589543833.1726258,-2.97,-0.62,9.06,0.3711111111111111,-0.38,-0.72,-2.125,-0.625,-44.0
1589543833.1806226,-3.35,-0.63,9.01,0.38222222222222224,-0.4188888888888889,-0.7333333333333333,-0.625,2.375,-45.125
1589543833.1903858,-3.12,-0.68,9.27,0.38222222222222224,-0.4188888888888889,-0.7333333333333333,-0.5625,2.3125,-47.1875
1589543833.200546,-2.12,-0.47,8.48,0.38222222222222224,-0.4188888888888889,-0.7333333333333333,-0.4375,2.8125,-49.875
1589543833.2139952,-2.31,-0.66,9.24,0.38222222222222224,-0.4188888888888889,-0.7333333333333333,-0.4375,2.8125,-58.125
1589543833.2220426,-3.18,-0.85,9.26,0.38222222222222224,-0.4188888888888889,-0.7333333333333333,-2.3125,1.5,-68.9375
1589543833.2336993,-3.26,-0.9,9.29,0.3111111111111111,-0.5811111111111111,-0.6911111111111111,-0.375,4.875,-74.875
1589543833.2408268,-1.94,-0.83,9.21,0.3111111111111111,-0.5811111111111111,-0.6911111111111111,0.5625,6.4375,-77.125
1589543833.254325,-2.15,-0.96,9.4,0.3111111111111111,-0.5811111111111111,-0.6911111111111111,-2.5,0.6875,-88.6875
1589543833.2606444,-2.54,-0.99,8.57,0.3111111111111111,-0.5811111111111111,-0.6911111111111111,-0.8125,5.0,-101.4375
1589543833.2720385,-3.43,-1.35,9.03,0.3111111111111111,-0.5811111111111111,-0.6911111111111111,-0.6875,6.0,-111.0625
1589543833.2803097,-2.68,-1.27,8.58,0.31222222222222223,-1.2066666666666668,-0.10666666666666667,-0.625,6.6875,-114.5625
1589543833.2920704,-3.5,-1.69,9.88,0.31222222222222223,-1.2066666666666668,-0.10666666666666667,-1.875,4.3125,-117.375
1589543833.304932,-2.99,-1.5,8.46,0.31222222222222223,-1.2066666666666668,-0.10666666666666667,-0.25,6.25,-119.25
1589543833.3110461,-2.88,-1.61,8.09,0.31222222222222223,-1.2066666666666668,-0.10666666666666667,0.5625,7.5,-121.125
1589543833.3260086,-2.24,-1.64,8.42,0.31222222222222223,-1.2066666666666668,-0.10666666666666667,1.0,9.375,-126.0
1589543833.3323257,-2.7,-2.11,10.34,0.88,-0.6755555555555556,-0.67,-4.9375,-0.375,-136.0625
1589543833.3403294,-2.85,-2.1,9.08,0.88,-0.6755555555555556,-0.67,-1.125,5.875,-141.75
1589543833.3506336,-3.09,-2.39,9.01,0.88,-0.6755555555555556,-0.67,2.125,11.1875,-146.5
1589543833.365493,-3.52,-2.72,9.9,0.88,-0.6755555555555556,-0.67,-3.125,4.125,-154.5
1589543833.3725793,-1.92,-2.24,8.14,0.88,-0.6755555555555556,-0.67,-0.375,9.25,-156.125
1589543833.3853714,-2.2,-2.73,9.36,0.6522222222222223,-0.31555555555555553,-0.7766666666666666,1.25,9.0,-163.25
1589543833.3912857,-1.8,-2.58,8.6,0.6522222222222223,-0.31555555555555553,-0.7766666666666666,-2.875,6.3125,-177.625
1589543833.4052675,-2.06,-2.92,9.15,0.6522222222222223,-0.31555555555555553,-0.7766666666666666,-2.25,7.625,-189.4375
1589543833.4118311,-2.01,-3.06,9.41,0.6522222222222223,-0.31555555555555553,-0.7766666666666666,-0.5625,8.75,-199.6875
1589543833.422627,-1.79,-3.26,9.19,0.6522222222222223,-0.31555555555555553,-0.7766666666666666,1.125,13.0625,-208.125
1589543833.4306026,-1.91,-3.58,9.77,0.6,-0.15222222222222226,-0.7833333333333333,-3.75,5.5,-218.1875
1589543833.4422936,-2.0,-3.6,8.71,0.6,-0.15222222222222226,-0.7833333333333333,-1.375,10.0,-224.6875
1589543833.4510336,-2.08,-3.79,9.05,0.6,-0.15222222222222226,-0.7833333333333333,2.0625,14.1875,-228.0
1589543833.4617472,-2.15,-3.79,9.22,0.6,-0.15222222222222226,-0.7833333333333333,-3.0,8.6875,-231.125
1589543833.4731538,-2.16,-3.86,8.87,0.6,-0.15222222222222226,-0.7833333333333333,-2.5625,8.5625,-229.6875
1589543833.4814172,-2.29,-3.92,8.69,0.6233333333333333,-0.06222222222222223,-0.7766666666666666,0.25,11.5,-224.0625
1589543833.4918606,-2.08,-3.93,9.02,0.6233333333333333,-0.06222222222222223,-0.7766666666666666,-1.0,10.125,-217.3125
1589543833.5011034,-1.93,-3.85,8.53,0.6233333333333333,-0.06222222222222223,-0.7766666666666666,-1.5,9.625,-209.3125
1589543833.5072198,-1.93,-3.85,8.53,0.6233333333333333,-0.06222222222222223,-0.7766666666666666,-1.5,9.625,-209.3125
1589543833.518364,-2.16,-4.2,8.93,0.6233333333333333,-0.06222222222222223,-0.7766666666666666,-0.25,9.875,-200.75
1589543833.523936,-1.86,-4.0,8.54,0.6233333333333333,-0.06222222222222223,-0.7766666666666666,-1.8125,7.8125,-192.9375
1589543833.535705,-1.85,-4.11,9.24,0.65,0.03,-0.8044444444444444,-0.8125,6.625,-175.875
1589543833.5428162,-1.95,-4.04,8.75,0.65,0.03,-0.8044444444444444,-0.8125,6.625,-175.875
1589543833.5560765,-1.85,-3.89,8.7,0.65,0.03,-0.8044444444444444,-0.875,8.0625,-167.4375
1589543833.5627284,-2.15,-4.38,9.04,0.65,0.03,-0.8044444444444444,-0.375,8.4375,-144.8125
1589543833.575599,-1.85,-4.09,8.03,0.65,0.03,-0.8044444444444444,0.9375,7.1875,-130.1875
1589543833.581573,-1.81,-4.19,9.1,0.62,0.1288888888888889,-0.7766666666666666,-0.9375,1.8125,-116.5625
1589543833.5949714,-1.83,-4.12,9.19,0.62,0.1288888888888889,-0.7766666666666666,-1.375,3.0625,-103.0625
1589543833.6018474,-27.89,-22.12,6.26,0.62,0.1288888888888889,-0.7766666666666666,4.875,45.5625,-107.9375
1589543833.6156404,1.74,1.5,-0.41,0.62,0.1288888888888889,-0.7766666666666666,-72.125,-50.0,-409.375
1589543833.6239467,-0.82,0.11,1.53,0.62,0.1288888888888889,-0.7766666666666666,-58.75,9.8125,-316.0
1589543833.6334536,-0.27,-1.27,4.79,0.5966666666666667,0.19666666666666666,-0.7555555555555555,49.0,27.75,-274.9375
1589543833.6421022,-0.89,-2.35,12.08,0.5966666666666667,0.19666666666666666,-0.7555555555555555,82.0625,36.75,-252.5625
1589543833.6519074,-1.4,-1.0,5.42,0.5966666666666667,0.19666666666666666,-0.7555555555555555,-3.5625,14.5,-177.5
1589543833.6575744,-1.4,-1.0,5.42,0.5966666666666667,0.19666666666666666,-0.7555555555555555,-3.5625,14.5,-177.5
1589543833.6646874,-1.66,-2.45,8.04,0.5966666666666667,0.19666666666666666,-0.7555555555555555,-21.875,-12.5625,-103.25
1589543833.6760886,1.46,-1.64,9.59,0.5966666666666667,0.19666666666666666,-0.7555555555555555,0.9375,2.5,-64.9375
1589543833.687864,0.49,-2.12,6.82,0.5666666666666667,0.3388888888888889,-0.76,3.5,8.625,-51.8125
1589543833.693985,0.65,-2.86,9.61,0.5666666666666667,0.3388888888888889,-0.76,-3.6875,-3.3125,-38.25
1589543833.7077332,-0.35,-2.64,8.05,0.5666666666666667,0.3388888888888889,-0.76,1.625,4.8125,-24.5625
1589543833.7142105,-0.16,-2.88,9.46,0.5666666666666667,0.3388888888888889,-0.76,1.125,0.0625,-6.75
1589543833.724743,-0.2,-2.95,8.58,0.5666666666666667,0.3388888888888889,-0.76,-1.0625,0.5,10.625
1589543833.731891,0.11,-2.85,8.68,0.5344444444444445,0.36,-0.7388888888888889,-0.4375,-1.9375,23.625
1589543833.737973,0.11,-2.85,8.68,0.5344444444444445,0.36,-0.7388888888888889,-0.4375,-1.9375,23.625
1589543833.7524812,0.21,-2.77,9.0,0.5344444444444445,0.36,-0.7388888888888889,0.875,-1.9375,33.4375
1589543833.7636325,6.81,-24.01,6.72,0.5344444444444445,0.36,-0.7388888888888889,-5.4375,-12.0,-8.3125
1589543833.7748494,-1.89,-0.55,10.7,0.5344444444444445,0.36,-0.7388888888888889,-14.5,5.125,-107.4375
1589543833.78645,-0.47,-1.75,6.44,0.5466666666666666,0.37666666666666665,-0.7533333333333333,24.6875,27.625,-87.5
1589543833.7926118,-1.13,-2.56,8.42,0.5466666666666666,0.37666666666666665,-0.7533333333333333,-0.25,-0.125,-55.875
1589543833.8030462,-0.71,-2.68,9.78,0.5466666666666666,0.37666666666666665,-0.7533333333333333,-11.875,-5.9375,-28.125
1589543833.8133852,-1.35,-1.56,9.54,0.5466666666666666,0.37666666666666665,-0.7533333333333333,-3.3125,0.75,-39.375
1589543833.8247635,0.06,-5.29,8.8,0.5466666666666666,0.37666666666666665,-0.7533333333333333,8.75,6.8125,-33.9375
1589543833.8332324,-0.52,-4.54,8.47,0.5277777777777778,0.4033333333333333,-0.7466666666666667,0.4375,2.25,-20.4375
1589543833.8451939,-0.07,-4.95,8.63,0.5277777777777778,0.4033333333333333,-0.7466666666666667,-4.5,-1.625,-5.75
1589543833.852612,-0.02,-3.93,8.49,0.5277777777777778,0.4033333333333333,-0.7466666666666667,2.6875,1.75,-0.0625
1589543833.8646302,0.12,-4.09,8.8,0.5277777777777778,0.4033333333333333,-0.7466666666666667,2.1875,0.0625,-0.0625
1589543833.8807466,0.25,-4.09,9.0,0.5277777777777778,0.4033333333333333,-0.7466666666666667,-1.1875,-0.0625,0.0625
1589543833.8868823,0.2,-4.18,8.81,0.5155555555555555,0.4088888888888889,-0.7388888888888889,-1.125,0.0,-0.125
1589543833.8978455,0.14,-4.23,8.76,0.5155555555555555,0.4088888888888889,-0.7388888888888889,0.125,0.125,0.0
1589543833.904546,0.14,-4.15,8.66,0.5155555555555555,0.4088888888888889,-0.7388888888888889,0.875,0.3125,0.0
1589543833.9185572,0.14,-4.15,8.76,0.5155555555555555,0.4088888888888889,-0.7388888888888889,1.0625,0.3125,0.0
1589543833.9265885,0.15,-4.15,8.86,0.5155555555555555,0.4088888888888889,-0.7388888888888889,-0.125,-0.0625,-0.0625
1589543833.9386466,0.14,-4.17,8.81,0.52,0.4033333333333333,-0.7744444444444445,-1.125,-0.125,0.125
1589543833.9447155,0.14,-4.26,8.77,0.52,0.4033333333333333,-0.7744444444444445,-0.8125,-0.0625,0.0
1589543833.956395,0.08,-4.14,8.6,0.52,0.4033333333333333,-0.7744444444444445,0.5625,0.0,0.0625
1589543833.964965,0.17,-4.11,8.85,0.52,0.4033333333333333,-0.7744444444444445,0.75,-0.5,-0.0625
1589543833.9770553,0.14,-4.13,8.82,0.52,0.4033333333333333,-0.7744444444444445,0.0,-0.125,0.0
1589543833.9846756,0.14,-4.17,8.84,0.5077777777777778,0.4033333333333333,-0.7677777777777778,-0.5625,0.125,-0.0625
1589543833.9970846,0.13,-4.21,8.71,0.5077777777777778,0.4033333333333333,-0.7677777777777778,-0.4375,0.125,0.125
1589543834.0043824,0.16,-4.18,8.69,0.5077777777777778,0.4033333333333333,-0.7677777777777778,0.1875,0.125,0.0
1589543834.0168948,0.1,-4.14,8.68,0.5077777777777778,0.4033333333333333,-0.7677777777777778,0.75,0.1875,0.0625
1589543834.0320122,0.15,-4.12,8.87,0.5077777777777778,0.4033333333333333,-0.7677777777777778,0.5,-0.125,-0.125
1589543834.0379574,0.12,-4.16,8.76,0.52,0.3955555555555556,-0.7677777777777778,-0.3125,0.1875,0.0625
1589543834.0478268,0.17,-4.21,8.79,0.52,0.3955555555555556,-0.7677777777777778,-0.75,-0.1875,0.125
1589543834.0547988,0.14,-4.2,8.65,0.52,0.3955555555555556,-0.7677777777777778,-0.0625,0.0625,0.0
1589543834.0688431,0.12,-4.14,8.78,0.52,0.3955555555555556,-0.7677777777777778,0.5625,0.0,0.1875
1589543834.0774062,0.13,-4.13,8.82,0.52,0.3955555555555556,-0.7677777777777778,0.75,0.0625,0.125
1589543834.0905464,0.17,-4.16,8.84,0.52,0.4088888888888889,-0.7533333333333333,-0.1875,-0.125,0.0625
1589543834.0969315,0.13,-4.17,8.78,0.52,0.4088888888888889,-0.7533333333333333,-0.625,0.0,0.0625
1589543834.108857,0.14,-4.21,8.65,0.52,0.4088888888888889,-0.7533333333333333,-0.125,0.0625,0.0
1589543834.115806,0.13,-4.18,8.72,0.52,0.4088888888888889,-0.7533333333333333,0.375,-0.125,0.0
1589543834.128431,0.15,-4.16,8.82,0.52,0.4088888888888889,-0.7533333333333333,0.625,0.125,0.0625
1589543834.1352162,0.14,-4.16,8.86,0.5277777777777778,0.4033333333333333,-0.76,0.0,0.0,-0.0625
1589543834.1458704,0.13,-4.17,8.78,0.5277777777777778,0.4033333333333333,-0.76,-0.6875,0.125,-0.0625
1589543834.1561048,0.13,-4.2,8.64,0.5277777777777778,0.4033333333333333,-0.76,-0.5625,-0.125,-0.0625
1589543834.1681318,0.13,-4.18,8.69,0.5277777777777778,0.4033333333333333,-0.76,0.125,-0.0625,-0.0625
1589543834.1839561,0.15,-4.15,8.82,0.5277777777777778,0.4033333333333333,-0.76,0.5625,-0.125,-0.0625
1589543834.1897109,0.13,-4.13,8.85,0.5022222222222222,0.3955555555555556,-0.76,0.25,0.0,0.125
1589543834.2012355,0.13,-4.18,8.82,0.5022222222222222,0.3955555555555556,-0.76,-0.4375,0.0,0.25
1589543834.2077177,0.14,-4.2,8.68,0.5022222222222222,0.3955555555555556,-0.76,-0.5,0.0625,-0.0625
1589543834.220625,0.14,-4.18,8.75,0.5022222222222222,0.3955555555555556,-0.76,0.1875,-0.125,0.0625
1589543834.2280734,0.15,-4.14,8.78,0.5022222222222222,0.3955555555555556,-0.76,0.625,0.0625,0.0
1589543834.2412872,0.15,-4.13,8.84,0.5077777777777778,0.4033333333333333,-0.7466666666666667,0.4375,0.125,0.125
1589543834.2474005,0.14,-4.16,8.73,0.5077777777777778,0.4033333333333333,-0.7466666666666667,-0.3125,-0.0625,0.0
1589543834.2567625,0.15,-4.2,8.67,0.5077777777777778,0.4033333333333333,-0.7466666666666667,-0.625,0.0,0.0625
1589543834.2657144,0.11,-4.2,8.68,0.5077777777777778,0.4033333333333333,-0.7466666666666667,-0.1875,-0.0625,0.0625
1589543834.278242,0.14,-4.17,8.76,0.5077777777777778,0.4033333333333333,-0.7466666666666667,0.5,-0.0625,-0.0625
1589543834.2861214,0.14,-4.12,8.83,0.5277777777777778,0.3955555555555556,-0.7533333333333333,0.5,0.0625,-0.0625
1589543834.2999113,0.14,-4.14,8.85,0.5277777777777778,0.3955555555555556,-0.7533333333333333,0.0,0.125,0.0625
1589543834.3058405,0.14,-4.18,8.67,0.5277777777777778,0.3955555555555556,-0.7533333333333333,-0.5625,0.0625,0.125
1589543834.3162074,0.14,-4.2,8.73,0.5277777777777778,0.3955555555555556,-0.7533333333333333,-0.3125,-0.0625,0.0625
1589543834.328219,0.15,-4.18,8.8,0.5277777777777778,0.3955555555555556,-0.7533333333333333,0.3125,0.0,-0.0625
1589543834.339832,0.15,-4.13,8.81,0.52,0.4033333333333333,-0.7533333333333333,0.5625,-0.1875,0.125
1589543834.346433,0.15,-4.14,8.84,0.52,0.4033333333333333,-0.7533333333333333,0.1875,0.0625,0.0
1589543834.3561854,0.14,-4.18,8.67,0.52,0.4033333333333333,-0.7533333333333333,-0.375,0.0,0.1875
1589543834.3664265,0.14,-4.18,8.72,0.52,0.4033333333333333,-0.7533333333333333,-0.4375,0.0625,0.0
1589543834.3790755,0.13,-4.16,8.76,0.52,0.4033333333333333,-0.7533333333333333,0.0625,0.0,0.0625
1589543834.3860295,0.15,-4.15,8.82,0.5155555555555555,0.4033333333333333,-0.7533333333333333,0.5,-0.1875,0.0625
1589543834.3977768,0.15,-4.15,8.8,0.5155555555555555,0.4033333333333333,-0.7533333333333333,0.4375,-0.1875,0.125
1589543834.4083645,0.15,-4.17,8.7,0.5155555555555555,0.4033333333333333,-0.7533333333333333,-0.1875,0.0625,0.0
1589543834.4159875,0.13,-4.19,8.68,0.5155555555555555,0.4033333333333333,-0.7533333333333333,-0.1875,0.0625,0.0
1589543834.4294994,0.14,-4.19,8.76,0.5155555555555555,0.4033333333333333,-0.7533333333333333,0.0,0.1875,0.0
1589543834.4364748,0.15,-4.17,8.82,0.5422222222222223,0.4088888888888889,-0.7533333333333333,0.4375,0.0625,0.0
1589543834.4506931,0.14,-4.15,8.83,0.5422222222222223,0.4088888888888889,-0.7533333333333333,0.375,-0.0625,-0.0625
1589543834.4565742,0.14,-4.17,8.68,0.5422222222222223,0.4088888888888889,-0.7533333333333333,-0.1875,-0.0625,0.0
1589543834.4665213,0.15,-4.2,8.73,0.5422222222222223,0.4088888888888889,-0.7533333333333333,-0.375,0.0,0.125
1589543834.4791644,0.16,-4.18,8.76,0.5422222222222223,0.4088888888888889,-0.7533333333333333,-0.3125,0.125,0.0
1589543834.490223,0.15,-4.18,8.78,0.5277777777777778,0.4033333333333333,-0.7388888888888889,0.25,-0.0625,0.0
1589543834.4967828,0.15,-4.16,8.78,0.5277777777777778,0.4033333333333333,-0.7388888888888889,0.4375,-0.1875,0.1875
1589543834.5068862,0.14,-4.16,8.7,0.5277777777777778,0.4033333333333333,-0.7388888888888889,0.0625,0.0,0.1875
1589543834.5169425,0.14,-4.19,8.71,0.5277777777777778,0.4033333333333333,-0.7388888888888889,-0.3125,-0.125,0.0625
1589543834.5293894,0.15,-4.17,8.73,0.5277777777777778,0.4033333333333333,-0.7388888888888889,-0.1875,-0.0625,0.0
1589543834.5368078,0.13,-4.17,8.83,0.5077777777777778,0.3955555555555556,-0.7466666666666667,0.0625,-0.1875,0.1875
1589543834.5484467,0.14,-4.13,8.83,0.5077777777777778,0.3955555555555556,-0.7466666666666667,0.375,0.25,-0.0625
1589543834.5576339,0.13,-4.15,8.73,0.5077777777777778,0.3955555555555556,-0.7466666666666667,0.125,0.0,0.0625
1589543834.5695682,0.15,-4.18,8.74,0.5077777777777778,0.3955555555555556,-0.7466666666666667,-0.3125,-0.125,0.1875
1589543834.5804427,0.12,-4.19,8.75,0.5077777777777778,0.3955555555555556,-0.7466666666666667,-0.25,0.0,0.0625
1589543834.5871124,0.13,-4.17,8.79,0.5155555555555555,0.3955555555555556,-0.7466666666666667,-0.125,0.0,0.125
1589543834.6019487,0.14,-4.15,8.8,0.5155555555555555,0.3955555555555556,-0.7466666666666667,0.375,0.0625,0.0
1589543834.607923,0.13,-4.14,8.71,0.5155555555555555,0.3955555555555556,-0.7466666666666667,0.25,0.0625,0.0625
1589543834.6170402,0.15,-4.17,8.72,0.5155555555555555,0.3955555555555556,-0.7466666666666667,-0.0625,-0.0625,0.0
1589543834.6300097,0.12,-4.18,8.75,0.5155555555555555,0.3955555555555556,-0.7466666666666667,-0.25,-0.125,0.125
