time,acc_x,acc_y,acc_z,mag_x,mag_y,mag_z,gyr_x,gyr_y,gyr_z
1589543946.6908991,0.18,-4.18,8.76,0.5311111111111111,0.32,-0.7144444444444444,0.5,1.0625,0.125
1589543946.696916,0.2,-4.18,8.82,0.5311111111111111,0.32,-0.7144444444444444,0.375,0.75,0.1875
1589543946.703467,0.17,-4.17,8.86,0.5455555555555556,0.2933333333333333,-0.6933333333333334,0.25,0.5,0.25
1589543946.7159572,0.2,-4.15,8.82,0.5455555555555556,0.2933333333333333,-0.6933333333333334,0.125,0.4375,0.25
1589543946.7221804,0.17,-4.16,8.74,0.5455555555555556,0.2933333333333333,-0.6933333333333334,-0.125,0.125,0.125
1589543946.7359946,0.18,-4.16,8.79,0.5455555555555556,0.2933333333333333,-0.6933333333333334,-0.0625,-0.0625,0.0625
1589543946.7449198,0.17,-4.16,8.79,0.5455555555555556,0.2933333333333333,-0.6933333333333334,-0.125,-0.4375,0.125
1589543946.756361,0.18,-4.16,8.83,0.5511111111111111,0.3,-0.6855555555555556,-0.1875,-0.5,0.0625
1589543946.762084,0.19,-4.18,8.84,0.5511111111111111,0.3,-0.6855555555555556,-0.4375,-0.625,0.0625
1589543946.7729912,0.2,-4.18,8.72,0.5511111111111111,0.3,-0.6855555555555556,-0.5625,-0.6875,0.0
1589543946.7822256,0.18,-4.17,8.77,0.5511111111111111,0.3,-0.6855555555555556,-0.4375,-0.6875,0.0625
1589543946.7951698,0.2,-4.17,8.83,0.5511111111111111,0.3,-0.6855555555555556,-0.625,-0.6875,-0.125
1589543946.802568,0.19,-4.17,8.87,0.5377777777777778,0.31222222222222223,-0.6933333333333334,-0.5625,-0.375,-0.125
1589543946.8134446,0.21,-4.18,8.84,0.5377777777777778,0.31222222222222223,-0.6933333333333334,-0.5625,-0.8125,-0.125
1589543946.8223612,0.2,-4.19,8.73,0.5377777777777778,0.31222222222222223,-0.6933333333333334,-0.5625,-0.625,0.125
1589543946.8335965,0.19,-4.18,8.73,0.5377777777777778,0.31222222222222223,-0.6933333333333334,-0.4375,-0.5625,-0.0625
1589543946.8504515,0.22,-4.18,8.8,0.5377777777777778,0.31222222222222223,-0.6933333333333334,-0.5,-0.9375,-0.125
1589543946.8562481,0.21,-4.18,8.82,0.5311111111111111,0.30666666666666664,-0.6933333333333334,-0.3125,-0.5625,0.0625
1589543946.862943,0.22,-4.17,8.85,0.5311111111111111,0.30666666666666664,-0.6933333333333334,-0.1875,-0.375,0.0
1589543946.8745205,0.2,-4.18,8.75,0.5311111111111111,0.30666666666666664,-0.6933333333333334,-0.25,-0.25,0.0
1589543946.8830533,0.2,-4.16,8.78,0.5311111111111111,0.30666666666666664,-0.6933333333333334,-0.3125,0.0,0.0
1589543946.8953238,0.21,-4.16,8.81,0.5311111111111111,0.30666666666666664,-0.6933333333333334,-0.25,-0.125,-0.0625
1589543946.9073124,0.2,-4.17,8.84,0.5311111111111111,0.3,-0.6855555555555556,-0.25,-0.125,-0.0625
1589543946.9137142,0.2,-4.19,8.81,0.5311111111111111,0.3,-0.6855555555555556,-0.5625,-0.375,-0.1875
1589543946.9261699,0.2,-4.19,8.76,0.5311111111111111,0.3,-0.6855555555555556,-0.5,-0.4375,-0.25
1589543946.9327874,0.2,-4.2,8.77,0.5311111111111111,0.3,-0.6855555555555556,-0.5,-0.625,-0.125
1589543946.9485464,0.22,-4.18,8.83,0.5311111111111111,0.3,-0.6855555555555556,-0.4375,-0.375,-0.1875
1589543946.9543376,0.2,-4.19,8.86,0.5311111111111111,0.3,-0.6855555555555556,-0.375,-0.4375,-0.1875
1589543946.9649415,0.23,-4.19,8.82,0.5311111111111111,0.3,-0.6855555555555556,-0.125,-0.25,-0.1875
1589543946.973134,0.21,-4.18,8.73,0.5311111111111111,0.3,-0.6855555555555556,-0.0625,-0.125,-0.125
1589543946.9844332,0.21,-4.18,8.78,0.5311111111111111,0.3,-0.6855555555555556,-0.0625,-0.125,-0.3125
1589543946.9984195,0.2,-4.17,8.81,0.5311111111111111,0.3,-0.6855555555555556,0.0,0.1875,-0.125
1589543947.0042894,0.2,-4.18,8.82,0.5066666666666667,0.32,-0.6855555555555556,0.0625,0.25,-0.1875
1589543947.0195491,0.2,-4.18,8.86,0.5066666666666667,0.32,-0.6855555555555556,0.0625,0.0625,-0.1875
1589543947.025724,0.22,-4.19,8.78,0.5066666666666667,0.32,-0.6855555555555556,-0.0625,0.0,-0.0625
1589543947.0339992,0.2,-4.18,8.81,0.5066666666666667,0.32,-0.6855555555555556,0.0,-0.125,-0.1875
1589543947.0464404,0.2,-4.16,8.8,0.5066666666666667,0.32,-0.6855555555555556,0.25,0.0625,0.0625
1589543947.0585086,0.2,-4.18,8.84,0.5377777777777778,0.2933333333333333,-0.7,0.0625,-0.125,-0.125
1589543947.0642455,0.2,-4.19,8.8,0.5377777777777778,0.2933333333333333,-0.7,0.0625,0.25,0.0
1589543947.0780392,0.2,-4.18,8.74,0.5377777777777778,0.2933333333333333,-0.7,-0.125,0.3125,0.125
1589543947.0843446,0.21,-4.18,8.74,0.5377777777777778,0.2933333333333333,-0.7,-0.1875,0.25,0.0
1589543947.0970573,0.22,-4.19,8.81,0.5377777777777778,0.2933333333333333,-0.7,0.0,0.3125,0.1875
1589543947.1035786,0.22,-4.18,8.84,0.5377777777777778,0.30666666666666664,-0.6933333333333334,0.125,0.5,0.0
1589543947.1139514,0.21,-4.16,8.82,0.5377777777777778,0.30666666666666664,-0.6933333333333334,0.1875,0.5,-0.0625
1589543947.1252468,0.2,-4.17,8.75,0.5377777777777778,0.30666666666666664,-0.6933333333333334,0.0625,0.5625,0.0625
1589543947.135593,0.19,-4.18,8.8,0.5377777777777778,0.30666666666666664,-0.6933333333333334,0.25,0.3125,-0.1875
1589543947.1474853,0.19,-4.18,8.81,0.5377777777777778,0.30666666666666664,-0.6933333333333334,0.25,0.5,0.0625
1589543947.1589994,0.17,-4.17,8.82,0.5188888888888888,0.3,-0.7,0.125,0.4375,0.0625
1589543947.1659515,0.21,-4.18,8.82,0.5188888888888888,0.3,-0.7,0.0625,-0.125,0.0625
1589543947.1771376,0.17,-4.15,8.69,0.5188888888888888,0.3,-0.7,0.0625,0.125,0.0625
1589543947.184444,0.21,-4.17,8.78,0.5188888888888888,0.3,-0.7,-0.375,0.0625,-0.125
1589543947.1973882,0.21,-4.17,8.78,0.5188888888888888,0.3,-0.7,-0.3125,0.125,-0.125
1589543947.2045653,0.21,-4.2,8.82,0.5111111111111111,0.31222222222222223,-0.6855555555555556,-0.375,0.0,-0.0625
1589543947.2165756,0.19,-4.21,8.84,0.5111111111111111,0.31222222222222223,-0.6855555555555556,-0.3125,-0.0625,0.125
1589543947.2294428,0.18,-4.18,8.68,0.5111111111111111,0.31222222222222223,-0.6855555555555556,-0.25,0.0625,-0.0625
1589543947.2361195,0.15,-4.14,8.7,0.5111111111111111,0.31222222222222223,-0.6855555555555556,-0.8125,-0.4375,-0.125
1589543947.248234,0.33,-4.06,9.04,0.5111111111111111,0.31222222222222223,-0.6855555555555556,-1.375,-1.5625,-0.0625
1589543947.2561712,0.18,-3.89,8.77,0.5377777777777778,0.31222222222222223,-0.6933333333333334,-0.625,-0.4375,-0.125
1589543947.2682164,0.21,-3.79,8.79,0.5377777777777778,0.31222222222222223,-0.6933333333333334,-0.6875,-0.5625,-0.125
1589543947.2748384,0.17,-3.69,8.72,0.5377777777777778,0.31222222222222223,-0.6933333333333334,-0.9375,-1.0,-0.8125
1589543947.2851539,0.12,-3.61,8.8,0.5377777777777778,0.31222222222222223,-0.6933333333333334,-0.5,-0.5,-1.875
1589543947.296418,0.09,-3.54,8.88,0.5377777777777778,0.31222222222222223,-0.6933333333333334,-0.75,-0.625,-3.3125
1589543947.3049242,0.0,-3.46,8.89,0.5311111111111111,0.30666666666666664,-0.6933333333333334,-0.9375,-0.5625,-4.9375
1589543947.3147292,-0.52,-3.37,8.74,0.5311111111111111,0.30666666666666664,-0.6933333333333334,-1.1875,-0.25,-6.125
1589543947.3248346,-0.11,-3.48,9.06,0.5311111111111111,0.30666666666666664,-0.6933333333333334,-1.4375,-0.8125,-5.3125
1589543947.3347266,-0.06,-3.43,8.66,0.5311111111111111,0.30666666666666664,-0.6933333333333334,-0.5625,0.9375,-2.5
1589543947.34775,-0.01,-3.52,9.1,0.5311111111111111,0.30666666666666664,-0.6933333333333334,-0.9375,-0.4375,0.625
1589543947.3559446,-0.18,-3.44,8.65,0.5311111111111111,0.3,-0.7,-0.8125,-0.1875,4.375
1589543947.3654833,-0.21,-3.15,8.76,0.5311111111111111,0.3,-0.7,-0.6875,-0.5,7.875
1589543947.3776994,-0.24,-2.65,9.03,0.5311111111111111,0.3,-0.7,-1.9375,-2.5,11.5625
1589543947.3852336,-0.11,-3.01,8.58,0.5311111111111111,0.3,-0.7,-0.4375,0.0,16.0
1589543947.4022868,0.02,-3.34,9.01,0.5311111111111111,0.3,-0.7,-0.875,-1.0,20.0625
1589543947.4085991,0.06,-3.3,8.9,0.5244444444444445,0.31222222222222223,-0.7,-1.5,-1.6875,23.25
1589543947.4155846,0.33,-3.04,8.84,0.5244444444444445,0.31222222222222223,-0.7,-1.0,-1.25,24.5
1589543947.4270885,0.23,-3.24,8.43,0.5244444444444445,0.31222222222222223,-0.7,2.625,0.5,29.1875
1589543947.4382935,0.25,-3.34,8.92,0.5244444444444445,0.31222222222222223,-0.7,0.25,-1.875,35.125
1589543947.4471636,0.25,-3.27,8.93,0.5244444444444445,0.31222222222222223,-0.7,-0.5625,-2.1875,40.1875
1589543947.457055,0.21,-3.42,8.81,0.5511111111111111,0.3,-0.7066666666666667,1.25,-1.0625,44.0
1589543947.4666162,0.2,-3.38,8.93,0.5511111111111111,0.3,-0.7066666666666667,-0.25,-2.625,46.4375
1589543947.4767053,0.15,-3.45,8.77,0.5511111111111111,0.3,-0.7066666666666667,0.0,-2.125,47.6875
1589543947.4870625,0.04,-3.43,8.84,0.5511111111111111,0.3,-0.7066666666666667,0.625,-1.875,49.125
1589543947.4985974,0.01,-3.45,8.93,0.5511111111111111,0.3,-0.7066666666666667,0.125,-2.375,50.75
1589543947.505987,-0.07,-3.49,8.86,0.5577777777777778,0.2933333333333333,-0.7,0.25,-2.5,52.375
1589543947.516,-0.15,-3.53,8.81,0.5577777777777778,0.2933333333333333,-0.7,0.1875,-2.4375,54.4375
1589543947.5298731,-0.14,-3.5,8.81,0.5577777777777778,0.2933333333333333,-0.7,-0.0625,-2.8125,57.0625
1589543947.5387325,-0.13,-3.48,8.73,0.5577777777777778,0.2933333333333333,-0.7,0.1875,-2.9375,59.125
1589543947.5531564,-0.19,-3.55,8.93,0.5577777777777778,0.2933333333333333,-0.7,0.25,-2.9375,60.8125
1589543947.5592318,-0.28,-3.54,8.9,0.5644444444444444,0.2733333333333333,-0.6933333333333334,0.3125,-2.9375,62.375
1589543947.572044,-0.35,-3.59,8.87,0.5644444444444444,0.2733333333333333,-0.6933333333333334,0.1875,-3.125,64.4375
1589543947.5787725,-0.34,-3.6,8.72,0.5644444444444444,0.2733333333333333,-0.6933333333333334,0.375,-2.9375,66.625
1589543947.5880175,-0.38,-3.61,8.84,0.5644444444444444,0.2733333333333333,-0.6933333333333334,0.1875,-3.25,68.6875
1589543947.5991054,-0.41,-3.51,8.81,0.5644444444444444,0.2733333333333333,-0.6933333333333334,0.5,-3.25,70.75
1589543947.611245,-0.42,-3.57,8.83,0.5777777777777777,0.2533333333333333,-0.7144444444444444,0.625,-3.0625,72.375
1589543947.6176908,-0.42,-3.71,9.01,0.5777777777777777,0.2533333333333333,-0.7144444444444444,-0.125,-3.9375,73.4375
1589543947.6313572,-0.38,-3.57,8.69,0.5777777777777777,0.2533333333333333,-0.7144444444444444,0.0625,-3.4375,74.4375
1589543947.6374645,-0.49,-3.61,8.9,0.5777777777777777,0.2533333333333333,-0.7144444444444444,0.0625,-3.625,74.3125
1589543947.6495545,-0.61,-3.62,8.86,0.5777777777777777,0.2533333333333333,-0.7144444444444444,0.25,-3.6875,74.25
1589543947.6567385,-0.56,-3.57,8.85,0.5722222222222222,0.2288888888888889,-0.7144444444444444,0.5,-3.4375,74.375
1589543947.6669867,-0.69,-3.64,8.79,0.5722222222222222,0.2288888888888889,-0.7144444444444444,0.4375,-3.5625,74.75
1589543947.6806242,-0.7,-3.58,8.82,0.5722222222222222,0.2288888888888889,-0.7144444444444444,0.25,-3.5,75.25
1589543947.690632,-0.74,-3.58,8.81,0.5722222222222222,0.2288888888888889,-0.7144444444444444,0.0625,-3.5625,76.0
1589543947.7044015,-0.69,-3.42,8.9,0.5722222222222222,0.2288888888888889,-0.7144444444444444,0.625,-3.4375,76.5
1589543947.7103314,-0.74,-3.47,8.87,0.5911111111111111,0.18777777777777774,-0.7144444444444444,0.75,-3.4375,76.875
1589543947.7171967,-0.71,-3.46,8.88,0.5911111111111111,0.18777777777777774,-0.7144444444444444,0.625,-3.4375,76.8125
1589543947.728797,-0.76,-3.5,8.75,0.5911111111111111,0.18777777777777774,-0.7144444444444444,0.375,-3.4375,75.8125
1589543947.7414672,-0.8,-3.42,8.9,0.5911111111111111,0.18777777777777774,-0.7144444444444444,0.3125,-3.5,74.625
1589543947.7499266,-0.81,-3.3,8.77,0.5911111111111111,0.18777777777777774,-0.7144444444444444,0.625,-3.0,73.375
1589543947.7616065,-0.88,-3.38,8.95,0.6111111111111112,0.1688888888888889,-0.7355555555555555,0.6875,-3.25,72.0
1589543947.7679744,-0.9,-3.48,8.9,0.6111111111111112,0.1688888888888889,-0.7355555555555555,0.125,-3.5625,70.875
1589543947.7824135,-0.96,-3.25,8.88,0.6111111111111112,0.1688888888888889,-0.7355555555555555,0.25,-3.5,69.625
1589543947.788542,-0.93,-3.13,8.92,0.6111111111111112,0.1688888888888889,-0.7355555555555555,-0.0625,-4.1875,68.375
1589543947.7999482,-1.02,-3.1,8.7,0.6111111111111112,0.1688888888888889,-0.7355555555555555,0.1875,-3.1875,68.375
1589543947.8064992,-1.03,-3.07,8.93,0.6222222222222222,0.13666666666666666,-0.7355555555555555,0.0,-3.6875,68.625
1589543947.8202064,-1.06,-3.08,8.77,0.6222222222222222,0.13666666666666666,-0.7355555555555555,0.75,-2.625,69.4375
1589543947.8280015,-1.05,-3.07,8.81,0.6222222222222222,0.13666666666666666,-0.7355555555555555,0.5,-2.6875,69.875
1589543947.8380704,-1.1,-3.09,8.92,0.6222222222222222,0.13666666666666666,-0.7355555555555555,-0.125,-3.8125,70.0625
1589543947.850614,-1.25,-3.23,8.92,0.6222222222222222,0.13666666666666666,-0.7355555555555555,0.1875,-3.375,69.75
1589543947.8610132,-1.31,-3.31,8.95,0.6222222222222222,0.10222222222222224,-0.7566666666666667,0.25,-3.3125,69.5
1589543947.8687074,-1.31,-3.26,8.86,0.6222222222222222,0.10222222222222224,-0.7566666666666667,0.4375,-3.0625,69.0625
1589543947.8803275,-1.38,-3.3,8.79,0.6222222222222222,0.10222222222222224,-0.7566666666666667,0.3125,-3.125,68.125
1589543947.8885188,-1.43,-3.27,8.84,0.6222222222222222,0.10222222222222224,-0.7566666666666667,0.0,-3.125,67.125
1589543947.900578,-1.47,-3.28,8.87,0.6222222222222222,0.10222222222222224,-0.7566666666666667,0.5625,-2.5625,66.875
1589543947.9132106,-1.49,-3.24,8.95,0.6355555555555555,0.08333333333333333,-0.7922222222222223,0.6875,-2.75,66.8125
1589543947.9195194,-1.46,-3.16,8.74,0.6355555555555555,0.08333333333333333,-0.7922222222222223,0.6875,-2.5625,66.6875
1589543947.9332116,-1.56,-3.21,8.97,0.6355555555555555,0.08333333333333333,-0.7922222222222223,0.3125,-3.0,66.25
1589543947.9398177,-1.7,-3.26,8.9,0.6355555555555555,0.08333333333333333,-0.7922222222222223,0.1875,-3.25,65.4375
1589543947.9513328,-1.74,-3.21,8.71,0.6355555555555555,0.08333333333333333,-0.7922222222222223,0.1875,-2.625,65.75
1589543947.9581182,-1.73,-3.14,9.04,0.62,0.06555555555555556,-0.8,-0.4375,-3.9375,66.1875
1589543947.9697433,-1.72,-3.06,8.89,0.62,0.06555555555555556,-0.8,-0.375,-3.5625,67.5625
1589543947.9789374,-1.74,-3.1,8.79,0.62,0.06555555555555556,-0.8,0.875,-2.4375,68.5
1589543947.9892757,-1.73,-2.97,8.69,0.62,0.06555555555555556,-0.8,0.3125,-2.75,68.875
1589543948.003377,-1.78,-3.0,9.12,0.62,0.06555555555555556,-0.8,0.375,-2.5625,69.0
1589543948.0098732,-1.88,-3.06,8.92,0.62,0.022222222222222227,-0.8188888888888889,0.0,-3.625,69.0
1589543948.018716,-1.84,-2.97,8.74,0.62,0.022222222222222227,-0.8188888888888889,0.5,-2.1875,69.4375
1589543948.0290456,-2.07,-3.11,8.8,0.62,0.022222222222222227,-0.8188888888888889,-0.375,-4.0,69.25
1589543948.0392005,-1.98,-2.99,8.76,0.62,0.022222222222222227,-0.8188888888888889,0.125,-2.875,69.375
1589543948.0513089,-1.91,-2.87,9.07,0.62,0.022222222222222227,-0.8188888888888889,-0.0625,-3.3125,69.5
1589543948.061262,-1.9,-2.73,8.87,0.6111111111111112,-0.015555555555555557,-0.8277777777777777,-0.0625,-2.75,71.25
1589543948.0693462,-2.05,-2.86,9.03,0.6111111111111112,-0.015555555555555557,-0.8277777777777777,-0.0625,-2.75,71.25
1589543948.0843813,-2.21,-2.94,8.73,0.6111111111111112,-0.015555555555555557,-0.8277777777777777,0.25,-2.625,72.125
1589543948.0902705,-2.25,-2.94,8.86,0.6111111111111112,-0.015555555555555557,-0.8277777777777777,0.1875,-2.5625,75.25
1589543948.1059918,-2.06,-2.81,9.01,0.6111111111111112,-0.015555555555555557,-0.8277777777777777,0.0,-3.0,76.0
1589543948.111838,-2.03,-2.74,8.92,0.5788888888888889,-0.07444444444444444,-0.8755555555555555,-0.1875,-2.4375,75.9375
1589543948.1204526,-2.17,-2.69,8.81,0.5788888888888889,-0.07444444444444444,-0.8755555555555555,-0.5625,-3.5625,76.1875
1589543948.1297302,-2.16,-2.72,9.07,0.5788888888888889,-0.07444444444444444,-0.8755555555555555,-0.25,-2.5625,78.125
1589543948.1440644,-2.37,-2.72,8.85,0.5788888888888889,-0.07444444444444444,-0.8755555555555555,-0.5,-3.375,80.5
1589543948.1505888,-2.38,-2.72,9.16,0.5788888888888889,-0.07444444444444444,-0.8755555555555555,-0.6875,-3.5625,84.0625
1589543948.159598,-2.53,-2.76,9.0,0.5788888888888889,-0.12,-0.8355555555555556,-0.0625,-2.25,87.875
1589543948.1690626,-2.44,-2.67,8.9,0.5788888888888889,-0.12,-0.8355555555555556,-0.25,-3.1875,90.3125
1589543948.1788962,-2.47,-2.64,8.92,0.5788888888888889,-0.12,-0.8355555555555556,-0.5625,-3.4375,91.875
1589543948.1847596,-2.47,-2.64,8.92,0.5788888888888889,-0.12,-0.8355555555555556,-0.5625,-3.4375,91.875
1589543948.1918075,-2.47,-2.59,8.94,0.5788888888888889,-0.12,-0.8355555555555556,-0.375,-2.9375,93.25
1589543948.2041898,-2.41,-2.52,8.92,0.5788888888888889,-0.12,-0.8355555555555556,0.0,-2.5625,95.3125
1589543948.2131338,-2.67,-2.54,8.84,0.5666666666666667,-0.18666666666666668,-0.8488888888888889,0.375,-2.1875,97.75
1589543948.222614,-2.5,-2.38,8.83,0.5666666666666667,-0.18666666666666668,-0.8488888888888889,-1.3125,-4.25,99.75
1589543948.2301292,-2.52,-2.46,9.15,0.5666666666666667,-0.18666666666666668,-0.8488888888888889,-0.75,-4.0625,102.625
1589543948.2410033,-2.51,-2.33,8.6,0.5666666666666667,-0.18666666666666668,-0.8488888888888889,1.0625,-2.1875,104.25
1589543948.2557707,-2.66,-2.36,9.02,0.5666666666666667,-0.18666666666666668,-0.8488888888888889,-0.75,-5.0,104.8125
1589543948.2620807,-2.65,-2.28,9.04,0.5277777777777778,-0.24,-0.8488888888888889,-1.375,-5.3125,107.875
1589543948.2697368,-2.31,-2.11,9.1,0.5277777777777778,-0.24,-0.8488888888888889,0.0,-4.4375,112.75
1589543948.2821612,-2.37,-2.01,8.75,0.5277777777777778,-0.24,-0.8488888888888889,0.5,-4.1875,115.5
1589543948.2935526,-2.41,-2.0,9.03,0.5277777777777778,-0.24,-0.8488888888888889,-0.125,-4.5625,115.6875
1589543948.3020115,-2.33,-1.86,8.81,0.5277777777777778,-0.24,-0.8488888888888889,0.5,-4.75,114.125
1589543948.3089573,-2.55,-1.91,9.26,0.44222222222222224,-0.3055555555555556,-0.8333333333333334,0.3125,-4.125,112.4375
1589543948.3202407,-2.68,-1.82,8.68,0.44222222222222224,-0.3055555555555556,-0.8333333333333334,2.125,-1.5,112.125
1589543948.3325381,-2.48,-1.73,8.58,0.44222222222222224,-0.3055555555555556,-0.8333333333333334,0.1875,-4.4375,110.375
1589543948.339719,-2.54,-1.74,9.16,0.44222222222222224,-0.3055555555555556,-0.8333333333333334,-1.0,-6.1875,108.75
1589543948.3520002,-2.47,-1.6,9.2,0.44222222222222224,-0.3055555555555556,-0.8333333333333334,-0.625,-6.125,107.5625
1589543948.3596756,-2.36,-1.52,9.13,0.38666666666666666,-0.36,-0.7688888888888888,0.5,-4.625,106.3125
1589543948.3729887,-2.36,-1.38,8.74,0.38666666666666666,-0.36,-0.7688888888888888,0.3125,-3.9375,105.0625
1589543948.380126,-2.62,-1.47,8.93,0.38666666666666666,-0.36,-0.7688888888888888,-0.375,-5.5625,104.4375
1589543948.390192,-2.37,-1.33,8.89,0.38666666666666666,-0.36,-0.7688888888888888,1.0,-3.9375,104.1875
1589543948.4020836,-2.37,-1.26,8.66,0.38666666666666666,-0.36,-0.7688888888888888,-0.9375,-5.3125,102.375
1589543948.412933,-2.43,-1.31,9.49,0.38222222222222224,-0.3566666666666667,-0.72,-1.5625,-6.25,99.6875
1589543948.4218993,-2.76,-1.32,9.21,0.38222222222222224,-0.3566666666666667,-0.72,0.875,-4.4375,98.5
1589543948.4301214,-2.74,-1.3,9.24,0.38222222222222224,-0.3566666666666667,-0.72,2.0,-2.375,98.0625
1589543948.445405,-3.05,-1.23,8.5,0.38222222222222224,-0.3566666666666667,-0.72,2.625,-0.25,99.5625
1589543948.4524972,-2.44,-1.09,8.64,0.38222222222222224,-0.3566666666666667,-0.72,-0.875,-6.0,100.5
1589543948.4661036,-1.94,-1.01,9.35,0.3622222222222222,-0.3644444444444445,-0.7333333333333333,-2.25,-8.875,99.3125
1589543948.4725766,-2.04,-0.97,9.28,0.3622222222222222,-0.3644444444444445,-0.7333333333333333,0.0625,-6.375,95.75
1589543948.4845946,-2.73,-0.96,8.88,0.3622222222222222,-0.3644444444444445,-0.7333333333333333,1.5,-2.75,92.5625
1589543948.4906821,-2.68,-0.77,8.99,0.3622222222222222,-0.3644444444444445,-0.7333333333333333,0.4375,-4.25,90.125
1589543948.504215,-2.3,-0.73,8.84,0.3622222222222222,-0.3644444444444445,-0.7333333333333333,0.25,-3.8125,86.4375
1589543948.5099766,-2.52,-0.68,9.44,0.37333333333333335,-0.37666666666666665,-0.7,-0.0625,-5.0625,80.875
1589543948.5162365,-2.52,-0.68,9.44,0.37333333333333335,-0.37666666666666665,-0.7,-0.0625,-5.0625,80.875
1589543948.5308747,-2.49,-0.43,8.89,0.37333333333333335,-0.37666666666666665,-0.7,0.5,-3.5625,70.9375
1589543948.5420158,-2.78,-0.47,9.71,0.37333333333333335,-0.37666666666666665,-0.7,-2.3125,-7.875,64.3125
1589543948.5527732,-2.79,-0.47,8.86,0.37333333333333335,-0.37666666666666665,-0.7,0.625,-2.625,61.5
1589543948.5611026,-2.61,-0.41,9.06,0.3711111111111111,-0.37666666666666665,-0.7055555555555556,0.5625,-3.3125,59.5
1589543948.5722413,-2.02,-0.58,8.88,0.3711111111111111,-0.37666666666666665,-0.7055555555555556,-0.4375,-2.875,54.3125
1589543948.5814035,-1.72,0.03,8.97,0.3711111111111111,-0.37666666666666665,-0.7055555555555556,-0.375,-5.1875,49.1875
1589543948.597199,-1.74,0.23,9.82,0.3711111111111111,-0.37666666666666665,-0.7055555555555556,-1.875,-3.25,29.9375
1589543948.603334,-2.61,-0.43,8.2,0.3711111111111111,-0.37666666666666665,-0.7055555555555556,3.0625,4.0625,13.125
1589543948.6154196,-3.15,-0.33,9.99,0.3644444444444445,-0.4177777777777778,-0.7211111111111111,-0.125,-2.8125,7.0
1589543948.6214092,-2.65,-0.03,8.68,0.3644444444444445,-0.4177777777777778,-0.7211111111111111,-1.1875,-0.625,9.25
1589543948.632151,-1.92,-0.17,8.64,0.3644444444444445,-0.4177777777777778,-0.7211111111111111,-1.9375,-3.625,7.125
1589543948.6413867,-2.59,-0.2,8.8,0.3644444444444445,-0.4177777777777778,-0.7211111111111111,-0.5625,-1.0625,1.0
1589543948.6536038,-2.43,-0.28,8.63,0.3644444444444445,-0.4177777777777778,-0.7211111111111111,0.6875,1.375,-2.0625
1589543948.660767,-2.58,-0.39,9.46,0.3622222222222222,-0.42777777777777776,-0.7144444444444444,-1.125,-2.25,-5.4375
1589543948.6670592,-2.58,-0.39,9.46,0.3622222222222222,-0.42777777777777776,-0.7144444444444444,-1.125,-2.25,-5.4375
1589543948.6816113,-2.7,-0.4,9.03,0.3622222222222222,-0.42777777777777776,-0.7144444444444444,-0.8125,-0.875,-9.0
1589543948.6942368,-2.9,-0.36,9.02,0.3622222222222222,-0.42777777777777776,-0.7144444444444444,-2.25,-1.9375,-8.25
1589543948.7038598,-2.84,-0.4,9.38,0.3622222222222222,-0.42777777777777776,-0.7144444444444444,-1.8125,-1.75,-5.0625
1589543948.71563,-2.25,-0.38,9.32,0.3655555555555556,-0.4133333333333333,-0.7422222222222222,0.5625,0.5,-3.9375
1589543948.721793,-3.16,-0.45,9.97,0.3655555555555556,-0.4133333333333333,-0.7422222222222222,0.9375,1.625,-6.25
1589543948.7320845,-2.46,-0.15,7.91,0.3655555555555556,-0.4133333333333333,-0.7422222222222222,2.125,6.5,-6.1875
1589543948.7452526,-2.88,-0.55,10.39,0.3655555555555556,-0.4133333333333333,-0.7422222222222222,-3.0,-4.5625,-9.1875
1589543948.7541738,-3.04,-0.36,8.92,0.3655555555555556,-0.4133333333333333,-0.7422222222222222,-2.3125,-2.25,-9.625
1589543948.7612858,-3.07,-0.3,8.46,0.38,-0.4533333333333333,-0.7422222222222222,1.375,2.75,-7.5
1589543948.772745,-2.53,-0.33,9.4,0.38,-0.4533333333333333,-0.7422222222222222,-2.0625,-2.75,-6.1875
1589543948.782138,-2.2,-0.29,8.57,0.38,-0.4533333333333333,-0.7422222222222222,-1.8125,-0.0625,-8.25
1589543948.7928884,-2.28,-0.41,9.75,0.38,-0.4533333333333333,-0.7422222222222222,-0.5625,-0.25,-11.6875
1589543948.8052144,-2.67,-0.33,8.75,0.38,-0.4533333333333333,-0.7422222222222222,1.5625,3.0,-14.875
1589543948.812142,-2.87,-0.32,8.8,0.3388888888888889,-0.5222222222222223,-0.7144444444444444,-0.8125,0.6875,-17.0
1589543948.817752,-2.87,-0.32,8.8,0.3388888888888889,-0.5222222222222223,-0.7144444444444444,-0.8125,0.6875,-17.0
1589543948.828234,-3.04,-0.37,8.86,0.3388888888888889,-0.5222222222222223,-0.7144444444444444,-1.3125,0.125,-15.5
1589543948.8347778,-2.18,-0.29,8.76,0.3388888888888889,-0.5222222222222223,-0.7144444444444444,-0.375,0.1875,-12.4375
1589543948.8448205,-1.76,-0.26,8.97,0.3388888888888889,-0.5222222222222223,-0.7144444444444444,-2.1875,-1.4375,-18.0
1589543948.8544574,-2.58,-0.53,9.34,0.3388888888888889,-0.5222222222222223,-0.7144444444444444,-2.0,0.0,-26.9375
1589543948.8651276,-2.54,-0.38,8.76,0.17555555555555555,-0.8455555555555555,-0.5788888888888889,1.25,3.875,-32.75
1589543948.872479,-2.2,-0.37,8.81,0.17555555555555555,-0.8455555555555555,-0.5788888888888889,0.5,3.4375,-35.6875
1589543948.883635,-1.79,-0.46,8.97,0.17555555555555555,-0.8455555555555555,-0.5788888888888889,-2.5625,-0.25,-43.875
1589543948.8932593,-2.52,-0.58,9.11,0.17555555555555555,-0.8455555555555555,-0.5788888888888889,-1.1875,1.6875,-54.3125
1589543948.9044914,-1.5,-0.43,8.7,0.17555555555555555,-0.8455555555555555,-0.5788888888888889,0.4375,4.4375,-63.75
1589543948.9123695,-1.16,-0.53,9.19,0.7855555555555556,-1.3333333333333333,-0.2822222222222222,-1.75,2.0625,-76.3125
1589543948.926976,-1.68,-0.77,9.09,0.7855555555555556,-1.3333333333333333,-0.2822222222222222,-1.0625,4.25,-92.9375
1589543948.9329221,-1.16,-0.56,7.03,0.7855555555555556,-1.3333333333333333,-0.2822222222222222,3.5625,11.625,-107.1875
1589543948.9452572,-1.29,-1.12,10.25,0.7855555555555556,-1.3333333333333333,-0.2822222222222222,-4.3125,-0.75,-125.5625
1589543948.9597554,-1.28,-1.14,9.26,0.7855555555555556,-1.3333333333333333,-0.2822222222222222,-3.125,5.375,-143.1875
1589543948.9656115,-1.02,-1.22,8.89,0.5911111111111111,-0.6077777777777778,-0.7622222222222222,1.625,10.5625,-157.375
1589543948.9782429,-1.02,-1.44,9.59,0.5911111111111111,-0.6077777777777778,-0.7622222222222222,-1.875,6.3125,-174.3125
1589543948.9847221,-1.12,-1.55,8.65,0.5911111111111111,-0.6077777777777778,-0.7622222222222222,-1.1875,10.5625,-193.375
1589543948.9996862,-1.18,-1.71,8.67,0.5911111111111111,-0.6077777777777778,-0.7622222222222222,-0.8125,10.3125,-212.0
1589543949.0048616,-1.6,-2.21,9.78,0.5911111111111111,-0.6077777777777778,-0.7622222222222222,-1.5625,9.4375,-228.9375
1589543949.0135555,-1.65,-2.03,7.16,0.5433333333333333,-0.3644444444444445,-0.7622222222222222,2.0,17.5625,-241.4375
1589543949.0239446,-1.89,-2.61,9.5,0.5433333333333333,-0.3644444444444445,-0.7622222222222222,-3.8125,7.375,-254.875
1589543949.0365028,-2.17,-2.78,7.75,0.5433333333333333,-0.3644444444444445,-0.7622222222222222,-2.625,11.375,-263.0625
1589543949.043116,-1.71,-2.93,8.81,0.5433333333333333,-0.3644444444444445,-0.7622222222222222,0.25,14.875,-264.8125
1589543949.0581453,-1.82,-3.23,9.58,0.5433333333333333,-0.3644444444444445,-0.7622222222222222,-3.25,8.5625,-272.625
1589543949.0647225,-2.09,-3.47,8.88,0.5966666666666667,-0.2488888888888889,-0.7911111111111111,-1.1875,14.1875,-278.0625
1589543949.0759757,-2.98,-4.12,8.89,0.5966666666666667,-0.2488888888888889,-0.7911111111111111,-0.4375,14.5,-280.5
1589543949.0841036,-3.3,-4.36,9.0,0.5966666666666667,-0.2488888888888889,-0.7911111111111111,-2.0625,11.75,-278.9375
1589543949.094677,-2.4,-4.06,8.66,0.5966666666666667,-0.2488888888888889,-0.7911111111111111,-1.125,12.3125,-271.3125
1589543949.1079352,-1.81,-4.01,8.8,0.5966666666666667,-0.2488888888888889,-0.7911111111111111,-1.125,11.625,-265.1875
1589543949.1134589,-1.94,-4.11,8.96,0.6344444444444445,-0.11666666666666667,-0.8044444444444444,-1.8125,10.6875,-260.75
1589543949.1199846,-1.94,-4.11,8.96,0.6344444444444445,-0.11666666666666667,-0.8044444444444444,-1.8125,10.6875,-260.75
1589543949.1304355,-1.85,-4.07,8.94,0.6344444444444445,-0.11666666666666667,-0.8044444444444444,-1.5,10.5,-255.25
1589543949.1370678,-1.81,-4.04,8.82,0.6344444444444445,-0.11666666666666667,-0.8044444444444444,-1.25,10.5,-247.375
1589543949.149226,-1.91,-4.26,8.91,0.6344444444444445,-0.11666666666666667,-0.8044444444444444,-1.0625,10.625,-237.875
1589543949.1564045,-25.17,-25.36,21.91,0.6344444444444445,-0.11666666666666667,-0.8044444444444444,0.75,9.9375,-227.4375
1589543949.1680605,-22.52,-15.4,-5.5,0.6522222222222223,0.0011111111111111113,-0.7911111111111111,16.9375,87.5,-116.875
1589543949.1740966,-1.12,0.57,5.2,0.6522222222222223,0.0011111111111111113,-0.7911111111111111,-72.9375,-6.4375,-184.0
1589543949.1879847,1.27,-0.35,7.57,0.6522222222222223,0.0011111111111111113,-0.7911111111111111,-33.625,-21.9375,-88.6875
1589543949.194234,7.06,0.02,23.73,0.6522222222222223,0.0011111111111111113,-0.7911111111111111,17.8125,-83.6875,-72.0
1589543949.209232,-0.45,2.52,1.75,0.6522222222222223,0.0011111111111111113,-0.7911111111111111,95.25,40.9375,-91.875
1589543949.2148473,1.39,-2.17,14.75,0.6488888888888888,0.11888888888888888,-0.7766666666666666,-7.625,14.875,-79.6875
1589543949.2253704,2.0,-1.28,9.94,0.6488888888888888,0.11888888888888888,-0.7766666666666666,-31.125,-25.375,-62.3125
1589543949.2348955,0.26,-1.13,5.45,0.6488888888888888,0.11888888888888888,-0.7766666666666666,11.5625,17.3125,-46.3125
1589543949.2452948,-0.19,-2.85,9.56,0.6488888888888888,0.11888888888888888,-0.7766666666666666,-2.625,-1.875,-32.25
1589543949.2566302,-0.94,-2.6,8.52,0.6488888888888888,0.11888888888888888,-0.7766666666666666,-5.625,-3.0625,-17.0625
1589543949.263393,-0.97,-2.61,8.87,0.6088888888888889,0.14666666666666667,-0.76,4.5625,4.1875,-4.3125
1589543949.2702506,-0.97,-2.61,8.87,0.6088888888888889,0.14666666666666667,-0.76,4.5625,4.1875,-4.3125
1589543949.2802625,-0.75,-2.7,9.1,0.6088888888888889,0.14666666666666667,-0.76,1.9375,-0.0625,5.6875
1589543949.2869425,-0.8,-2.56,8.97,0.6088888888888889,0.14666666666666667,-0.76,-3.75,-1.1875,7.5625
1589543949.3001528,-0.84,-2.49,8.62,0.6088888888888889,0.14666666666666667,-0.76,-0.5625,-0.25,7.375
1589543949.306903,-0.85,-2.61,8.88,0.6088888888888889,0.14666666666666667,-0.76,2.8125,0.6875,10.6875
1589543949.316525,-1.09,-2.89,9.23,0.6111111111111112,0.17555555555555555,-0.7555555555555555,1.0625,-0.8125,13.3125
1589543949.324881,-1.02,-2.81,8.7,0.6111111111111112,0.17555555555555555,-0.7555555555555555,1.0625,0.625,18.6875
1589543949.3366275,-1.08,-3.0,8.87,0.6111111111111112,0.17555555555555555,-0.7555555555555555,0.0,-0.5625,25.375
1589543949.3447814,-6.32,-14.61,9.51,0.6111111111111112,0.17555555555555555,-0.7555555555555555,-1.0625,-1.625,31.3125
1589543949.3570929,2.06,2.19,9.0,0.6111111111111112,0.17555555555555555,-0.7555555555555555,-2.375,-4.5625,13.625
1589543949.3643632,0.76,0.43,10.12,0.6466666666666666,0.13777777777777778,-0.7622222222222222,-2.0,-2.625,-32.5625
1589543949.371604,0.76,0.43,10.12,0.6466666666666666,0.13777777777777778,-0.7622222222222222,-2.0,-2.625,-32.5625
1589543949.3853662,-1.19,-2.31,8.87,0.6466666666666666,0.13777777777777778,-0.7622222222222222,-5.0,0.5625,-7.1875
1589543949.3956304,-3.24,-8.31,8.41,0.6466666666666666,0.13777777777777778,-0.7622222222222222,-6.375,-4.6875,4.4375
1589543949.4071908,-1.97,-4.76,8.03,0.6466666666666666,0.13777777777777778,-0.7622222222222222,2.25,3.0625,6.0
1589543949.4179401,-0.68,-2.44,9.4,0.64,0.14666666666666667,-0.7555555555555555,0.5625,-2.1875,-3.6875
1589543949.424751,-1.38,-4.05,9.42,0.64,0.14666666666666667,-0.7555555555555555,2.0625,-0.75,-2.6875
1589543949.4365392,-1.4,-3.83,8.81,0.64,0.14666666666666667,-0.7555555555555555,0.4375,2.5625,0.1875
1589543949.4461665,-1.31,-3.91,9.08,0.64,0.14666666666666667,-0.7555555555555555,-1.625,-1.5,-0.3125
1589543949.458459,-1.49,-3.87,8.67,0.64,0.14666666666666667,-0.7555555555555555,-0.6875,0.0625,-0.125
1589543949.4665527,-1.38,-3.81,9.04,0.64,0.16666666666666666,-0.7477777777777778,0.6875,0.125,-0.125
1589543949.478595,-1.42,-3.76,8.9,0.64,0.16666666666666666,-0.7477777777777778,0.8125,-0.1875,-0.125
1589543949.490467,-1.42,-3.78,8.81,0.64,0.16666666666666666,-0.7477777777777778,-0.125,0.1875,0.0625
1589543949.4965837,-1.41,-3.81,8.81,0.64,0.16666666666666666,-0.7477777777777778,-0.75,0.1875,-0.0625
1589543949.5098858,-1.4,-3.86,8.83,0.64,0.16666666666666666,-0.7477777777777778,-0.75,0.25,0.0
1589543949.5168116,-1.41,-3.84,8.91,0.6322222222222222,0.16,-0.7477777777777778,-0.1875,-0.3125,0.0
1589543949.528747,-1.41,-3.78,8.91,0.6322222222222222,0.16,-0.7477777777777778,0.9375,-0.125,0.0
1589543949.536802,-1.41,-3.81,8.81,0.6322222222222222,0.16,-0.7477777777777778,0.375,-0.1875,0.0
1589543949.5466142,-1.44,-3.83,8.79,0.6322222222222222,0.16,-0.7477777777777778,-0.75,0.0,-0.0625
1589543949.5592964,-1.42,-3.85,8.81,0.6322222222222222,0.16,-0.7477777777777778,-0.625,0.125,0.0
1589543949.5669827,-1.41,-3.87,8.85,0.6322222222222222,0.15444444444444444,-0.7622222222222222,-0.4375,-0.25,-0.0625
1589543949.5774298,-1.4,-3.76,8.9,0.6322222222222222,0.15444444444444444,-0.7622222222222222,0.625,-0.3125,0.0
1589543949.587142,-1.42,-3.79,8.81,0.6322222222222222,0.15444444444444444,-0.7622222222222222,0.6875,0.3125,0.0
1589543949.5967288,-1.39,-3.84,8.87,0.6322222222222222,0.15444444444444444,-0.7622222222222222,-0.25,0.1875,-0.0625
1589543949.6092665,-1.43,-3.85,8.81,0.6322222222222222,0.15444444444444444,-0.7622222222222222,-0.875,0.125,-0.0625
1589543949.6166515,-1.42,-3.85,8.87,0.6266666666666667,0.16666666666666666,-0.7477777777777778,-0.25,-0.0625,0.0
1589543949.6269784,-1.4,-3.82,8.96,0.6266666666666667,0.16666666666666666,-0.7477777777777778,0.4375,-0.25,-0.125
1589543949.63952,-1.4,-3.77,8.84,0.6266666666666667,0.16666666666666666,-0.7477777777777778,0.75,-0.25,0.0
1589543949.647205,-1.42,-3.84,8.86,0.6266666666666667,0.16666666666666666,-0.7477777777777778,0.125,0.25,-0.0625
1589543949.6600926,-1.42,-3.87,8.8,0.6266666666666667,0.16666666666666666,-0.7477777777777778,-0.25,0.3125,-0.0625
1589543949.6670144,-1.42,-3.83,8.84,0.6133333333333333,0.16666666666666666,-0.7622222222222222,-0.125,0.1875,-0.0625
1589543949.6828327,-1.41,-3.83,8.91,0.6133333333333333,0.16666666666666666,-0.7622222222222222,0.1875,0.125,-0.0625
1589543949.688846,-1.41,-3.78,8.85,0.6133333333333333,0.16666666666666666,-0.7622222222222222,0.625,-0.0625,-0.125
1589543949.698091,-1.42,-3.82,8.83,0.6133333333333333,0.16666666666666666,-0.7622222222222222,0.25,0.1875,-0.0625
1589543949.709767,-1.42,-3.82,8.86,0.6133333333333333,0.16666666666666666,-0.7622222222222222,-0.5,0.125,-0.0625
1589543949.7206805,-1.41,-3.84,8.86,0.64,0.16,-0.7766666666666666,-0.625,0.0625,-0.0625
1589543949.7273324,-1.42,-3.81,8.89,0.64,0.16,-0.7766666666666666,-0.1875,-0.1875,-0.125
1589543949.7374418,-1.4,-3.8,8.83,0.64,0.16,-0.7766666666666666,0.4375,-0.5,-0.0625
1589543949.747449,-1.39,-3.79,8.87,0.64,0.16,-0.7766666666666666,0.375,-0.25,0.0625
1589543949.7603776,-1.42,-3.88,8.85,0.64,0.16,-0.7766666666666666,-0.375,0.0625,-0.0625
1589543949.7681744,-1.42,-3.85,8.83,0.6322222222222222,0.16,-0.7555555555555555,-0.1875,-0.0625,-0.0625
1589543949.7776403,-1.41,-3.84,8.89,0.6322222222222222,0.16,-0.7555555555555555,-0.1875,-0.0625,-0.0625
1589543949.7902484,-1.39,-3.79,8.85,0.6322222222222222,0.16,-0.7555555555555555,0.3125,-0.0625,0.0
1589543949.797542,-1.4,-3.8,8.9,0.6322222222222222,0.16,-0.7555555555555555,-0.1875,0.1875,0.125
1589543949.8142366,-1.42,-3.82,8.87,0.6322222222222222,0.16,-0.7555555555555555,-0.75,0.125,0.0
1589543949.8203804,-1.42,-3.84,8.85,0.64,0.14666666666666667,-0.7688888888888888,-0.3125,0.125,0.0
1589543949.8332837,-1.43,-3.84,8.84,0.64,0.14666666666666667,-0.7688888888888888,0.125,-0.1875,-0.1875
1589543949.8391516,-1.38,-3.81,8.82,0.64,0.14666666666666667,-0.7688888888888888,0.4375,-0.125,0.125
1589543949.852336,-1.38,-3.8,8.89,0.64,0.14666666666666667,-0.7688888888888888,0.1875,-0.125,-0.125
1589543949.8608446,-1.41,-3.84,8.84,0.64,0.14666666666666667,-0.7688888888888888,-0.1875,0.1875,0.0625
1589543949.8721685,-1.44,-3.84,8.84,0.62,0.15444444444444444,-0.7333333333333333,-0.4375,0.125,-0.0625
1589543949.8789332,-1.44,-3.84,8.87,0.62,0.15444444444444444,-0.7333333333333333,0.125,-0.0625,-0.125
1589543949.8886266,-1.4,-3.81,8.78,0.62,0.15444444444444444,-0.7333333333333333,0.25,-0.1875,-0.1875
1589543949.8990164,-1.4,-3.81,8.9,0.62,0.15444444444444444,-0.7333333333333333,0.0625,-0.1875,-0.0625
1589543949.910782,-1.42,-3.82,8.89,0.62,0.15444444444444444,-0.7333333333333333,-0.4375,0.0,0.1875
1589543949.919052,-1.42,-3.85,8.88,0.6266666666666667,0.15444444444444444,-0.7411111111111112,-0.5625,0.0,0.0
1589543949.9292033,-1.42,-3.84,8.87,0.6266666666666667,0.15444444444444444,-0.7411111111111112,-0.1875,0.0,-0.0625
1589543949.9411516,-1.41,-3.81,8.81,0.6266666666666667,0.15444444444444444,-0.7411111111111112,0.3125,0.0,0.0
1589543949.9481866,-1.4,-3.82,8.88,0.6266666666666667,0.15444444444444444,-0.7411111111111112,0.125,-0.125,-0.125
1589543949.9656632,-1.4,-3.8,8.91,0.6266666666666667,0.15444444444444444,-0.7411111111111112,-0.125,0.125,-0.0625
1589543949.9718769,-1.42,-3.85,8.87,0.6266666666666667,0.16,-0.7622222222222222,-0.3125,0.25,-0.0625
1589543949.9789374,-1.43,-3.84,8.85,0.6266666666666667,0.16,-0.7622222222222222,0.0,-0.125,-0.0625
1589543949.9903464,-1.42,-3.82,8.78,0.6266666666666667,0.16,-0.7622222222222222,0.3125,-0.1875,0.0
1589543950.0004065,-1.41,-3.83,8.83,0.6266666666666667,0.16,-0.7622222222222222,0.375,-0.0625,-0.0625
1589543950.011184,-1.42,-3.82,8.92,0.6266666666666667,0.16,-0.7622222222222222,-0.0625,-0.0625,0.0625
1589543950.0227199,-1.41,-3.83,8.91,0.6266666666666667,0.15444444444444444,-0.7622222222222222,-0.5,0.25,-0.125
1589543950.0287776,-1.42,-3.86,8.87,0.6266666666666667,0.15444444444444444,-0.7622222222222222,-0.25,0.25,0.0625
1589543950.0432973,-1.41,-3.81,8.79,0.6266666666666667,0.15444444444444444,-0.7622222222222222,0.1875,0.0625,0.0625
1589543950.0499144,-1.42,-3.81,8.87,0.6266666666666667,0.15444444444444444,-0.7622222222222222,0.3125,-0.0625,-0.125
1589543950.0625336,-1.41,-3.8,8.9,0.6266666666666667,0.15444444444444444,-0.7622222222222222,0.125,0.0625,-0.125
1589543950.0691898,-1.42,-3.81,8.92,0.62,0.14666666666666667,-0.7555555555555555,-0.25,0.0625,0.125
1589543950.0792189,-1.42,-3.85,8.83,0.62,0.14666666666666667,-0.7555555555555555,-0.3125,0.0625,0.0625
1589543950.0891366,-1.41,-3.83,8.75,0.62,0.14666666666666667,-0.7555555555555555,0.0625,-0.1875,0.0
1589543950.0993154,-1.4,-3.84,8.83,0.62,0.14666666666666667,-0.7555555555555555,0.3125,-0.1875,0.0
1589543950.1159375,-1.4,-3.8,8.9,0.62,0.14666666666666667,-0.7555555555555555,0.125,-0.125,-0.0625
1589543950.1215987,-1.41,-3.8,8.9,0.64,0.15444444444444444,-0.7688888888888888,-0.375,0.1875,-0.0625
1589543950.1303349,-1.42,-3.84,8.87,0.64,0.15444444444444444,-0.7688888888888888,-0.4375,0.0,-0.0625
1589543950.1421425,-1.42,-3.84,8.75,0.64,0.15444444444444444,-0.7688888888888888,-0.0625,0.0,-0.1875
1589543950.1500244,-1.41,-3.82,8.86,0.64,0.15444444444444444,-0.7688888888888888,0.125,-0.125,-0.0625
1589543950.1620646,-1.41,-3.8,8.91,0.64,0.15444444444444444,-0.7688888888888888,0.125,-0.0625,-0.0625
1589543950.1739779,-1.4,-3.8,8.92,0.6322222222222222,0.14666666666666667,-0.7622222222222222,-0.0625,0.0,-0.0625
1589543950.179978,-1.42,-3.8,8.92,0.6322222222222222,0.14666666666666667,-0.7622222222222222,-0.25,0.125,0.0
1589543950.195367,-1.41,-3.85,8.74,0.6322222222222222,0.14666666666666667,-0.7622222222222222,-0.3125,0.1875,0.0
1589543950.2020555,-1.42,-3.83,8.81,0.6322222222222222,0.14666666666666667,-0.7622222222222222,0.1875,-0.125,0.0
1589543950.2127044,-1.4,-3.81,8.9,0.6322222222222222,0.14666666666666667,-0.7622222222222222,0.1875,0.0625,0.0625
1589543950.220357,-1.41,-3.81,8.92,0.62,0.16,-0.7622222222222222,0.0,0.0625,0.0
1589543950.2304227,-1.41,-3.79,8.87,0.62,0.16,-0.7622222222222222,-0.1875,0.125,0.0
1589543950.2397606,-1.42,-3.83,8.75,0.62,0.16,-0.7622222222222222,-0.25,0.25,-0.125
1589543950.2533321,-1.43,-3.84,8.76,0.62,0.16,-0.7622222222222222,-0.0625,0.0625,0.0625
1589543950.2624333,-1.41,-3.82,8.91,0.62,0.16,-0.7622222222222222,0.0625,-0.125,-0.1875
1589543950.2719984,-1.42,-3.81,8.92,0.6266666666666667,0.16666666666666666,-0.7688888888888888,0.0625,0.125,0.125
1589543950.2801366,-1.42,-3.82,8.91,0.6266666666666667,0.16666666666666666,-0.7688888888888888,-0.3125,0.0,-0.1875
1589543950.291465,-1.43,-3.84,8.76,0.6266666666666667,0.16666666666666666,-0.7688888888888888,-0.25,-0.0625,0.0625
1589543950.3006473,-1.41,-3.83,8.82,0.6266666666666667,0.16666666666666666,-0.7688888888888888,-0.125,-0.1875,0.0
1589543950.3130305,-1.4,-3.83,8.89,0.6266666666666667,0.16666666666666666,-0.7688888888888888,0.3125,-0.1875,-0.125
1589543950.3219323,-1.41,-3.82,8.92,0.6322222222222222,0.16666666666666666,-0.7688888888888888,0.125,-0.1875,-0.0625
1589543950.3305016,-1.42,-3.8,8.84,0.6322222222222222,0.16666666666666666,-0.7688888888888888,0.0,0.1875,-0.0625
1589543950.345453,-1.42,-3.84,8.75,0.6322222222222222,0.16666666666666666,-0.7688888888888888,-0.375,0.125,-0.0625
1589543950.3518252,-1.41,-3.85,8.79,0.6322222222222222,0.16666666666666666,-0.7688888888888888,-0.0625,0.0,-0.125
1589543950.3676233,-1.41,-3.83,8.85,0.6322222222222222,0.16666666666666666,-0.7688888888888888,0.1875,-0.125,0.125
1589543950.3738866,-1.41,-3.82,8.92,0.6322222222222222,0.16,-0.7766666666666666,0.25,-0.3125,-0.125
1589543950.3843806,-1.41,-3.79,8.9,0.6322222222222222,0.16,-0.7766666666666666,0.0625,0.0,0.0
1589543950.3912704,-1.4,-3.82,8.8,0.6322222222222222,0.16,-0.7766666666666666,-0.1875,0.125,0.125
1589543950.4045582,-1.42,-3.83,8.83,0.6322222222222222,0.16,-0.7766666666666666,-0.1875,0.0625,-0.0625
1589543950.413902,-1.4,-3.84,8.87,0.6322222222222222,0.16,-0.7766666666666666,0.0,-0.0625,-0.0625
1589543950.4253445,-1.4,-3.82,8.91,0.64,0.17222222222222222,-0.7411111111111112,0.125,-0.125,-0.125
1589543950.4313815,-1.38,-3.81,8.94,0.64,0.17222222222222222,-0.7411111111111112,-0.125,0.125,-0.125
1589543950.4409456,-1.42,-3.82,8.77,0.64,0.17222222222222222,-0.7411111111111112,-0.25,0.25,-0.1875
1589543950.4511268,-1.41,-3.83,8.81,0.64,0.17222222222222222,-0.7411111111111112,-0.125,0.125,-0.0625
1589543950.46401,-1.4,-3.84,8.86,0.64,0.17222222222222222,-0.7411111111111112,-0.0625,-0.0625,0.0
1589543950.4712374,-1.39,-3.79,8.93,0.6266666666666667,0.16,-0.7555555555555555,0.125,-0.1875,-0.125
1589543950.4836426,-1.41,-3.83,8.89,0.6266666666666667,0.16,-0.7555555555555555,0.0625,0.0,-0.125
1589543950.4957724,-1.41,-3.83,8.8,0.6266666666666667,0.16,-0.7555555555555555,-0.0625,-0.0625,0.0625
1589543950.5023801,-1.42,-3.82,8.82,0.6266666666666667,0.16,-0.7555555555555555,-0.125,-0.0625,0.125
