time,acc_x,acc_y,acc_z,mag_x,mag_y,mag_z,gyr_x,gyr_y,gyr_z
1589541182.250031,-0.15,-4.2,8.85,0.4888888888888889,0.3477777777777778,-0.6466666666666666,0.0625,0.0625,4.25
1589541182.2597694,-0.18,-4.19,8.76,0.4888888888888889,0.3477777777777778,-0.6466666666666666,0.125,-0.0625,4.125
1589541182.269379,-0.23,-4.2,8.74,0.4888888888888889,0.3477777777777778,-0.6466666666666666,0.125,-0.0625,3.5625
1589541182.283734,-0.12,-4.22,8.82,0.4888888888888889,0.3477777777777778,-0.6466666666666666,0.125,0.25,3.1875
1589541182.2902634,-0.13,-4.22,8.85,0.4811111111111111,0.33555555555555555,-0.6466666666666666,0.1875,0.3125,2.75
1589541182.3006616,-0.11,-4.25,8.84,0.4811111111111111,0.33555555555555555,-0.6466666666666666,0.375,0.4375,2.375
1589541182.31034,-0.13,-4.22,8.74,0.4811111111111111,0.33555555555555555,-0.6466666666666666,0.5,0.3125,1.9375
1589541182.3200614,-0.17,-4.23,8.8,0.4811111111111111,0.33555555555555555,-0.6466666666666666,0.5625,0.625,1.5
1589541182.3326645,-0.16,-4.19,8.81,0.4811111111111111,0.33555555555555555,-0.6466666666666666,0.5625,0.375,1.0625
1589541182.3410234,-0.15,-4.23,8.86,0.4688888888888889,0.3422222222222222,-0.64,0.3125,0.6875,0.8125
1589541182.351229,-0.2,-4.21,8.86,0.4688888888888889,0.3422222222222222,-0.64,0.375,0.75,0.375
1589541182.3646734,-0.22,-4.19,8.74,0.4688888888888889,0.3422222222222222,-0.64,0.1875,1.0,0.125
1589541182.3714767,-0.25,-4.19,8.79,0.4688888888888889,0.3422222222222222,-0.64,0.125,0.625,-0.0625
1589541182.3841991,-0.24,-4.2,8.82,0.4688888888888889,0.3422222222222222,-0.64,0.0625,0.0625,0.125
1589541182.3901794,-0.23,-4.18,8.84,0.4755555555555556,0.3211111111111111,-0.6466666666666666,-0.0625,-0.0625,-0.125
1589541182.4015903,-0.24,-4.19,8.82,0.4755555555555556,0.3211111111111111,-0.6466666666666666,-0.0625,-0.3125,-0.1875
1589541182.4109256,-0.24,-4.19,8.72,0.4755555555555556,0.3211111111111111,-0.6466666666666666,0.0625,-0.375,0.0
1589541182.421351,-0.22,-4.19,8.79,0.4755555555555556,0.3211111111111111,-0.6466666666666666,-0.0625,0.0,-0.125
1589541182.4348936,-0.25,-4.18,8.81,0.4755555555555556,0.3211111111111111,-0.6466666666666666,0.0625,0.25,-0.125
1589541182.4411535,-0.25,-4.2,8.86,0.4755555555555556,0.33555555555555555,-0.64,0.0625,0.375,-0.0625
1589541182.4506247,-0.23,-4.17,8.85,0.4755555555555556,0.33555555555555555,-0.64,-0.0625,0.1875,0.1875
1589541182.463135,-0.22,-4.18,8.78,0.4755555555555556,0.33555555555555555,-0.64,-0.0625,0.0,-0.0625
1589541182.470492,-0.24,-4.18,8.8,0.4755555555555556,0.33555555555555555,-0.64,-0.1875,0.0,-0.125
1589541182.4835188,-0.23,-4.2,8.85,0.4755555555555556,0.33555555555555555,-0.64,-0.0625,0.0625,-0.125
1589541182.4931052,-0.21,-4.19,8.86,0.4933333333333334,0.33555555555555555,-0.64,0.0,0.0,-0.125
1589541182.5007946,-0.23,-4.19,8.82,0.4933333333333334,0.33555555555555555,-0.64,0.0,0.375,-0.0625
1589541182.5160925,-0.21,-4.19,8.75,0.4933333333333334,0.33555555555555555,-0.64,0.25,0.4375,0.0625
1589541182.5222476,-0.23,-4.2,8.75,0.4933333333333334,0.33555555555555555,-0.64,0.3125,0.875,0.0
1589541182.534066,-0.24,-4.19,8.85,0.4933333333333334,0.33555555555555555,-0.64,0.3125,0.9375,-0.125
1589541182.5412881,-0.25,-4.19,8.82,0.4755555555555556,0.3422222222222222,-0.6533333333333333,0.375,0.875,0.0625
1589541182.5511286,-0.24,-4.17,8.86,0.4755555555555556,0.3422222222222222,-0.6533333333333333,0.4375,0.625,-0.125
1589541182.5627568,-0.23,-4.19,8.78,0.4755555555555556,0.3422222222222222,-0.6533333333333333,0.4375,0.625,0.0625
1589541182.574455,-0.24,-4.19,8.81,0.4755555555555556,0.3422222222222222,-0.6533333333333333,0.1875,0.5625,-0.0625
1589541182.5844185,-0.25,-4.18,8.82,0.4755555555555556,0.3422222222222222,-0.6533333333333333,0.3125,0.6875,0.0
1589541182.5943756,-0.26,-4.18,8.85,0.4811111111111111,0.3288888888888889,-0.6466666666666666,0.125,0.4375,-0.0625
1589541182.602456,-0.26,-4.2,8.83,0.4811111111111111,0.3288888888888889,-0.6466666666666666,-0.0625,0.0,0.0
1589541182.6136243,-0.24,-4.17,8.71,0.4811111111111111,0.3288888888888889,-0.6466666666666666,0.0,-0.125,-0.125
1589541182.6215734,-0.24,-4.18,8.76,0.4811111111111111,0.3288888888888889,-0.6466666666666666,0.0,-0.3125,-0.0625
1589541182.6338894,-0.23,-4.18,8.79,0.4811111111111111,0.3288888888888889,-0.6466666666666666,0.25,-0.4375,-0.0625
1589541182.641737,-0.24,-4.19,8.84,0.4933333333333334,0.33555555555555555,-0.64,0.25,-0.25,-0.125
1589541182.6540086,-0.23,-4.2,8.83,0.4933333333333334,0.33555555555555555,-0.64,0.0625,-0.0625,-0.1875
1589541182.6611295,-0.24,-4.18,8.78,0.4933333333333334,0.33555555555555555,-0.64,0.125,0.0,-0.125
1589541182.6727169,-0.25,-4.17,8.86,0.4933333333333334,0.33555555555555555,-0.64,-0.125,0.125,0.0625
1589541182.6886244,-0.24,-4.16,8.88,0.4933333333333334,0.33555555555555555,-0.64,-0.125,0.0625,0.0
1589541182.6948974,-0.23,-4.2,8.9,0.4811111111111111,0.3288888888888889,-0.64,-0.3125,-0.1875,-0.0625
1589541182.7058554,-0.23,-4.18,8.87,0.4811111111111111,0.3288888888888889,-0.64,-0.1875,0.0625,0.0625
1589541182.7119858,-0.24,-4.19,8.72,0.4811111111111111,0.3288888888888889,-0.64,-0.0625,0.125,0.0625
1589541182.7256665,-0.23,-4.19,8.74,0.4811111111111111,0.3288888888888889,-0.64,-0.125,0.4375,-0.0625
1589541182.7349675,-0.24,-4.17,8.78,0.4811111111111111,0.3288888888888889,-0.64,0.125,0.4375,-0.125
1589541182.7461667,-0.24,-4.19,8.79,0.4755555555555556,0.33555555555555555,-0.64,0.25,0.5625,0.0
1589541182.7530901,-0.24,-4.18,8.8,0.4755555555555556,0.33555555555555555,-0.64,0.1875,0.5625,0.0625
1589541182.7644446,-0.26,-4.17,8.72,0.4755555555555556,0.33555555555555555,-0.64,0.25,0.75,0.0
1589541182.7726324,-0.25,-4.19,8.77,0.4755555555555556,0.33555555555555555,-0.64,0.3125,0.5625,0.0
1589541182.784694,-0.25,-4.19,8.9,0.4755555555555556,0.33555555555555555,-0.64,0.125,0.3125,0.0625
1589541182.7923641,-0.25,-4.18,8.88,0.4866666666666667,0.3211111111111111,-0.6466666666666666,0.1875,0.125,-0.0625
1589541182.8026335,-0.25,-4.18,8.86,0.4866666666666667,0.3211111111111111,-0.6466666666666666,0.125,-0.0625,-0.0625
1589541182.8134267,-0.24,-4.18,8.73,0.4866666666666667,0.3211111111111111,-0.6466666666666666,0.0625,-0.3125,-0.125
1589541182.825989,-0.24,-4.19,8.78,0.4866666666666667,0.3211111111111111,-0.6466666666666666,-0.125,-0.6875,-0.125
1589541182.8403945,-0.24,-4.19,8.78,0.4866666666666667,0.3211111111111111,-0.6466666666666666,0.0,-0.625,-0.0625
1589541182.8464365,-0.25,-4.19,8.8,0.4688888888888889,0.3288888888888889,-0.6322222222222222,-0.125,-0.8125,0.0
1589541182.8525946,-0.22,-4.18,8.79,0.4688888888888889,0.3288888888888889,-0.6322222222222222,0.0,-0.625,-0.125
1589541182.864175,-0.23,-4.19,8.75,0.4688888888888889,0.3288888888888889,-0.6322222222222222,0.0625,-0.375,-0.25
1589541182.8771384,-0.24,-4.2,8.83,0.4688888888888889,0.3288888888888889,-0.6322222222222222,0.1875,0.0,-0.0625
1589541182.8858886,-0.22,-4.18,8.92,0.4688888888888889,0.3288888888888889,-0.6322222222222222,0.375,0.1875,-0.1875
1589541182.89539,-0.24,-4.18,8.93,0.4866666666666667,0.3422222222222222,-0.64,0.375,0.3125,-0.0625
1589541182.9026425,-0.25,-4.19,8.91,0.4866666666666667,0.3422222222222222,-0.64,0.1875,0.25,0.0
1589541182.9153805,-0.23,-4.19,8.77,0.4866666666666667,0.3422222222222222,-0.64,0.125,0.25,0.0
1589541182.9229758,-0.23,-4.19,8.81,0.4866666666666667,0.3422222222222222,-0.64,-0.1875,0.0,-0.0625
1589541182.9375253,-0.23,-4.19,8.83,0.4866666666666667,0.3422222222222222,-0.64,-0.25,-0.125,0.0
1589541182.9441285,-0.26,-4.18,8.81,0.4888888888888889,0.33555555555555555,-0.6533333333333333,-0.375,0.0625,-0.125
1589541182.9539387,-0.22,-4.19,8.87,0.4888888888888889,0.33555555555555555,-0.6533333333333333,-0.5,-0.375,-0.125
1589541182.9637382,-0.24,-4.18,8.71,0.4888888888888889,0.33555555555555555,-0.6533333333333333,-0.375,-0.125,-0.1875
1589541182.9747312,-0.22,-4.18,8.79,0.4888888888888889,0.33555555555555555,-0.6533333333333333,-0.25,-0.0625,0.125
1589541182.9858456,-0.26,-4.16,8.8,0.4888888888888889,0.33555555555555555,-0.6533333333333333,-0.125,0.0625,-0.1875
1589541182.9968958,-0.31,-4.14,8.81,0.4811111111111111,0.3288888888888889,-0.6466666666666666,-0.5,-0.125,0.0
1589541183.0036302,-0.05,-4.28,9.1,0.4811111111111111,0.3288888888888889,-0.6466666666666666,-1.75,-1.625,-0.375
1589541183.0158193,-0.34,-4.12,8.56,0.4811111111111111,0.3288888888888889,-0.6466666666666666,0.125,0.5,-0.4375
1589541183.0266707,-0.22,-4.19,8.84,0.4811111111111111,0.3288888888888889,-0.6466666666666666,-0.3125,-0.5625,-0.4375
1589541183.036465,-0.28,-4.15,8.83,0.4811111111111111,0.3288888888888889,-0.6466666666666666,0.125,-0.1875,-0.875
1589541183.0483825,-0.21,-4.21,8.95,0.4888888888888889,0.33555555555555555,-0.6322222222222222,-0.25,-0.375,-1.0625
1589541183.0549734,-0.24,-4.18,8.83,0.4888888888888889,0.33555555555555555,-0.6322222222222222,-0.125,-0.0625,-1.1875
1589541183.0687938,-0.24,-4.14,8.77,0.4888888888888889,0.33555555555555555,-0.6322222222222222,-0.6875,-0.125,-1.125
1589541183.0749347,-0.34,-4.08,8.81,0.4888888888888889,0.33555555555555555,-0.6322222222222222,-1.4375,0.25,-0.625
1589541183.084985,-0.47,-3.9,8.88,0.4888888888888889,0.33555555555555555,-0.6322222222222222,-1.9375,-0.1875,-0.125
1589541183.0929804,-0.59,-3.73,8.92,0.4811111111111111,0.3422222222222222,-0.6344444444444445,-2.5625,-0.25,1.3125
1589541183.104184,-0.59,-3.52,8.82,0.4811111111111111,0.3422222222222222,-0.6344444444444445,-2.25,-0.4375,3.5
1589541183.1142652,-0.54,-3.5,8.68,0.4811111111111111,0.3422222222222222,-0.6344444444444445,-1.25,-0.25,5.9375
1589541183.1240153,-0.23,-2.81,8.81,0.4811111111111111,0.3422222222222222,-0.6344444444444445,-0.625,-0.1875,8.25
1589541183.1361485,-0.26,-3.26,8.77,0.4811111111111111,0.3422222222222222,-0.6344444444444445,-0.125,-0.5,10.5625
1589541183.1470408,-0.16,-3.43,8.87,0.4888888888888889,0.33555555555555555,-0.6533333333333333,-1.0625,-0.8125,11.5625
1589541183.15476,-0.1,-3.65,8.87,0.4888888888888889,0.33555555555555555,-0.6533333333333333,-1.6875,-1.3125,11.875
1589541183.1660705,0.0,-3.68,8.8,0.4888888888888889,0.33555555555555555,-0.6533333333333333,-2.3125,-1.625,11.125
1589541183.1763675,-0.56,-2.46,9.13,0.4888888888888889,0.33555555555555555,-0.6533333333333333,-2.9375,-1.625,9.0
1589541183.186359,-0.46,-2.49,8.91,0.4888888888888889,0.33555555555555555,-0.6533333333333333,-2.5,-0.4375,13.4375
1589541183.1987453,-0.38,-2.61,8.94,0.5077777777777778,0.33555555555555555,-0.64,-0.4375,-0.5625,25.125
1589541183.2049015,-0.49,-2.72,9.0,0.5077777777777778,0.33555555555555555,-0.64,0.375,-1.375,33.75
1589541183.2149384,-0.46,-2.75,8.74,0.5077777777777778,0.33555555555555555,-0.64,-0.125,-1.8125,42.625
1589541183.2275784,-0.46,-2.72,8.8,0.5077777777777778,0.33555555555555555,-0.64,-0.75,-3.0625,50.125
1589541183.2397804,-0.43,-2.82,8.77,0.5077777777777778,0.33555555555555555,-0.64,0.6875,-2.5625,57.0
1589541183.2451074,-0.42,-2.91,8.91,0.4933333333333334,0.3211111111111111,-0.6322222222222222,0.4375,-3.0,62.5625
1589541183.259552,-0.46,-2.96,8.97,0.4933333333333334,0.3211111111111111,-0.6322222222222222,-0.125,-3.3125,66.875
1589541183.2658114,-0.48,-2.95,8.77,0.4933333333333334,0.3211111111111111,-0.6322222222222222,0.5625,-2.9375,70.5625
1589541183.2792487,-0.52,-3.07,8.93,0.4933333333333334,0.3211111111111111,-0.6322222222222222,0.375,-3.25,74.0625
1589541183.2875988,-0.65,-3.07,8.91,0.4933333333333334,0.3211111111111111,-0.6322222222222222,0.375,-3.3125,77.6875
1589541183.2988431,-0.64,-3.07,8.97,0.5133333333333333,0.31555555555555553,-0.6611111111111111,0.25,-3.625,81.75
1589541183.3051565,-0.67,-3.03,8.94,0.5133333333333333,0.31555555555555553,-0.6611111111111111,0.0625,-3.9375,85.75
1589541183.3156195,-0.67,-3.03,8.81,0.5133333333333333,0.31555555555555553,-0.6611111111111111,-0.1875,-4.25,89.5
1589541183.328095,-0.57,-2.99,8.71,0.5133333333333333,0.31555555555555553,-0.6611111111111111,-0.125,-4.4375,92.8125
1589541183.337742,-0.48,-3.05,8.84,0.5133333333333333,0.31555555555555553,-0.6611111111111111,0.3125,-4.1875,95.0
1589541183.3447955,-0.44,-3.16,8.78,0.5277777777777778,0.2766666666666667,-0.6466666666666666,0.125,-4.4375,92.75
1589541183.3569007,-0.57,-3.28,8.9,0.5277777777777778,0.2766666666666667,-0.6466666666666666,0.4375,-4.1875,87.5625
1589541183.3662238,-0.55,-3.23,8.78,0.5277777777777778,0.2766666666666667,-0.6466666666666666,0.1875,-3.5,82.625
1589541183.3783965,-0.54,-3.26,8.85,0.5277777777777778,0.2766666666666667,-0.6466666666666666,0.4375,-3.375,77.3125
1589541183.3903785,-0.59,-3.06,8.88,0.5277777777777778,0.2766666666666667,-0.6466666666666666,0.0625,-3.1875,70.875
1589541183.3966935,-0.65,-3.17,8.94,0.5277777777777778,0.2311111111111111,-0.6677777777777778,0.375,-2.625,64.25
1589541183.4104538,-0.73,-3.22,8.95,0.5277777777777778,0.2311111111111111,-0.6677777777777778,-0.125,-2.875,58.125
1589541183.4168046,-0.86,-3.31,8.78,0.5277777777777778,0.2311111111111111,-0.6677777777777778,-0.125,-2.5,52.5625
1589541183.4297495,-0.86,-3.23,8.83,0.5277777777777778,0.2311111111111111,-0.6677777777777778,-0.1875,-2.75,48.1875
1589541183.438348,-0.81,-3.1,8.81,0.5277777777777778,0.2311111111111111,-0.6677777777777778,-0.125,-2.0625,44.375
1589541183.4480786,-0.76,-3.05,8.91,0.5611111111111111,0.21444444444444444,-0.6677777777777778,0.0625,-2.3125,40.3125
1589541183.4566224,-0.81,-3.06,8.79,0.5611111111111111,0.21444444444444444,-0.6677777777777778,-0.0625,-1.625,35.5
1589541183.4666908,-0.8,-3.08,8.71,0.5611111111111111,0.21444444444444444,-0.6677777777777778,0.125,-1.3125,30.875
1589541183.4762974,-0.77,-3.11,8.9,0.5611111111111111,0.21444444444444444,-0.6677777777777778,0.5,-1.1875,25.6875
1589541183.4884849,-0.78,-3.01,8.92,0.5611111111111111,0.21444444444444444,-0.6677777777777778,-0.5625,-1.375,20.0625
1589541183.4963825,-0.81,-3.03,8.98,0.5733333333333334,0.19666666666666666,-0.7033333333333334,0.0625,-0.6875,14.25
1589541183.5084708,-0.72,-2.9,8.93,0.5733333333333334,0.19666666666666666,-0.7033333333333334,0.5625,-0.3125,8.8125
1589541183.516781,-0.81,-2.93,8.73,0.5733333333333334,0.19666666666666666,-0.7033333333333334,0.375,0.1875,3.0625
1589541183.5290234,-0.85,-3.02,9.09,0.5733333333333334,0.19666666666666666,-0.7033333333333334,-0.5625,-0.5,-2.3125
1589541183.5438638,-0.83,-3.03,8.68,0.5733333333333334,0.19666666666666666,-0.7033333333333334,0.9375,1.9375,-6.6875
1589541183.5493536,-0.8,-3.11,8.96,0.56,0.19666666666666666,-0.6822222222222222,0.3125,1.125,-11.5
1589541183.560958,-0.82,-3.03,8.72,0.56,0.19666666666666666,-0.6822222222222222,-0.625,0.375,-17.0625
1589541183.5670893,-0.9,-3.08,8.88,0.56,0.19666666666666666,-0.6822222222222222,-0.4375,0.25,-22.0625
1589541183.5812821,-0.88,-3.05,8.63,0.56,0.19666666666666666,-0.6822222222222222,0.625,1.25,-25.6875
1589541183.5889785,-0.88,-3.09,9.01,0.56,0.19666666666666666,-0.6822222222222222,0.125,1.625,-29.125
1589541183.5970592,-0.91,-3.16,8.99,0.5644444444444444,0.2111111111111111,-0.6966666666666667,-0.5625,1.625,-31.75
1589541183.6069026,-0.87,-3.2,8.89,0.5644444444444444,0.2111111111111111,-0.6966666666666667,0.5625,2.6875,-34.0
1589541183.6205769,-0.84,-3.14,8.96,0.5644444444444444,0.2111111111111111,-0.6966666666666667,-0.75,0.6875,-36.6875
1589541183.6269002,-0.96,-3.36,8.78,0.5644444444444444,0.2111111111111111,-0.6966666666666667,-0.375,1.375,-39.0
1589541183.6381776,-0.96,-3.43,8.88,0.5644444444444444,0.2111111111111111,-0.6966666666666667,-0.0625,2.0,-40.4375
1589541183.6460614,-0.95,-3.51,8.93,0.5433333333333333,0.2111111111111111,-0.7244444444444444,-0.5625,1.625,-41.75
1589541183.6562386,-0.93,-3.47,8.81,0.5433333333333333,0.2111111111111111,-0.7244444444444444,-0.625,1.6875,-42.875
1589541183.6619961,-0.93,-3.47,8.81,0.5433333333333333,0.2111111111111111,-0.7244444444444444,-0.625,1.6875,-42.875
1589541183.6744256,-0.93,-3.46,8.75,0.5433333333333333,0.2111111111111111,-0.7244444444444444,-0.0625,2.5625,-43.75
1589541183.6814034,-0.74,-3.28,8.8,0.5433333333333333,0.2111111111111111,-0.7244444444444444,-0.125,2.3125,-44.1875
1589541183.6959412,-0.74,-3.26,8.84,0.5433333333333333,0.2111111111111111,-0.7244444444444444,0.375,2.5625,-45.0
1589541183.7027533,-0.78,-3.39,9.0,0.5166666666666667,0.25555555555555554,-0.7555555555555555,0.0,2.4375,-46.25
1589541183.7109373,-0.73,-3.36,8.72,0.5166666666666667,0.25555555555555554,-0.7555555555555555,0.0,2.5625,-47.3125
1589541183.7185454,-0.66,-3.31,8.67,0.5166666666666667,0.25555555555555554,-0.7555555555555555,-0.375,1.8125,-48.25
1589541183.7319648,-0.65,-3.41,8.77,0.5166666666666667,0.25555555555555554,-0.7555555555555555,0.6875,3.625,-49.125
1589541183.7404993,-0.5,-3.21,8.83,0.5166666666666667,0.25555555555555554,-0.7555555555555555,-0.8125,2.3125,-50.625
1589541183.7524295,-0.51,-3.13,8.59,0.5433333333333333,0.2611111111111111,-0.76,-1.4375,1.0625,-52.75
1589541183.7595596,-0.54,-3.31,9.05,0.5433333333333333,0.2611111111111111,-0.76,-0.3125,2.375,-54.25
1589541183.771413,-0.53,-3.26,8.68,0.5433333333333333,0.2611111111111111,-0.76,-1.125,3.1875,-54.9375
1589541183.7779698,-0.51,-3.34,8.61,0.5433333333333333,0.2611111111111111,-0.76,0.0,5.0,-55.5625
1589541183.7916515,-0.45,-3.35,8.59,0.5433333333333333,0.2611111111111111,-0.76,-0.9375,2.875,-56.4375
1589541183.7974458,-0.53,-3.5,9.25,0.5244444444444445,0.25555555555555554,-0.7766666666666666,-1.75,2.25,-57.5625
1589541183.808961,-0.61,-3.5,8.96,0.5244444444444445,0.25555555555555554,-0.7766666666666666,-1.1875,2.25,-58.3125
1589541183.8171532,-0.6,-3.24,9.19,0.5244444444444445,0.25555555555555554,-0.7766666666666666,1.3125,5.8125,-56.25
1589541183.8270915,-0.6,-3.23,8.55,0.5244444444444445,0.25555555555555554,-0.7766666666666666,-0.375,2.6875,-52.6875
1589541183.832752,-0.6,-3.23,8.55,0.5244444444444445,0.25555555555555554,-0.7766666666666666,-0.375,2.6875,-52.6875
1589541183.840822,-0.51,-3.2,8.64,0.5244444444444445,0.25555555555555554,-0.7766666666666666,-0.8125,5.375,-47.375
1589541183.850588,-0.41,-3.38,9.15,0.5433333333333333,0.2411111111111111,-0.7888888888888889,-2.75,1.4375,-44.0
1589541183.8604846,-0.38,-3.47,9.03,0.5433333333333333,0.2411111111111111,-0.7888888888888889,-0.375,2.125,-40.8125
1589541183.8680134,-0.43,-3.42,8.71,0.5433333333333333,0.2411111111111111,-0.7888888888888889,-2.75,-0.375,-38.9375
1589541183.8834894,-0.54,-3.67,8.72,0.5433333333333333,0.2411111111111111,-0.7888888888888889,-2.625,1.125,-36.9375
1589541183.8896866,-0.66,-3.9,8.96,0.5433333333333333,0.2411111111111111,-0.7888888888888889,-1.8125,1.5,-33.6875
1589541183.8970015,-0.54,-3.54,8.51,0.5422222222222223,0.25555555555555554,-0.7677777777777778,-2.0625,1.5625,-29.6875
1589541183.9087198,-0.51,-3.36,8.91,0.5422222222222223,0.25555555555555554,-0.7677777777777778,-1.0,2.625,-24.375
1589541183.922866,-0.54,-3.6,8.91,0.5422222222222223,0.25555555555555554,-0.7677777777777778,-2.375,-0.8125,-19.5625
1589541183.9295366,-0.61,-3.85,8.84,0.5422222222222223,0.25555555555555554,-0.7677777777777778,-2.5625,0.5625,-13.6875
1589541183.9429975,-0.56,-3.8,9.01,0.5422222222222223,0.25555555555555554,-0.7677777777777778,-0.4375,-0.1875,-1.75
1589541183.9484859,-0.51,-3.66,8.41,0.5344444444444445,0.17555555555555555,-0.76,-0.9375,-0.0625,3.75
1589541183.9628313,-0.52,-3.7,9.18,0.5344444444444445,0.17555555555555555,-0.76,-2.125,-0.375,8.6875
1589541183.9689493,-0.31,-3.69,8.63,0.5344444444444445,0.17555555555555555,-0.76,-0.9375,-0.6875,10.5625
1589541183.980648,-0.46,-3.82,8.72,0.5344444444444445,0.17555555555555555,-0.76,-0.6875,-1.0,12.25
1589541183.9907992,-0.58,-3.64,8.9,0.5344444444444445,0.17555555555555555,-0.76,0.0625,-0.6875,16.4375
1589541184.0022776,-0.54,-3.76,8.88,0.5111111111111111,0.14222222222222222,-0.7055555555555556,-0.3125,-1.0625,21.6875
1589541184.0117867,-0.55,-3.47,8.68,0.5111111111111111,0.14222222222222222,-0.7055555555555556,-0.3125,-1.1875,26.1875
1589541184.0216258,-0.57,-3.7,8.85,0.5111111111111111,0.14222222222222222,-0.7055555555555556,-0.375,-1.8125,30.875
1589541184.0348856,-0.47,-3.73,8.83,0.5111111111111111,0.14222222222222222,-0.7055555555555556,0.0625,-1.25,34.625
1589541184.0411766,-0.42,-3.68,8.79,0.5111111111111111,0.14222222222222222,-0.7055555555555556,-0.25,-1.8125,37.1875
1589541184.048683,-0.46,-3.76,8.79,0.4955555555555556,0.20222222222222225,-0.6611111111111111,-0.125,-2.3125,38.625
1589541184.060116,-0.51,-3.76,9.14,0.4955555555555556,0.20222222222222225,-0.6611111111111111,0.3125,-1.5,40.4375
1589541184.0737464,-0.58,-3.96,8.87,0.4955555555555556,0.20222222222222225,-0.6611111111111111,0.5,-1.0,41.25
1589541184.0800936,-0.51,-3.73,8.58,0.4955555555555556,0.20222222222222225,-0.6611111111111111,0.6875,-0.4375,42.25
1589541184.0941892,-0.36,-3.59,8.77,0.4955555555555556,0.20222222222222225,-0.6611111111111111,-0.25,-2.625,42.125
1589541184.100173,-0.26,-3.37,8.74,0.4955555555555556,0.2288888888888889,-0.6466666666666666,-0.625,-3.75,39.75
1589541184.1127846,-0.42,-3.55,8.62,0.4955555555555556,0.2288888888888889,-0.6466666666666666,0.0625,-2.0,37.125
1589541184.1192734,-0.37,-3.71,8.99,0.4955555555555556,0.2288888888888889,-0.6466666666666666,0.25,-2.0,34.5625
1589541184.131767,-0.45,-3.88,8.65,0.4955555555555556,0.2288888888888889,-0.6466666666666666,0.4375,-0.9375,31.4375
1589541184.1425204,-0.32,-3.48,8.83,0.4955555555555556,0.2288888888888889,-0.6466666666666666,0.1875,-2.375,27.25
1589541184.1539884,-0.36,-3.61,9.04,0.5077777777777778,0.2344444444444445,-0.6322222222222222,-0.375,-2.8125,23.125
1589541184.1622806,-0.42,-3.72,8.81,0.5077777777777778,0.2344444444444445,-0.6322222222222222,0.75,-0.5625,18.75
1589541184.173229,-0.49,-3.68,8.69,0.5077777777777778,0.2344444444444445,-0.6322222222222222,0.5,-1.1875,14.75
1589541184.1859245,-0.51,-3.73,8.85,0.5077777777777778,0.2344444444444445,-0.6322222222222222,0.3125,-1.4375,10.8125
1589541184.1916268,-0.52,-3.65,8.88,0.5077777777777778,0.2344444444444445,-0.6322222222222222,0.8125,-0.625,7.0625
1589541184.1995218,-0.44,-3.57,8.74,0.5077777777777778,0.2344444444444445,-0.64,1.1875,-0.375,3.125
1589541184.211183,-0.53,-3.75,8.96,0.5077777777777778,0.2344444444444445,-0.64,0.8125,-0.3125,-1.1875
1589541184.2200036,-0.61,-3.79,8.79,0.5077777777777778,0.2344444444444445,-0.64,1.0625,0.625,-4.625
1589541184.231917,-0.62,-3.72,8.86,0.5077777777777778,0.2344444444444445,-0.64,1.25,1.0,-7.3125
1589541184.2421858,-0.54,-3.54,8.5,0.5077777777777778,0.2344444444444445,-0.64,0.875,0.0,-9.625
1589541184.249874,-0.64,-3.68,8.75,0.52,0.2611111111111111,-0.6466666666666666,0.3125,-0.5,-11.1875
1589541184.2646425,-0.61,-3.74,8.83,0.52,0.2611111111111111,-0.6466666666666666,0.875,0.375,-11.625
1589541184.2707615,-0.55,-3.59,8.82,0.52,0.2611111111111111,-0.6466666666666666,0.4375,0.0625,-12.6875
1589541184.2809045,-0.58,-3.52,8.77,0.52,0.2611111111111111,-0.6466666666666666,0.5,0.6875,-13.1875
1589541184.2929056,-0.59,-3.65,8.94,0.52,0.2611111111111111,-0.6466666666666666,0.4375,0.25,-14.25
1589541184.3005884,-0.56,-3.66,8.87,0.5255555555555556,0.25555555555555554,-0.6533333333333333,0.4375,0.875,-14.75
1589541184.3111038,-0.4,-3.5,8.68,0.5255555555555556,0.25555555555555554,-0.6533333333333333,0.5625,0.25,-16.375
1589541184.3235006,-0.39,-3.68,8.57,0.5255555555555556,0.25555555555555554,-0.6533333333333333,1.0,2.0625,-18.375
1589541184.3298144,-0.36,-3.71,8.27,0.5255555555555556,0.25555555555555554,-0.6533333333333333,2.1875,3.9375,-20.625
1589541184.341879,-0.26,-3.51,8.92,0.5255555555555556,0.25555555555555554,-0.6533333333333333,-1.5,-2.0625,-25.1875
1589541184.3505766,-0.22,-3.39,9.12,0.52,0.2488888888888889,-0.6611111111111111,-0.5625,-1.25,-29.375
1589541184.360243,-0.26,-3.39,8.74,0.52,0.2488888888888889,-0.6611111111111111,0.75,1.6875,-32.5
1589541184.3698964,-0.33,-3.45,8.86,0.52,0.2488888888888889,-0.6611111111111111,-0.3125,1.0,-35.8125
1589541184.3845036,-0.28,-3.55,8.78,0.52,0.2488888888888889,-0.6611111111111111,0.125,1.5625,-38.0625
1589541184.395323,-0.35,-3.5,8.89,0.52,0.2488888888888889,-0.6611111111111111,0.0,1.5625,-40.1875
1589541184.4023006,-0.71,-3.85,8.98,0.56,0.21444444444444444,-0.6611111111111111,0.375,2.1875,-41.125
1589541184.41607,-0.66,-3.47,8.55,0.56,0.21444444444444444,-0.6611111111111111,1.0,2.4375,-35.5625
1589541184.422045,0.06,-3.62,8.89,0.56,0.21444444444444444,-0.6611111111111111,-1.875,-0.5,-31.625
1589541184.4359252,-0.57,-3.74,8.46,0.56,0.21444444444444444,-0.6611111111111111,-0.1875,2.375,-33.125
1589541184.442201,-0.27,-3.88,9.51,0.56,0.21444444444444444,-0.6611111111111111,0.625,1.125,-28.125
1589541184.4540384,-0.23,-3.67,8.44,0.7177777777777777,0.06333333333333334,-0.5822222222222222,3.1875,5.5,-26.625
1589541184.4602964,-0.2,-3.73,8.12,0.7177777777777777,0.06333333333333334,-0.5822222222222222,-1.0,-1.25,-29.0
1589541184.4738634,-0.42,-3.53,8.46,0.7177777777777777,0.06333333333333334,-0.5822222222222222,-1.125,0.5625,-29.6875
1589541184.4806294,-0.18,-3.45,8.58,0.7177777777777777,0.06333333333333334,-0.5822222222222222,1.3125,1.375,-26.375
1589541184.4939814,-0.18,-3.62,9.48,0.7177777777777777,0.06333333333333334,-0.5822222222222222,-1.6875,-1.0625,-26.3125
1589541184.500404,-0.28,-3.71,8.82,1.3077777777777777,-0.13444444444444445,0.2488888888888889,0.1875,2.4375,-25.6875
1589541184.5155525,-0.34,-3.88,9.01,1.3077777777777777,-0.13444444444444445,0.2488888888888889,-0.125,1.125,-24.9375
1589541184.5217738,-0.22,-3.52,8.27,1.3077777777777777,-0.13444444444444445,0.2488888888888889,-0.125,1.1875,-23.0
1589541184.531499,-0.33,-3.7,9.2,1.3077777777777777,-0.13444444444444445,0.2488888888888889,-0.8125,-0.8125,-21.1875
1589541184.5457726,-0.44,-3.85,8.64,1.3077777777777777,-0.13444444444444445,0.2488888888888889,1.1875,2.5,-16.6875
1589541184.5540295,-0.27,-3.78,8.83,0.9788888888888888,0.5822222222222222,-0.5688888888888889,-0.3125,0.9375,-12.25
1589541184.561772,-0.27,-3.73,9.09,0.9788888888888888,0.5822222222222222,-0.5688888888888889,0.0,0.125,-9.8125
1589541184.573559,-0.2,-3.59,8.9,0.9788888888888888,0.5822222222222222,-0.5688888888888889,1.25,1.25,-7.875
1589541184.5820324,-0.14,-3.38,8.79,0.9788888888888888,0.5822222222222222,-0.5688888888888889,-0.0625,-0.8125,-7.25
1589541184.5931597,-0.1,-3.39,8.9,0.9788888888888888,0.5822222222222222,-0.5688888888888889,0.5,0.0625,-6.375
1589541184.602626,-0.15,-3.42,8.94,0.6166666666666667,0.4044444444444445,-0.6755555555555556,0.4375,0.0,-6.0
1589541184.6115522,-0.13,-3.4,8.6,0.6166666666666667,0.4044444444444445,-0.6755555555555556,0.1875,0.1875,-5.5625
1589541184.6230845,-0.12,-3.43,9.01,0.6166666666666667,0.4044444444444445,-0.6755555555555556,-0.6875,-1.5625,-5.5
1589541184.6318054,-0.27,-3.52,8.73,0.6166666666666667,0.4044444444444445,-0.6755555555555556,0.25,-0.1875,-4.625
1589541184.6473253,-0.33,-3.51,8.9,0.6166666666666667,0.4044444444444445,-0.6755555555555556,0.0,-0.3125,-1.375
1589541184.6532393,-0.25,-3.53,8.33,0.5288888888888889,0.38333333333333336,-0.6888888888888889,1.0625,1.875,2.9375
1589541184.6629255,-0.21,-3.4,9.21,0.5288888888888889,0.38333333333333336,-0.6888888888888889,-0.5625,-1.875,5.25
1589541184.672494,-0.14,-3.39,8.96,0.5288888888888889,0.38333333333333336,-0.6888888888888889,0.9375,-0.5625,8.125
1589541184.682536,-0.18,-3.64,8.86,0.5288888888888889,0.38333333333333336,-0.6888888888888889,0.625,0.625,9.6875
1589541184.6970518,0.03,-3.19,8.69,0.5288888888888889,0.38333333333333336,-0.6888888888888889,-1.0625,-2.0,9.5625
1589541184.7054887,0.01,-3.3,9.0,0.5244444444444445,0.3644444444444445,-0.6888888888888889,0.5625,-2.125,9.25
1589541184.718488,0.01,-3.32,8.94,0.5244444444444445,0.3644444444444445,-0.6888888888888889,0.0625,-1.6875,7.9375
1589541184.7246766,-0.1,-3.49,8.93,0.5244444444444445,0.3644444444444445,-0.6888888888888889,-0.5625,-0.9375,6.875
1589541184.7322116,-0.11,-3.74,8.8,0.5244444444444445,0.3644444444444445,-0.6888888888888889,1.25,1.5,7.0625
1589541184.7436948,-0.27,-4.19,8.73,0.5244444444444445,0.3644444444444445,-0.6888888888888889,1.625,2.375,6.5
1589541184.7531252,-0.21,-3.82,9.04,0.4988888888888889,0.3588888888888889,-0.7055555555555556,0.125,0.0625,5.75
1589541184.7632926,-0.13,-3.69,8.77,0.4988888888888889,0.3588888888888889,-0.7055555555555556,0.875,0.0,5.5625
1589541184.7759426,-0.24,-3.76,8.69,0.4988888888888889,0.3588888888888889,-0.7055555555555556,0.3125,-0.4375,4.8125
1589541184.782012,-0.08,-3.07,8.62,0.4988888888888889,0.3588888888888889,-0.7055555555555556,-0.75,-2.9375,4.875
1589541184.7986734,-0.21,-3.62,9.09,0.4988888888888889,0.3588888888888889,-0.7055555555555556,1.125,-4.0,5.0
1589541184.8055766,-0.25,-3.17,8.15,0.5044444444444445,0.3466666666666667,-0.6966666666666667,2.8125,1.5,6.3125
1589541184.8157668,-0.25,-3.1,9.2,0.5044444444444445,0.3466666666666667,-0.6966666666666667,0.6875,-1.875,6.625
1589541184.822291,4.12,3.04,16.4,0.5044444444444445,0.3466666666666667,-0.6966666666666667,-45.9375,-27.4375,-32.9375
1589541184.8356614,1.46,10.47,-1.0,0.5044444444444445,0.3466666666666667,-0.6966666666666667,-200.625,35.8125,-98.375
1589541184.8442495,0.2,-1.66,0.74,0.5044444444444445,0.3466666666666667,-0.6966666666666667,-157.8125,10.25,-125.1875
1589541184.855557,1.67,-1.35,21.9,0.4844444444444445,0.36,-0.6755555555555556,-127.1875,18.0,-130.5
1589541184.8626616,-0.71,-0.76,4.15,0.4844444444444445,0.36,-0.6755555555555556,12.5625,45.375,-139.125
1589541184.8746614,-0.21,-1.08,11.99,0.4844444444444445,0.36,-0.6755555555555556,63.9375,-1.3125,-144.5625
1589541184.8833034,-1.59,-0.82,4.97,0.4844444444444445,0.36,-0.6755555555555556,142.5625,14.1875,-136.9375
1589541184.894797,0.56,-1.43,14.57,0.4844444444444445,0.36,-0.6755555555555556,199.4375,2.75,-123.8125
1589541184.902068,0.9,2.42,10.18,0.4666666666666667,0.4577777777777778,-0.6533333333333333,163.0,31.5,-98.5
1589541184.9126036,1.83,-1.35,10.53,0.4666666666666667,0.4577777777777778,-0.6533333333333333,-87.125,-32.0,-48.1875
1589541184.9180794,1.83,-1.35,10.53,0.4666666666666667,0.4577777777777778,-0.6533333333333333,-87.125,-32.0,-48.1875
1589541184.9256434,-0.75,-0.85,6.71,0.4666666666666667,0.4577777777777778,-0.6533333333333333,-14.6875,23.5,-47.9375
1589541184.932899,0.59,-2.43,7.77,0.4666666666666667,0.4577777777777778,-0.6533333333333333,35.875,7.0625,-48.6875
1589541184.9498055,0.39,-2.94,9.73,0.4666666666666667,0.4577777777777778,-0.6533333333333333,14.875,7.6875,-48.75
1589541184.9561458,0.42,-2.27,9.34,0.43333333333333335,0.44,-0.6966666666666667,-20.8125,-7.625,-44.625
1589541184.9646206,0.74,-1.84,7.94,0.43333333333333335,0.44,-0.6966666666666667,4.5625,8.25,-43.375
1589541184.973217,0.23,-2.69,8.92,0.43333333333333335,0.44,-0.6966666666666667,9.8125,3.3125,-49.25
1589541184.9875064,0.22,-2.31,9.23,0.43333333333333335,0.44,-0.6966666666666667,-6.0625,-0.5625,-44.5
1589541184.9951527,0.01,-2.1,8.25,0.43333333333333335,0.44,-0.6966666666666667,-1.5625,2.1875,-40.0625
1589541185.0055661,-0.47,-4.01,9.12,0.4188888888888889,0.4666666666666667,-0.67,4.125,2.9375,-34.3125
1589541185.0132914,-3.09,-28.95,10.15,0.4188888888888889,0.4666666666666667,-0.67,-1.0,0.4375,-24.8125
1589541185.0254426,0.51,-3.14,5.83,0.4188888888888889,0.4666666666666667,-0.67,-7.25,1.5,57.625
1589541185.034062,0.35,-0.91,8.29,0.4188888888888889,0.4666666666666667,-0.67,9.875,-10.75,121.75
1589541185.0458972,0.99,-2.14,8.29,0.4188888888888889,0.4666666666666667,-0.67,5.5,-11.6875,112.75
1589541185.0529392,-1.36,-7.5,9.47,0.4,0.4755555555555556,-0.6888888888888889,-6.75,-2.0,90.5625
1589541185.0641146,-0.37,-5.2,7.72,0.4,0.4755555555555556,-0.6888888888888889,0.1875,0.5625,92.75
1589541185.0740738,0.17,-4.78,10.14,0.4,0.4755555555555556,-0.6888888888888889,5.125,-7.9375,110.4375
1589541185.0839033,-0.09,-4.16,8.04,0.4,0.4755555555555556,-0.6888888888888889,0.5625,-6.1875,104.0
1589541185.1001177,-0.37,-4.33,8.59,0.4,0.4755555555555556,-0.6888888888888889,-2.1875,-1.875,102.875
1589541185.1063821,-0.11,-3.82,8.81,0.4455555555555555,0.4511111111111111,-0.6755555555555556,1.25,-5.75,106.3125
1589541185.114269,-0.35,-4.07,8.43,0.4455555555555555,0.4511111111111111,-0.6755555555555556,2.0625,-4.3125,109.125
1589541185.1265464,-0.36,-4.05,8.9,0.4455555555555555,0.4511111111111111,-0.6755555555555556,-1.125,-4.875,111.0625
