time,acc_x,acc_y,acc_z,mag_x,mag_y,mag_z,gyr_x,gyr_y,gyr_z
1589542961.7884395,0.16,-4.2,8.81,0.4722222222222222,0.2966666666666667,-0.6555555555555556,0.0,0.5625,0.0
1589542961.7960393,0.17,-4.19,8.83,0.4866666666666667,0.31777777777777777,-0.67,0.0,0.125,0.125
1589542961.805865,0.13,-4.18,8.82,0.4866666666666667,0.31777777777777777,-0.67,0.0625,-0.375,0.125
1589542961.815894,0.15,-4.16,8.74,0.4866666666666667,0.31777777777777777,-0.67,0.0625,-0.6875,0.25
1589542961.8257673,0.14,-4.18,8.79,0.4866666666666667,0.31777777777777777,-0.67,0.1875,-0.6875,0.375
1589542961.8425527,0.18,-4.17,8.78,0.4866666666666667,0.31777777777777777,-0.67,-0.0625,-0.25,0.625
1589542961.8492048,0.2,-4.2,8.83,0.4722222222222222,0.31777777777777777,-0.6488888888888888,-0.0625,0.3125,0.9375
1589542961.8614821,0.21,-4.24,8.84,0.4722222222222222,0.31777777777777777,-0.6488888888888888,-0.0625,0.3125,0.9375
1589542961.8676872,0.17,-4.21,8.79,0.4722222222222222,0.31777777777777777,-0.6488888888888888,-0.3125,0.625,0.375
1589542961.8797672,0.2,-4.2,8.81,0.4722222222222222,0.31777777777777777,-0.6488888888888888,-0.3125,0.625,0.3125
1589542961.8888354,0.21,-4.2,8.81,0.4722222222222222,0.31777777777777777,-0.6488888888888888,-0.1875,0.3125,0.1875
1589542961.8969054,0.21,-4.19,8.81,0.4722222222222222,0.3233333333333333,-0.6344444444444445,-0.125,0.25,0.0
1589542961.9062958,0.19,-4.21,8.81,0.4722222222222222,0.3233333333333333,-0.6344444444444445,-0.1875,0.25,0.0625
1589542961.9167054,0.15,-4.18,8.7,0.4722222222222222,0.3233333333333333,-0.6344444444444445,0.0,0.25,-0.125
1589542961.9268992,0.14,-4.18,8.74,0.4722222222222222,0.3233333333333333,-0.6344444444444445,-0.3125,0.0,0.1875
1589542961.9392776,0.17,-4.19,8.78,0.4722222222222222,0.3233333333333333,-0.6344444444444445,-0.1875,0.1875,0.0625
1589542961.9462767,0.17,-4.2,8.81,0.4722222222222222,0.3233333333333333,-0.6344444444444445,-0.0625,0.3125,0.25
1589542961.9562654,0.18,-4.2,8.81,0.4722222222222222,0.3233333333333333,-0.6344444444444445,0.125,0.25,0.25
1589542961.966976,0.17,-4.18,8.76,0.4722222222222222,0.3233333333333333,-0.6344444444444445,0.0,0.25,0.25
1589542961.976633,0.15,-4.18,8.79,0.4722222222222222,0.3233333333333333,-0.6344444444444445,0.125,0.375,0.25
1589542961.9938214,0.13,-4.13,8.81,0.4722222222222222,0.3233333333333333,-0.6344444444444445,0.0,-0.0625,0.25
1589542961.9998586,0.18,-4.22,8.85,0.46,0.3111111111111111,-0.6344444444444445,0.125,-0.3125,0.375
1589542962.0111618,0.17,-4.22,8.79,0.46,0.3111111111111111,-0.6344444444444445,0.1875,-0.0625,0.3125
1589542962.0174315,0.2,-4.23,8.74,0.46,0.3111111111111111,-0.6344444444444445,0.125,0.0,0.25
1589542962.0273302,0.19,-4.21,8.76,0.46,0.3111111111111111,-0.6344444444444445,0.0625,0.0,0.0625
1589542962.0397522,0.16,-4.2,8.79,0.46,0.3111111111111111,-0.6344444444444445,0.0,0.25,0.1875
1589542962.0474634,0.17,-4.19,8.81,0.4922222222222222,0.3111111111111111,-0.6411111111111111,-0.0625,0.4375,0.0
1589542962.0569575,0.18,-4.19,8.81,0.4922222222222222,0.3111111111111111,-0.6411111111111111,0.0625,0.3125,0.0625
1589542962.0715249,0.17,-4.2,8.7,0.4922222222222222,0.3111111111111111,-0.6411111111111111,0.1875,0.375,0.0
1589542962.0779722,0.18,-4.2,8.79,0.4922222222222222,0.3111111111111111,-0.6411111111111111,0.4375,0.375,-0.0625
1589542962.0907743,0.16,-4.22,8.81,0.4922222222222222,0.3111111111111111,-0.6411111111111111,0.3125,-0.0625,-0.3125
1589542962.0980306,0.15,-4.2,8.84,0.4544444444444444,0.3111111111111111,-0.6266666666666667,0.4375,-0.0625,-0.125
1589542962.1075304,0.17,-4.22,8.81,0.4544444444444444,0.3111111111111111,-0.6266666666666667,0.375,-0.0625,-0.1875
1589542962.1180167,0.16,-4.21,8.74,0.4544444444444444,0.3111111111111111,-0.6266666666666667,0.4375,0.125,-0.1875
1589542962.127764,0.18,-4.2,8.79,0.4544444444444444,0.3111111111111111,-0.6266666666666667,0.1875,0.0625,-0.1875
1589542962.1422706,0.17,-4.21,8.83,0.4544444444444444,0.3111111111111111,-0.6266666666666667,0.125,0.1875,0.0
1589542962.1489193,0.16,-4.22,8.82,0.4722222222222222,0.3111111111111111,-0.6344444444444445,0.0625,0.125,0.0625
1589542962.1582894,0.16,-4.2,8.81,0.4722222222222222,0.3111111111111111,-0.6344444444444445,0.25,0.3125,-0.0625
1589542962.1698887,0.15,-4.22,8.71,0.4722222222222222,0.3111111111111111,-0.6344444444444445,0.3125,0.0625,0.0
1589542962.178619,0.13,-4.17,8.75,0.4722222222222222,0.3111111111111111,-0.6344444444444445,-0.1875,-0.0625,-0.0625
1589542962.189822,0.04,-4.09,8.63,0.4722222222222222,0.3111111111111111,-0.6344444444444445,-0.4375,-0.9375,0.0625
1589542962.2020054,0.29,-4.17,9.09,0.4544444444444444,0.3111111111111111,-0.6411111111111111,-0.5625,-1.5,-0.1875
1589542962.2078257,0.06,-3.87,8.68,0.4544444444444444,0.3111111111111111,-0.6411111111111111,-0.5625,-0.875,-1.0625
1589542962.2223115,0.2,-3.87,8.88,0.4544444444444444,0.3111111111111111,-0.6411111111111111,-1.125,-1.5,-2.5625
1589542962.22854,0.16,-3.84,8.73,0.4544444444444444,0.3111111111111111,-0.6411111111111111,-0.625,0.125,-3.9375
1589542962.2405279,0.14,-3.95,8.83,0.4544444444444444,0.3111111111111111,-0.6411111111111111,-0.9375,-0.625,-5.4375
1589542962.2476866,-0.05,-3.79,8.82,0.4655555555555556,0.31777777777777777,-0.6266666666666667,-1.375,-0.75,-6.6875
1589542962.2588253,-0.19,-3.73,8.83,0.4655555555555556,0.31777777777777777,-0.6266666666666667,-2.1875,-1.25,-8.5625
1589542962.2676544,-0.03,-3.51,8.77,0.4655555555555556,0.31777777777777777,-0.6266666666666667,-3.0625,-1.625,-10.0625
1589542962.2809398,0.07,-3.52,8.86,0.4655555555555556,0.31777777777777777,-0.6266666666666667,-2.875,-1.3125,-11.75
1589542962.2891526,0.06,-2.67,8.77,0.4655555555555556,0.31777777777777777,-0.6266666666666667,-2.8125,-0.25,-8.0625
1589542962.2991762,-0.06,-2.49,8.99,0.48,0.3233333333333333,-0.6488888888888888,-3.375,-1.0625,1.9375
1589542962.3074205,-0.07,-2.66,8.94,0.48,0.3233333333333333,-0.6488888888888888,-0.125,-0.4375,13.1875
1589542962.3194196,-0.07,-2.85,8.68,0.48,0.3233333333333333,-0.6488888888888888,0.875,-0.6875,23.3125
1589542962.3283484,-0.11,-2.91,8.87,0.48,0.3233333333333333,-0.6488888888888888,-0.375,-1.75,31.3125
1589542962.3398054,-0.08,-3.01,8.89,0.48,0.3233333333333333,-0.6488888888888888,0.375,-1.4375,39.1875
1589542962.350888,0.0,-3.08,8.82,0.4655555555555556,0.31777777777777777,-0.6488888888888888,0.8125,-1.375,45.6875
1589542962.358319,0.07,-3.03,8.81,0.4655555555555556,0.31777777777777777,-0.6488888888888888,0.875,-2.0625,49.875
1589542962.3732655,0.0,-3.14,8.81,0.4655555555555556,0.31777777777777777,-0.6488888888888888,0.5625,-2.625,52.375
1589542962.3793745,0.01,-3.21,8.87,0.4655555555555556,0.31777777777777777,-0.6488888888888888,0.0,-2.8125,54.6875
1589542962.3915734,0.04,-3.2,8.91,0.4655555555555556,0.31777777777777777,-0.6488888888888888,0.0625,-2.875,56.1875
1589542962.3986301,0.0,-3.22,8.91,0.4722222222222222,0.3233333333333333,-0.6411111111111111,0.1875,-2.9375,56.75
1589542962.408875,-0.01,-3.17,8.83,0.4722222222222222,0.3233333333333333,-0.6411111111111111,0.3125,-2.875,57.625
1589542962.4191413,-0.03,-3.24,8.74,0.4722222222222222,0.3233333333333333,-0.6411111111111111,0.1875,-2.9375,58.875
1589542962.4294527,-0.12,-3.24,8.77,0.4722222222222222,0.3233333333333333,-0.6411111111111111,0.625,-2.5625,59.5625
1589542962.4412127,-0.17,-3.35,8.82,0.4722222222222222,0.3233333333333333,-0.6411111111111111,0.6875,-2.8125,60.5625
1589542962.4492939,-0.23,-3.37,8.9,0.4988888888888889,0.2911111111111111,-0.6344444444444445,0.4375,-2.8125,61.75
1589542962.4593382,-0.31,-3.38,8.93,0.4988888888888889,0.2911111111111111,-0.6344444444444445,1.0,-2.125,63.9375
1589542962.4714973,-0.4,-3.48,8.86,0.4988888888888889,0.2911111111111111,-0.6344444444444445,0.6875,-2.8125,66.4375
1589542962.4789195,-0.46,-3.58,8.9,0.4988888888888889,0.2911111111111111,-0.6344444444444445,0.5,-3.5625,69.875
1589542962.4905598,-0.57,-3.61,8.87,0.4988888888888889,0.2911111111111111,-0.6344444444444445,0.8125,-3.3125,73.875
1589542962.4979384,-0.62,-3.62,8.91,0.5066666666666667,0.2911111111111111,-0.6411111111111111,0.6875,-3.875,78.3125
1589542962.508818,-0.62,-3.62,8.91,0.5066666666666667,0.2911111111111111,-0.6411111111111111,0.6875,-3.875,78.3125
1589542962.5238125,-0.57,-3.52,8.68,0.5066666666666667,0.2911111111111111,-0.6411111111111111,1.0625,-3.8125,85.9375
1589542962.5299606,-0.56,-3.5,8.74,0.5066666666666667,0.2911111111111111,-0.6411111111111111,0.75,-4.125,88.5625
1589542962.5431695,-0.62,-3.45,8.81,0.5066666666666667,0.2911111111111111,-0.6411111111111111,0.75,-4.125,90.375
1589542962.549517,-0.63,-3.48,8.81,0.5133333333333333,0.23777777777777775,-0.6411111111111111,1.125,-3.875,92.375
1589542962.55967,-0.61,-3.46,8.94,0.5133333333333333,0.23777777777777775,-0.6411111111111111,0.8125,-4.75,93.375
1589542962.569997,-0.69,-3.56,8.77,0.5133333333333333,0.23777777777777775,-0.6411111111111111,1.125,-3.9375,93.25
1589542962.5837116,-0.68,-3.45,8.94,0.5133333333333333,0.23777777777777775,-0.6411111111111111,0.8125,-4.1875,92.875
1589542962.5922914,-0.76,-3.46,8.87,0.5133333333333333,0.23777777777777775,-0.6411111111111111,0.9375,-4.5,92.1875
1589542962.6005538,-0.79,-3.46,8.86,0.5333333333333333,0.20555555555555555,-0.6622222222222223,0.75,-4.375,91.25
1589542962.609631,-0.92,-3.54,8.84,0.5333333333333333,0.20555555555555555,-0.6622222222222223,0.5625,-4.6875,90.1875
1589542962.6202009,-0.9,-3.46,8.71,0.5333333333333333,0.20555555555555555,-0.6622222222222223,0.6875,-4.125,89.6875
1589542962.6304324,-0.91,-3.42,8.82,0.5333333333333333,0.20555555555555555,-0.6622222222222223,0.6875,-4.25,89.0625
1589542962.6423106,-1.05,-3.45,8.84,0.5333333333333333,0.20555555555555555,-0.6622222222222223,0.5625,-4.0625,88.3125
1589542962.6490324,-1.19,-3.54,8.9,0.5455555555555556,0.16444444444444445,-0.67,0.875,-4.125,88.0625
1589542962.6607678,-1.27,-3.56,8.82,0.5455555555555556,0.16444444444444445,-0.67,1.125,-3.8125,88.625
1589542962.669715,-1.25,-3.5,8.84,0.5455555555555556,0.16444444444444445,-0.67,1.0625,-4.125,90.125
1589542962.681806,-1.38,-3.46,8.84,0.5455555555555556,0.16444444444444445,-0.67,1.25,-3.9375,91.9375
1589542962.6959186,-1.36,-3.34,9.0,0.5455555555555556,0.16444444444444445,-0.67,1.1875,-4.25,94.0
1589542962.7018287,-1.25,-3.15,8.88,0.5522222222222222,0.14,-0.6911111111111111,1.1875,-4.375,96.8125
1589542962.7098155,-1.3,-3.21,8.96,0.5522222222222222,0.14,-0.6911111111111111,0.75,-4.8125,98.875
1589542962.720371,-1.49,-3.26,8.81,0.5522222222222222,0.14,-0.6911111111111111,0.5625,-4.625,101.0625
1589542962.7349322,-1.55,-3.32,8.81,0.5522222222222222,0.14,-0.6911111111111111,1.125,-4.375,103.625
1589542962.7417414,-1.61,-3.3,8.9,0.5522222222222222,0.14,-0.6911111111111111,0.875,-4.875,106.6875
1589542962.7541795,-1.65,-3.19,8.84,0.57,0.09888888888888887,-0.6977777777777778,1.25,-4.8125,109.875
1589542962.7605634,-1.73,-3.2,8.92,0.57,0.09888888888888887,-0.6977777777777778,0.9375,-5.25,113.0
1589542962.7705238,-1.6,-2.93,8.93,0.57,0.09888888888888887,-0.6977777777777778,0.8125,-5.6875,116.8125
1589542962.780206,-1.43,-2.76,9.09,0.57,0.09888888888888887,-0.6977777777777778,2.3125,-4.5,121.125
1589542962.7921722,-1.7,-3.02,8.91,0.57,0.09888888888888887,-0.6977777777777778,2.9375,-4.0,125.0625
1589542962.7993364,-1.73,-2.97,9.15,0.5633333333333334,0.05333333333333334,-0.7388888888888889,0.5,-6.5,128.0
1589542962.8111427,-1.73,-2.97,9.15,0.5633333333333334,0.05333333333333334,-0.7388888888888889,0.5,-6.5,128.0
1589542962.8212235,-1.88,-2.91,8.91,0.5633333333333334,0.05333333333333334,-0.7388888888888889,1.875,-6.1875,135.1875
1589542962.832405,-1.91,-2.83,8.88,0.5633333333333334,0.05333333333333334,-0.7388888888888889,1.0,-6.1875,137.875
1589542962.8459866,-1.86,-2.71,9.01,0.5633333333333334,0.05333333333333334,-0.7388888888888889,0.75,-6.25,140.6875
1589542962.8520837,-1.79,-2.62,8.91,0.5511111111111111,-0.01888888888888889,-0.7266666666666667,1.8125,-5.5625,144.0625
1589542962.8608015,-1.91,-2.65,8.79,0.5511111111111111,-0.01888888888888889,-0.7266666666666667,1.25,-6.0625,146.375
1589542962.8704507,-2.14,-2.71,9.01,0.5511111111111111,-0.01888888888888889,-0.7266666666666667,0.8125,-7.5,147.5625
1589542962.876657,-2.14,-2.71,9.01,0.5511111111111111,-0.01888888888888889,-0.7266666666666667,0.8125,-7.5,147.5625
1589542962.8925085,-2.24,-2.63,8.87,0.5511111111111111,-0.01888888888888889,-0.7266666666666667,1.75,-6.0,152.25
1589542962.9048116,-2.28,-2.56,9.02,0.5488888888888889,-0.06333333333333334,-0.7555555555555555,1.4375,-6.5,154.6875
1589542962.9116795,-2.4,-2.52,8.91,0.5488888888888889,-0.06333333333333334,-0.7555555555555555,1.125,-6.875,156.75
1589542962.9260387,-2.33,-2.44,9.02,0.5488888888888889,-0.06333333333333334,-0.7555555555555555,0.875,-7.625,158.75
1589542962.9334128,-2.24,-2.27,8.84,0.5488888888888889,-0.06333333333333334,-0.7555555555555555,1.4375,-6.625,161.4375
1589542962.943052,-2.19,-2.19,8.93,0.5488888888888889,-0.06333333333333334,-0.7555555555555555,1.0625,-6.5625,161.9375
1589542962.950715,-2.27,-2.22,9.13,0.5222222222222223,-0.1288888888888889,-0.7833333333333333,0.4375,-7.4375,161.125
1589542962.9645894,-2.31,-2.12,8.94,0.5222222222222223,-0.1288888888888889,-0.7833333333333333,1.4375,-6.4375,159.9375
1589542962.9717035,-2.2,-1.91,8.81,0.5222222222222223,-0.1288888888888889,-0.7833333333333333,1.3125,-5.75,158.125
1589542962.9812198,-2.47,-1.97,9.1,0.5222222222222223,-0.1288888888888889,-0.7833333333333333,0.6875,-6.5625,155.5
1589542962.99327,-2.46,-1.9,9.16,0.5222222222222223,-0.1288888888888889,-0.7833333333333333,1.0625,-6.0625,154.5625
1589542963.0047364,-2.5,-1.81,9.13,0.4544444444444444,-0.22333333333333333,-0.8044444444444444,1.125,-4.8125,154.75
1589542963.0117474,-2.4,-1.71,9.35,0.4544444444444444,-0.22333333333333333,-0.8044444444444444,0.1875,-8.125,152.8125
1589542963.0213404,-2.48,-1.61,8.83,0.4544444444444444,-0.22333333333333333,-0.8044444444444444,1.625,-6.1875,150.625
1589542963.0353904,-2.61,-1.61,8.97,0.4544444444444444,-0.22333333333333333,-0.8044444444444444,0.6875,-5.125,147.5
1589542963.043282,-2.53,-1.41,8.83,0.4544444444444444,-0.22333333333333333,-0.8044444444444444,0.9375,-5.125,144.9375
1589542963.0575519,-2.52,-1.35,8.89,0.4177777777777778,-0.3088888888888889,-0.8044444444444444,1.0625,-4.5,142.1875
1589542963.0641394,-2.66,-1.35,9.26,0.4177777777777778,-0.3088888888888889,-0.8044444444444444,0.0,-5.5625,139.0625
1589542963.0718436,-2.58,-1.15,8.57,0.4177777777777778,-0.3088888888888889,-0.8044444444444444,1.0,-4.25,136.25
1589542963.0838208,-2.66,-1.13,9.23,0.4177777777777778,-0.3088888888888889,-0.8044444444444444,1.9375,-3.5,133.4375
1589542963.093588,-2.75,-1.09,9.23,0.4177777777777778,-0.3088888888888889,-0.8044444444444444,1.125,-4.25,130.1875
1589542963.101521,-2.94,-1.01,8.71,0.3533333333333333,-0.38333333333333336,-0.7833333333333333,1.5625,-2.0,126.875
1589542963.1073804,-2.94,-1.01,8.71,0.3533333333333333,-0.38333333333333336,-0.7833333333333333,1.5625,-2.0,126.875
1589542963.1218913,-2.76,-0.85,8.88,0.3533333333333333,-0.38333333333333336,-0.7833333333333333,-0.0625,-4.9375,118.75
1589542963.1356995,-2.36,-0.74,8.98,0.3533333333333333,-0.38333333333333336,-0.7833333333333333,0.1875,-4.625,114.6875
1589542963.14374,-2.55,-0.67,9.19,0.3533333333333333,-0.38333333333333336,-0.7833333333333333,1.0,-4.0,110.5625
1589542963.1520247,-2.07,-0.55,8.73,0.29444444444444445,-0.4244444444444445,-0.8044444444444444,0.1875,-3.125,104.0625
1589542963.1626492,-2.17,-0.47,9.11,0.29444444444444445,-0.4244444444444445,-0.8044444444444444,-0.0625,-3.5625,98.5625
1589542963.1719635,-2.22,-0.47,8.98,0.29444444444444445,-0.4244444444444445,-0.8044444444444444,-0.0625,-3.75,91.625
1589542963.1774993,-2.22,-0.47,8.98,0.29444444444444445,-0.4244444444444445,-0.8044444444444444,-0.0625,-3.75,91.625
1589542963.1834664,-2.17,-0.39,8.98,0.29444444444444445,-0.4244444444444445,-0.8044444444444444,0.6875,-3.25,84.0
1589542963.1940866,-2.66,-0.41,9.36,0.29444444444444445,-0.4244444444444445,-0.8044444444444444,0.5625,-2.3125,76.5625
1589542963.2021,-2.58,-0.28,8.83,0.18777777777777774,-0.4477777777777778,-0.7955555555555556,1.1875,-1.4375,69.5
1589542963.214051,-2.74,-0.28,9.09,0.18777777777777774,-0.4477777777777778,-0.7955555555555556,0.3125,-1.875,63.375
1589542963.2283375,-2.31,-0.13,8.51,0.18777777777777774,-0.4477777777777778,-0.7955555555555556,0.125,-2.1875,56.875
1589542963.2351696,-2.49,-0.24,9.43,0.18777777777777774,-0.4477777777777778,-0.7955555555555556,0.125,-1.6875,49.25
1589542963.245483,-2.59,-0.19,9.16,0.18777777777777774,-0.4477777777777778,-0.7955555555555556,-1.0,-2.75,41.5
1589542963.2524288,-2.55,-0.15,9.48,0.15777777777777774,-0.4566666666666666,-0.6977777777777778,0.4375,0.8125,35.9375
1589542963.2674599,-2.58,-0.09,9.13,0.15777777777777774,-0.4566666666666666,-0.6977777777777778,-0.0625,-3.4375,30.125
1589542963.2735622,-2.26,-0.02,8.66,0.15777777777777774,-0.4566666666666666,-0.6977777777777778,0.8125,-1.3125,23.4375
1589542963.2840426,-2.81,-0.1,9.3,0.15777777777777774,-0.4566666666666666,-0.6977777777777778,-1.1875,-1.125,15.5625
1589542963.2954895,-2.84,-0.08,9.28,0.15777777777777774,-0.4566666666666666,-0.6977777777777778,-0.4375,-0.125,9.4375
1589542963.3068519,-2.9,0.08,9.22,0.17,-0.4544444444444444,-0.6911111111111111,-0.1875,-0.4375,5.0
1589542963.313437,-1.8,0.93,8.5,0.17,-0.4544444444444444,-0.6911111111111111,0.3125,1.0625,0.4375
1589542963.322648,-2.56,0.01,9.34,0.17,-0.4544444444444444,-0.6911111111111111,-2.125,-2.125,-18.25
1589542963.3299286,-2.56,0.01,9.34,0.17,-0.4544444444444444,-0.6911111111111111,-2.125,-2.125,-18.25
1589542963.3362346,-2.22,-0.05,8.42,0.17,-0.4544444444444444,-0.6911111111111111,-0.5,1.625,-31.5625
1589542963.3475244,-2.21,0.01,9.07,0.17,-0.4544444444444444,-0.6911111111111111,1.625,4.1875,-43.0625
1589542963.3605301,-1.46,0.32,8.82,0.21777777777777774,-0.44222222222222224,-0.6844444444444444,-0.75,1.375,-59.875
1589542963.3671849,-1.66,-0.33,9.24,0.21777777777777774,-0.44222222222222224,-0.6844444444444444,-4.1875,0.5625,-87.75
1589542963.3747065,-1.84,-0.26,8.81,0.21777777777777774,-0.44222222222222224,-0.6844444444444444,-0.75,4.8125,-116.3125
1589542963.3866973,-1.48,-0.26,8.68,0.21777777777777774,-0.44222222222222224,-0.6844444444444444,0.0,7.5,-136.6875
1589542963.4003994,-1.15,0.32,8.9,0.21777777777777774,-0.44222222222222224,-0.6844444444444444,-2.25,6.0625,-160.8125
1589542963.406607,-2.13,-1.28,9.14,0.2766666666666667,-0.4222222222222222,-0.67,-3.0625,5.75,-192.3125
1589542963.416788,-2.08,-1.29,8.88,0.2766666666666667,-0.4222222222222222,-0.67,-1.375,9.8125,-223.875
1589542963.423368,-2.27,-1.56,8.79,0.2766666666666667,-0.4222222222222222,-0.67,-1.3125,11.125,-242.0
1589542963.4379632,-2.61,-1.8,8.54,0.2766666666666667,-0.4222222222222222,-0.67,-2.6875,10.125,-255.3125
1589542963.4461524,-2.59,-2.0,8.98,0.2766666666666667,-0.4222222222222222,-0.67,-1.875,12.25,-257.375
1589542963.4564257,-3.1,-2.24,9.34,0.3411111111111111,-0.37666666666666665,-0.67,-2.5,10.1875,-259.0625
1589542963.4640975,-3.4,-2.37,9.44,0.3411111111111111,-0.37666666666666665,-0.67,-2.625,11.0625,-258.625
1589542963.476662,-2.86,-2.44,9.26,0.3411111111111111,-0.37666666666666665,-0.67,0.0,14.625,-253.375
1589542963.4838572,-2.57,-2.51,9.21,0.3411111111111111,-0.37666666666666665,-0.67,-3.5,8.25,-251.625
1589542963.4958744,-2.35,-2.48,8.62,0.3411111111111111,-0.37666666666666665,-0.67,-2.8125,10.1875,-247.9375
1589542963.5033026,-2.24,-2.73,8.91,0.46,-0.3033333333333333,-0.6766666666666666,-2.5,9.9375,-246.125
1589542963.5140707,-2.24,-2.73,8.91,0.46,-0.3033333333333333,-0.6766666666666666,-2.5,9.9375,-246.125
1589542963.5245626,-2.66,-3.15,8.92,0.46,-0.3033333333333333,-0.6766666666666666,-1.5625,12.125,-244.0625
1589542963.53681,-2.38,-3.03,8.67,0.46,-0.3033333333333333,-0.6766666666666666,-3.0,9.1875,-238.75
1589542963.5466692,-2.58,-3.32,9.15,0.46,-0.3033333333333333,-0.6766666666666666,-2.625,9.375,-235.625
1589542963.5583634,-2.28,-3.19,8.73,0.5111111111111111,-0.2111111111111111,-0.6766666666666666,-0.9375,11.4375,-231.0625
1589542963.5707994,-2.47,-3.41,9.09,0.5111111111111111,-0.2111111111111111,-0.6766666666666666,-2.3125,9.6875,-228.0
1589542963.5773056,-1.57,-2.98,8.89,0.5111111111111111,-0.2111111111111111,-0.6766666666666666,-2.375,9.1875,-225.0
1589542963.589441,-1.76,-3.18,9.07,0.5111111111111111,-0.2111111111111111,-0.6766666666666666,-1.0,10.1875,-222.1875
1589542963.5967786,-1.95,-3.29,8.54,0.5111111111111111,-0.2111111111111111,-0.6766666666666666,-2.1875,9.8125,-220.6875
1589542963.6034276,-2.1,-3.54,9.37,0.5844444444444444,-0.17333333333333334,-0.6622222222222223,-2.375,9.625,-216.375
1589542963.6154456,-2.11,-3.68,8.54,0.5844444444444444,-0.17333333333333334,-0.6622222222222223,-1.0,10.625,-209.5625
1589542963.6285975,-2.15,-3.83,9.19,0.5844444444444444,-0.17333333333333334,-0.6622222222222223,-2.6875,7.625,-202.5
1589542963.634508,-2.19,-3.98,9.15,0.5844444444444444,-0.17333333333333334,-0.6622222222222223,-0.5,10.6875,-193.0625
1589542963.6488652,-1.99,-3.9,8.52,0.5844444444444444,-0.17333333333333334,-0.6622222222222223,0.0,10.375,-183.3125
1589542963.6543624,-1.77,-3.95,9.53,0.6877777777777778,-0.2488888888888889,-0.6266666666666667,-3.8125,3.5,-174.125
1589542963.6664116,-1.92,-4.09,8.95,0.6877777777777778,-0.2488888888888889,-0.6266666666666667,-1.3125,7.3125,-161.25
1589542963.6745436,-1.86,-4.12,8.53,0.6877777777777778,-0.2488888888888889,-0.6266666666666667,-1.125,6.5,-146.375
1589542963.6860409,-1.65,-4.12,8.95,0.6877777777777778,-0.2488888888888889,-0.6266666666666667,-1.5625,5.4375,-132.0625
1589542963.6973832,-1.62,-4.14,8.81,0.6877777777777778,-0.2488888888888889,-0.6266666666666667,-0.4375,6.0,-119.1875
1589542963.7092912,-1.57,-4.15,8.88,1.2666666666666666,-0.56,-0.09,-0.5625,5.5,-107.8125
1589542963.7193074,-1.41,-4.12,8.64,1.2666666666666666,-0.56,-0.09,-1.375,3.4375,-98.1875
1589542963.7255814,-1.25,-4.11,8.95,1.2666666666666666,-0.56,-0.09,-0.875,3.3125,-90.25
1589542963.740233,-1.18,-4.1,8.47,1.2666666666666666,-0.56,-0.09,0.0,4.375,-83.4375
1589542963.746903,-1.26,-4.2,9.1,1.2666666666666666,-0.56,-0.09,-1.4375,2.25,-77.5625
1589542963.7548022,-1.2,-4.19,8.52,1.0466666666666666,0.11888888888888888,-0.6266666666666667,0.3125,4.5625,-69.5625
1589542963.7661054,-1.21,-4.27,8.91,1.0466666666666666,0.11888888888888888,-0.6266666666666667,-0.8125,1.75,-61.6875
1589542963.7767735,-1.13,-4.23,8.94,1.0466666666666666,0.11888888888888888,-0.6266666666666667,-0.4375,1.3125,-52.375
1589542963.7868035,-1.13,-4.14,8.57,1.0466666666666666,0.11888888888888888,-0.6266666666666667,0.0625,1.6875,-43.0
1589542963.8007321,-0.89,-3.96,8.98,1.0466666666666666,0.11888888888888888,-0.6266666666666667,-0.6875,0.25,-34.625
1589542963.8068776,-0.99,-4.16,8.86,0.64,0.16333333333333333,-0.6977777777777778,0.3125,1.625,-28.375
1589542963.8194573,-0.9,-4.0,8.7,0.64,0.16333333333333333,-0.6977777777777778,-0.0625,0.875,-23.25
1589542963.8260925,-0.76,-3.62,8.61,0.64,0.16333333333333333,-0.6977777777777778,0.25,0.75,-19.5625
1589542963.8354626,-0.74,-3.9,8.77,0.64,0.16333333333333333,-0.6977777777777778,0.25,0.625,-16.4375
1589542963.8488998,-0.88,-3.98,8.97,0.64,0.16333333333333333,-0.6977777777777778,-0.6875,-0.25,-13.8125
1589542963.8604422,-1.02,-4.11,8.65,0.5466666666666666,0.19,-0.7122222222222222,-0.25,-0.6875,-8.6875
1589542963.8670242,-1.13,-3.95,8.97,0.5466666666666666,0.19,-0.7122222222222222,-0.1875,-1.5,-0.6875
1589542963.8767836,-1.07,-3.86,8.65,0.5466666666666666,0.19,-0.7122222222222222,0.375,-0.5,10.8125
1589542963.8923528,-0.91,-3.66,9.01,0.5466666666666666,0.19,-0.7122222222222222,1.3125,-0.6875,23.625
1589542963.8987358,-0.95,-3.87,8.78,0.5466666666666666,0.19,-0.7122222222222222,1.5625,-0.5,35.8125
1589542963.9058068,-0.81,-3.74,9.02,0.5344444444444445,0.20777777777777776,-0.7333333333333333,0.0,-2.6875,50.25
1589542963.9179313,-0.53,-3.73,8.82,0.5344444444444445,0.20777777777777776,-0.7333333333333333,0.5625,-2.875,61.1875
1589542963.9309545,-0.55,-3.78,8.56,0.5344444444444445,0.20777777777777776,-0.7333333333333333,0.5625,-3.5,64.4375
1589542963.9379478,-0.53,-3.52,8.89,0.5344444444444445,0.20777777777777776,-0.7333333333333333,0.125,-4.0625,64.375
1589542963.9522128,-0.46,-3.27,8.94,0.5344444444444445,0.20777777777777776,-0.7333333333333333,0.5,-3.0625,62.125
1589542963.9575539,-0.46,-3.19,8.81,0.5377777777777778,0.18666666666666668,-0.72,1.1875,-1.8125,57.8125
1589542963.9717145,-0.44,-3.05,8.77,0.5377777777777778,0.18666666666666668,-0.72,0.75,-2.625,52.4375
1589542963.9784784,-0.55,-3.12,8.54,0.5377777777777778,0.18666666666666668,-0.72,-0.4375,-2.625,45.9375
1589542963.9895086,-0.34,-2.87,9.18,0.5377777777777778,0.18666666666666668,-0.72,0.75,-2.875,38.9375
1589542963.9988794,-0.48,-3.08,8.82,0.5377777777777778,0.18666666666666668,-0.72,2.125,-0.625,31.625
1589542964.009712,-0.34,-2.69,8.46,0.5344444444444445,0.14666666666666667,-0.7055555555555556,-0.1875,-0.25,24.25
1589542964.016285,-0.52,-3.16,9.06,0.5344444444444445,0.14666666666666667,-0.7055555555555556,1.1875,-1.375,16.9375
1589542964.0268402,-0.63,-3.4,9.09,0.5344444444444445,0.14666666666666667,-0.7055555555555556,0.625,-0.3125,10.625
1589542964.0386894,-13.18,-20.96,15.38,0.5344444444444445,0.14666666666666667,-0.7055555555555556,0.75,25.9375,-24.625
1589542964.0515187,3.16,1.29,4.78,0.5344444444444445,0.14666666666666667,-0.7055555555555556,-66.8125,-40.6875,-402.0
1589542964.0581148,-1.63,-5.48,13.04,0.5244444444444445,0.14,-0.6911111111111111,-85.8125,-68.6875,-487.8125
1589542964.069494,-0.59,-2.8,4.74,0.5244444444444445,0.14,-0.6911111111111111,-3.1875,68.1875,-397.5625
1589542964.0769293,-0.34,-1.79,8.31,0.5244444444444445,0.14,-0.6911111111111111,66.9375,96.4375,-364.3125
1589542964.0869687,-2.43,-0.67,6.43,0.5244444444444445,0.14,-0.6911111111111111,80.875,43.125,-311.0
1589542964.1012087,1.25,-2.32,9.5,0.5244444444444445,0.14,-0.6911111111111111,-40.8125,-15.625,-233.375
1589542964.1065323,0.44,-2.35,12.88,0.4722222222222222,0.2677777777777778,-0.6911111111111111,-11.125,12.5,-196.0
1589542964.112892,0.44,-2.35,12.88,0.4722222222222222,0.2677777777777778,-0.6911111111111111,-11.125,12.5,-196.0
1589542964.123701,0.9,-1.69,7.34,0.4722222222222222,0.2677777777777778,-0.6911111111111111,20.5,23.3125,-176.0625
1589542964.1303492,0.6,-2.47,10.05,0.4722222222222222,0.2677777777777778,-0.6911111111111111,-7.5,-2.25,-156.6875
1589542964.1412394,0.38,-2.48,9.92,0.4722222222222222,0.2677777777777778,-0.6911111111111111,-10.6875,1.875,-135.9375
1589542964.1490715,0.14,-2.26,8.35,0.4722222222222222,0.2677777777777778,-0.6911111111111111,5.875,13.25,-117.875
1589542964.1599224,-0.32,-3.67,8.93,0.43,0.3622222222222222,-0.7122222222222222,1.1875,5.125,-97.0625
1589542964.167302,1.78,-28.65,10.46,0.43,0.3622222222222222,-0.7122222222222222,-7.625,1.125,-60.5625
1589542964.181297,1.08,-0.52,6.09,0.43,0.3622222222222222,-0.7122222222222222,-1.625,10.9375,34.125
1589542964.187983,1.6,-1.94,11.66,0.43,0.3622222222222222,-0.7122222222222222,11.9375,-9.5625,50.5
1589542964.1993213,0.53,-2.66,8.47,0.43,0.3622222222222222,-0.7122222222222222,-0.75,-4.25,36.125
1589542964.2067635,0.1,-8.94,8.97,0.37666666666666665,0.4033333333333333,-0.6977777777777778,-2.25,3.875,39.1875
1589542964.2182598,0.72,-2.48,7.19,0.37666666666666665,0.4033333333333333,-0.6977777777777778,2.5625,0.5,61.6875
1589542964.2280571,0.45,-4.76,9.3,0.37666666666666665,0.4033333333333333,-0.6977777777777778,0.8125,-8.3125,60.5
1589542964.238085,0.62,-3.65,8.21,0.37666666666666665,0.4033333333333333,-0.6977777777777778,0.5,-0.625,64.25
1589542964.2545915,0.18,-4.45,9.04,0.37666666666666665,0.4033333333333333,-0.6977777777777778,1.5625,-2.6875,67.5625
1589542964.2612727,0.32,-4.43,9.08,0.4044444444444445,0.3922222222222223,-0.6977777777777778,1.3125,-2.9375,72.3125
1589542964.2731078,0.51,-3.87,8.6,0.4044444444444445,0.3922222222222223,-0.6977777777777778,-0.0625,-3.375,75.125
1589542964.278976,0.36,-4.35,8.67,0.4044444444444445,0.3922222222222223,-0.6977777777777778,0.6875,-3.375,77.4375
1589542964.2936852,0.36,-4.0,8.76,0.4044444444444445,0.3922222222222223,-0.6977777777777778,1.8125,-3.4375,79.875
1589542964.3005936,0.21,-4.22,8.91,0.4044444444444445,0.3922222222222223,-0.6977777777777778,1.25,-3.625,81.9375
1589542964.3082955,0.2,-4.06,8.74,0.4177777777777778,0.3688888888888889,-0.6911111111111111,0.5625,-3.75,84.25
1589542964.3192835,0.07,-4.06,8.73,0.4177777777777778,0.3688888888888889,-0.6911111111111111,0.25,-4.3125,86.5625
1589542964.331925,0.31,-4.65,8.92,0.4177777777777778,0.3688888888888889,-0.6911111111111111,0.3125,-4.0625,89.0625
1589542964.338279,4.51,-8.51,6.6,0.4177777777777778,0.3688888888888889,-0.6911111111111111,1.0,-4.375,86.625
1589542964.3509753,-0.34,-1.9,10.82,0.4177777777777778,0.3688888888888889,-0.6911111111111111,-6.25,-9.0,44.375
1589542964.3576937,-0.33,-3.81,9.41,0.43333333333333335,0.35,-0.7122222222222222,4.8125,0.9375,17.25
1589542964.3680756,0.18,-4.54,9.12,0.43333333333333335,0.35,-0.7122222222222222,1.3125,1.875,-0.5625
1589542964.378095,0.4,-4.44,8.98,0.43333333333333335,0.35,-0.7122222222222222,-3.9375,-5.5,-2.6875
1589542964.391626,-0.07,-4.29,8.5,0.43333333333333335,0.35,-0.7122222222222222,1.0,2.8125,-0.9375
1589542964.4058301,0.0,-4.02,8.74,0.43333333333333335,0.35,-0.7122222222222222,1.625,0.6875,0.0625
1589542964.4118426,0.09,-4.16,8.75,0.4455555555555555,0.3233333333333333,-0.6766666666666666,-0.375,-0.875,0.0
1589542964.4239216,0.09,-4.26,8.76,0.4455555555555555,0.3233333333333333,-0.6766666666666666,-0.4375,0.75,-0.0625
1589542964.4302144,0.17,-4.22,8.77,0.4455555555555555,0.3233333333333333,-0.6766666666666666,-0.125,-0.5,-0.125
1589542964.439958,0.11,-4.29,8.73,0.4455555555555555,0.3233333333333333,-0.6766666666666666,-0.0625,0.25,-0.0625
1589542964.451427,0.16,-4.16,8.83,0.4455555555555555,0.3233333333333333,-0.6766666666666666,0.3125,-0.0625,-0.0625
1589542964.4603994,0.09,-4.18,8.84,0.4577777777777778,0.3288888888888889,-0.6977777777777778,0.3125,0.0,0.0
1589542964.4695733,0.11,-4.22,8.8,0.4577777777777778,0.3288888888888889,-0.6977777777777778,-0.125,0.0625,0.0
1589542964.4820454,0.12,-4.26,8.69,0.4577777777777778,0.3288888888888889,-0.6977777777777778,-0.5625,-0.125,0.125
1589542964.489627,0.11,-4.24,8.73,0.4577777777777778,0.3288888888888889,-0.6977777777777778,-0.125,0.0625,0.0625
1589542964.50231,0.14,-4.2,8.81,0.4577777777777778,0.3288888888888889,-0.6977777777777778,0.375,-0.0625,0.125
1589542964.5091186,0.15,-4.18,8.85,0.4455555555555555,0.31555555555555553,-0.6911111111111111,0.375,0.0,0.0625
1589542964.5227547,0.14,-4.24,8.82,0.4455555555555555,0.31555555555555553,-0.6911111111111111,0.1875,-0.0625,-0.0625
1589542964.5303266,0.11,-4.24,8.69,0.4455555555555555,0.31555555555555553,-0.6911111111111111,-0.1875,0.0625,0.0625
1589542964.5404274,0.12,-4.24,8.72,0.4455555555555555,0.31555555555555553,-0.6911111111111111,-0.25,-0.125,0.0
1589542964.5526662,0.14,-4.2,8.81,0.4455555555555555,0.31555555555555553,-0.6911111111111111,0.125,0.0625,-0.0625
1589542964.5642872,0.12,-4.19,8.85,0.44,0.3288888888888889,-0.6766666666666666,0.375,0.0,0.0625
1589542964.5757976,0.13,-4.2,8.84,0.44,0.3288888888888889,-0.6766666666666666,0.0625,-0.125,0.1875
1589542964.5819507,0.14,-4.22,8.72,0.44,0.3288888888888889,-0.6766666666666666,-0.25,-0.125,0.0
1589542964.590211,0.14,-4.22,8.75,0.44,0.3288888888888889,-0.6766666666666666,-0.4375,0.125,0.0
1589542964.612032,0.13,-4.2,8.84,0.44,0.33555555555555555,-0.7122222222222222,0.375,-0.1875,0.0625
1589542964.619826,0.12,-4.21,8.81,0.44,0.33555555555555555,-0.7122222222222222,0.3125,-0.125,0.0
1589542964.6340096,0.14,-4.21,8.7,0.44,0.33555555555555555,-0.7122222222222222,-0.1875,-0.0625,0.0
1589542964.6399214,0.12,-4.25,8.74,0.44,0.33555555555555555,-0.7122222222222222,-0.375,0.0625,0.0
1589542964.6527598,0.13,-4.23,8.79,0.44,0.33555555555555555,-0.7122222222222222,0.0,0.125,0.0625
1589542964.6600199,0.14,-4.22,8.84,0.4577777777777778,0.31555555555555553,-0.7122222222222222,0.4375,0.0,0.0625
1589542964.6741552,0.15,-4.19,8.84,0.4577777777777778,0.31555555555555553,-0.7122222222222222,0.25,0.0,0.0
1589542964.6804266,0.13,-4.21,8.73,0.4577777777777778,0.31555555555555553,-0.7122222222222222,-0.3125,0.1875,0.0625
1589542964.6907635,0.13,-4.22,8.73,0.4577777777777778,0.31555555555555553,-0.7122222222222222,-0.375,-0.0625,0.1875
1589542964.7028787,0.12,-4.23,8.78,0.4577777777777778,0.31555555555555553,-0.7122222222222222,-0.0625,-0.125,-0.0625
1589542964.710727,0.14,-4.21,8.81,0.4722222222222222,0.33555555555555555,-0.7055555555555556,0.25,-0.125,0.0625
1589542964.7203293,0.13,-4.19,8.86,0.4722222222222222,0.33555555555555555,-0.7055555555555556,0.3125,-0.125,0.1875
1589542964.7314634,0.15,-4.21,8.72,0.4722222222222222,0.33555555555555555,-0.7055555555555556,0.125,0.0,-0.125
1589542964.7412086,0.13,-4.24,8.75,0.4722222222222222,0.33555555555555555,-0.7055555555555556,-0.0625,-0.0625,0.0
1589542964.7537649,0.14,-4.23,8.77,0.4722222222222222,0.33555555555555555,-0.7055555555555556,-0.1875,0.0,0.0
1589542964.7603748,0.12,-4.22,8.82,0.44,0.3288888888888889,-0.6977777777777778,0.1875,0.0625,0.0
1589542964.7710352,0.13,-4.19,8.78,0.44,0.3288888888888889,-0.6977777777777778,0.3125,0.0625,-0.0625
1589542964.7853165,0.12,-4.19,8.72,0.44,0.3288888888888889,-0.6977777777777778,0.1875,-0.1875,0.0
1589542964.7910433,0.13,-4.23,8.74,0.44,0.3288888888888889,-0.6977777777777778,-0.1875,-0.0625,0.0
1589542964.8076978,0.13,-4.23,8.79,0.44,0.3288888888888889,-0.6977777777777778,-0.25,0.0625,0.125
1589542964.813891,0.13,-4.2,8.81,0.4455555555555555,0.33555555555555555,-0.6844444444444444,0.1875,-0.1875,0.1875
1589542964.8242953,0.15,-4.22,8.84,0.4455555555555555,0.33555555555555555,-0.6844444444444444,0.4375,0.0,0.0
1589542964.8318524,0.14,-4.21,8.74,0.4455555555555555,0.33555555555555555,-0.6844444444444444,0.125,0.125,-0.125
1589542964.8452225,0.13,-4.23,8.77,0.4455555555555555,0.33555555555555555,-0.6844444444444444,-0.125,0.1875,0.0
1589542964.8536015,0.12,-4.24,8.79,0.4455555555555555,0.33555555555555555,-0.6844444444444444,0.0,0.0,0.0625
1589542964.8647015,0.14,-4.22,8.81,0.44,0.31555555555555553,-0.7055555555555556,-0.0625,0.0625,0.0625
1589542964.871419,0.11,-4.19,8.77,0.44,0.31555555555555553,-0.7055555555555556,0.0625,-0.125,0.0
1589542964.881184,0.11,-4.22,8.71,0.44,0.31555555555555553,-0.7055555555555556,0.0625,0.0,0.0
1589542964.8914793,0.13,-4.19,8.76,0.44,0.31555555555555553,-0.7055555555555556,0.0625,0.0,0.0
1589542964.9038775,0.12,-4.23,8.78,0.44,0.31555555555555553,-0.7055555555555556,-0.125,-0.125,0.0625
1589542964.9113536,0.14,-4.24,8.81,0.44,0.33555555555555555,-0.6844444444444444,0.0625,-0.0625,0.0625
1589542964.922003,0.14,-4.22,8.82,0.44,0.33555555555555555,-0.6844444444444444,0.25,0.0,0.1875
1589542964.935641,0.13,-4.2,8.75,0.44,0.33555555555555555,-0.6844444444444444,0.3125,-0.125,0.0625
1589542964.9417634,0.14,-4.22,8.76,0.44,0.33555555555555555,-0.6844444444444444,0.25,0.1875,-0.125
1589542964.9539394,0.13,-4.22,8.78,0.44,0.33555555555555555,-0.6844444444444444,0.0,0.0625,0.125
1589542964.9616225,0.14,-4.19,8.81,0.43333333333333335,0.3233333333333333,-0.7122222222222222,-0.125,0.0,0.0
1589542964.9775321,0.12,-4.24,8.82,0.43333333333333335,0.3233333333333333,-0.7122222222222222,0.0625,-0.125,0.0625
1589542964.9840374,0.13,-4.22,8.7,0.43333333333333335,0.3233333333333333,-0.7122222222222222,0.125,0.0625,0.125
1589542964.9959853,0.13,-4.22,8.78,0.43333333333333335,0.3233333333333333,-0.7122222222222222,0.0625,0.1875,0.0
1589542965.0055206,0.12,-4.22,8.78,0.43333333333333335,0.3233333333333333,-0.7122222222222222,-0.0625,-0.0625,0.0625
1589542965.0159755,0.12,-4.25,8.81,0.4455555555555555,0.3288888888888889,-0.6977777777777778,-0.1875,0.0625,0.0625
1589542965.0222476,0.14,-4.22,8.78,0.4455555555555555,0.3288888888888889,-0.6977777777777778,0.0625,-0.0625,0.0
1589542965.032727,0.13,-4.2,8.71,0.4455555555555555,0.3288888888888889,-0.6977777777777778,0.0,-0.125,0.0
1589542965.0422482,0.12,-4.21,8.73,0.4455555555555555,0.3288888888888889,-0.6977777777777778,0.0,0.25,0.125
1589542965.0549912,0.14,-4.23,8.81,0.4455555555555555,0.3288888888888889,-0.6977777777777778,-0.125,0.0,0.0
1589542965.0629745,0.14,-4.21,8.81,0.4577777777777778,0.3233333333333333,-0.6911111111111111,-0.1875,0.125,-0.0625
1589542965.0724285,0.13,-4.22,8.79,0.4577777777777778,0.3233333333333333,-0.6911111111111111,0.0,-0.1875,-0.125
1589542965.0826027,0.12,-4.23,8.73,0.4577777777777778,0.3233333333333333,-0.6911111111111111,0.1875,0.0,0.0625
1589542965.092514,0.14,-4.22,8.79,0.4577777777777778,0.3233333333333333,-0.6911111111111111,0.1875,0.0,0.0625
1589542965.1096284,0.12,-4.23,8.81,0.4577777777777778,0.3233333333333333,-0.6911111111111111,0.0625,-0.125,0.0
1589542965.1158373,0.13,-4.22,8.8,0.4511111111111111,0.3233333333333333,-0.7055555555555556,-0.125,-0.0625,0.0
1589542965.1285734,0.12,-4.23,8.74,0.4511111111111111,0.3233333333333333,-0.7055555555555556,-0.0625,0.0,0.0625
1589542965.1348796,0.14,-4.2,8.71,0.4511111111111111,0.3233333333333333,-0.7055555555555556,0.25,0.0625,0.0625
1589542965.1454148,0.13,-4.2,8.77,0.4511111111111111,0.3233333333333333,-0.7055555555555556,0.25,-0.0625,-0.125
