time,acc_x,acc_y,acc_z,mag_x,mag_y,mag_z,gyr_x,gyr_y,gyr_z
1589543153.971741,0.03,-4.31,8.71,0.43666666666666665,0.28,-0.6266666666666667,-0.125,0.0,0.25
1589543153.9858422,0.02,-4.3,8.75,0.43666666666666665,0.28,-0.6266666666666667,-0.1875,-0.0625,0.0625
1589543153.9920642,0.03,-4.3,8.78,0.4122222222222222,0.2855555555555556,-0.6433333333333333,-0.0625,-0.1875,0.0625
1589543154.0002036,0.02,-4.3,8.8,0.4122222222222222,0.2855555555555556,-0.6433333333333333,0.0,0.0,0.125
1589543154.0098224,0.03,-4.31,8.72,0.4122222222222222,0.2855555555555556,-0.6433333333333333,0.0625,-0.0625,0.125
1589543154.0202336,0.05,-4.29,8.78,0.4122222222222222,0.2855555555555556,-0.6433333333333333,0.0625,0.25,0.125
1589543154.0386662,0.01,-4.3,8.8,0.4122222222222222,0.2855555555555556,-0.6433333333333333,0.1875,0.3125,0.25
1589543154.044717,0.02,-4.3,8.82,0.4444444444444444,0.2855555555555556,-0.6433333333333333,0.0625,0.4375,0.0625
1589543154.0508685,0.02,-4.32,8.79,0.4444444444444444,0.2855555555555556,-0.6433333333333333,0.0625,0.25,0.125
1589543154.0628724,0.03,-4.29,8.69,0.4444444444444444,0.2855555555555556,-0.6433333333333333,-0.125,0.0,0.0625
1589543154.070191,0.01,-4.31,8.72,0.4444444444444444,0.2855555555555556,-0.6433333333333333,-0.125,0.125,0.125
1589543154.0828052,0.02,-4.31,8.75,0.4444444444444444,0.2855555555555556,-0.6433333333333333,-0.125,-0.0625,0.0625
1589543154.0933232,0.01,-4.28,8.77,0.4511111111111111,0.2855555555555556,-0.6433333333333333,-0.1875,0.0,0.125
1589543154.1004624,0.0,-4.29,8.81,0.4511111111111111,0.2855555555555556,-0.6433333333333333,-0.125,0.0,0.0625
1589543154.1155775,0.01,-4.3,8.71,0.4511111111111111,0.2855555555555556,-0.6433333333333333,0.0,0.0,0.125
1589543154.1215296,0.01,-4.32,8.74,0.4511111111111111,0.2855555555555556,-0.6433333333333333,-0.0625,0.0625,-0.0625
1589543154.136589,0.02,-4.29,8.81,0.4511111111111111,0.2855555555555556,-0.6433333333333333,-0.125,0.0,0.0625
1589543154.1427276,0.02,-4.32,8.84,0.4122222222222222,0.2855555555555556,-0.6355555555555555,0.0,0.1875,0.125
1589543154.1516652,0.01,-4.3,8.78,0.4122222222222222,0.2855555555555556,-0.6355555555555555,-0.0625,-0.0625,0.0
1589543154.1605294,0.01,-4.31,8.67,0.4122222222222222,0.2855555555555556,-0.6355555555555555,-0.125,-0.0625,0.0625
1589543154.1711967,0.02,-4.29,8.72,0.4122222222222222,0.2855555555555556,-0.6355555555555555,-0.125,-0.125,0.0625
1589543154.1835294,0.03,-4.31,8.77,0.4122222222222222,0.2855555555555556,-0.6355555555555555,-0.1875,-0.1875,0.1875
1589543154.1944273,0.02,-4.29,8.78,0.4444444444444444,0.2855555555555556,-0.6355555555555555,-0.25,-0.25,-0.0625
1589543154.201377,0.03,-4.29,8.8,0.4444444444444444,0.2855555555555556,-0.6355555555555555,-0.125,-0.125,0.125
1589543154.2112982,0.0,-4.3,8.69,0.4444444444444444,0.2855555555555556,-0.6355555555555555,-0.3125,0.0,0.0
1589543154.2214437,0.01,-4.29,8.73,0.4444444444444444,0.2855555555555556,-0.6355555555555555,-0.4375,-0.1875,0.0625
1589543154.2340784,0.01,-4.31,8.78,0.4444444444444444,0.2855555555555556,-0.6355555555555555,-0.5625,-0.5625,0.25
1589543154.241735,0.0,-4.33,8.81,0.4566666666666666,0.3,-0.6355555555555555,-0.75,-0.9375,0.125
1589543154.250877,0.0,-4.31,8.78,0.4566666666666666,0.3,-0.6355555555555555,-0.6875,-1.0,0.1875
1589543154.2611823,0.03,-4.32,8.68,0.4566666666666666,0.3,-0.6355555555555555,-0.625,-0.8125,0.1875
1589543154.2727015,0.0,-4.32,8.7,0.4566666666666666,0.3,-0.6355555555555555,-0.5,-0.9375,0.0
1589543154.2882378,0.03,-4.3,8.72,0.4566666666666666,0.3,-0.6355555555555555,-0.4375,-1.0,0.125
1589543154.29378,0.05,-4.32,8.81,0.4566666666666666,0.2933333333333333,-0.6288888888888889,-0.8125,-1.5,0.125
1589543154.302089,0.02,-4.31,8.76,0.4566666666666666,0.2933333333333333,-0.6288888888888889,-0.625,-1.1875,0.0
1589543154.3115811,0.02,-4.32,8.66,0.4566666666666666,0.2933333333333333,-0.6288888888888889,-0.6875,-1.0625,0.0625
1589543154.3255513,0.02,-4.31,8.78,0.4566666666666666,0.2933333333333333,-0.6288888888888889,-1.0625,-1.5625,0.0625
1589543154.3344474,0.03,-4.31,8.79,0.4566666666666666,0.2933333333333333,-0.6288888888888889,-1.0625,-1.6875,-0.0625
1589543154.3458474,0.05,-4.31,8.82,0.4444444444444444,0.2855555555555556,-0.6355555555555555,-1.0625,-1.5,-0.1875
1589543154.352449,0.07,-4.31,8.88,0.4444444444444444,0.2855555555555556,-0.6355555555555555,-0.875,-1.375,-0.3125
1589543154.362134,0.07,-4.29,8.72,0.4444444444444444,0.2855555555555556,-0.6355555555555555,-0.8125,-0.875,-0.4375
1589543154.372343,0.1,-4.26,8.76,0.4444444444444444,0.2855555555555556,-0.6355555555555555,-1.0,-0.9375,-0.75
1589543154.3845634,0.11,-4.23,8.76,0.4444444444444444,0.2855555555555556,-0.6355555555555555,-0.6875,-0.875,-1.0
1589543154.3927286,0.07,-4.14,8.77,0.43666666666666665,0.2933333333333333,-0.6355555555555555,-0.5,-0.6875,-1.5
1589543154.4025855,0.08,-4.05,8.74,0.43666666666666665,0.2933333333333333,-0.6355555555555555,-0.4375,-0.5,-2.375
1589543154.412353,0.1,-4.02,8.7,0.43666666666666665,0.2933333333333333,-0.6355555555555555,-1.0,-0.8125,-3.0
1589543154.4218981,0.08,-4.0,8.72,0.43666666666666665,0.2933333333333333,-0.6355555555555555,-1.3125,-1.1875,-3.9375
1589543154.4406047,-0.43,-3.69,8.72,0.43666666666666665,0.2933333333333333,-0.6355555555555555,-1.3125,-0.875,-4.9375
1589543154.4469967,0.12,-3.78,9.19,0.4188888888888889,0.2933333333333333,-0.6355555555555555,-2.0,-1.5625,-5.0625
1589543154.4535568,0.11,-3.79,8.71,0.4188888888888889,0.2933333333333333,-0.6355555555555555,-1.4375,-0.375,-3.625
1589543154.46475,0.11,-3.87,8.85,0.4188888888888889,0.2933333333333333,-0.6355555555555555,-0.9375,0.125,-2.9375
1589543154.4760482,0.15,-3.76,8.72,0.4188888888888889,0.2933333333333333,-0.6355555555555555,-2.3125,-1.75,-2.875
1589543154.4844575,-0.03,-3.5,8.53,0.4188888888888889,0.2933333333333333,-0.6355555555555555,-2.1875,-1.3125,-3.1875
1589543154.4955115,-0.54,-3.03,8.56,0.4444444444444444,0.2855555555555556,-0.6433333333333333,-2.9375,-2.875,-4.25
1589543154.5015776,0.05,-3.44,8.9,0.4444444444444444,0.2855555555555556,-0.6433333333333333,-4.875,-5.5,-4.625
1589543154.5108378,0.05,-3.44,8.9,0.4444444444444444,0.2855555555555556,-0.6433333333333333,-4.875,-5.5,-4.625
1589543154.522216,0.25,-3.36,8.81,0.4444444444444444,0.2855555555555556,-0.6433333333333333,-1.25,-0.6875,3.625
1589543154.5348682,-0.23,-3.24,8.89,0.4444444444444444,0.2855555555555556,-0.6433333333333333,-1.3125,-2.0625,5.0625
1589543154.5432944,-0.24,-3.31,8.24,0.4566666666666666,0.30666666666666664,-0.6577777777777778,3.125,2.625,8.0625
1589543154.555615,-0.18,-3.38,8.88,0.4566666666666666,0.30666666666666664,-0.6577777777777778,3.9375,2.1875,16.625
1589543154.5623994,-0.17,-3.44,9.05,0.4566666666666666,0.30666666666666664,-0.6577777777777778,-2.0,-3.0,23.6875
1589543154.573473,-0.22,-3.51,8.7,0.4566666666666666,0.30666666666666664,-0.6577777777777778,0.1875,-1.3125,31.0
1589543154.5857193,-0.26,-3.43,8.89,0.4566666666666666,0.30666666666666664,-0.6577777777777778,0.9375,-1.1875,37.625
1589543154.5927546,-0.19,-3.51,8.79,0.4444444444444444,0.3,-0.6355555555555555,-0.25,-2.3125,44.1875
1589543154.6033595,-0.21,-3.5,8.81,0.4444444444444444,0.3,-0.6355555555555555,0.375,-2.3125,50.5625
1589543154.613498,-0.21,-3.54,8.74,0.4444444444444444,0.3,-0.6355555555555555,0.25,-2.8125,56.0
1589543154.625796,-0.21,-3.53,8.74,0.4444444444444444,0.3,-0.6355555555555555,0.0625,-3.375,60.4375
1589543154.6369429,-0.15,-3.45,8.64,0.4444444444444444,0.3,-0.6355555555555555,0.5625,-2.875,64.125
1589543154.6484525,-0.15,-3.49,8.91,0.4566666666666666,0.2933333333333333,-0.6433333333333333,0.0625,-3.625,66.6875
1589543154.6555276,-0.25,-3.72,8.72,0.4566666666666666,0.2933333333333333,-0.6433333333333333,0.125,-3.4375,66.9375
1589543154.6684275,-0.28,-3.71,8.75,0.4566666666666666,0.2933333333333333,-0.6433333333333333,0.75,-2.6875,67.625
1589543154.675112,-0.3,-3.69,8.82,0.4566666666666666,0.2933333333333333,-0.6433333333333333,0.3125,-3.5,69.3125
1589543154.6877012,-0.41,-3.77,8.82,0.4566666666666666,0.2933333333333333,-0.6433333333333333,0.4375,-2.9375,70.5625
1589543154.6939633,-0.45,-3.85,8.8,0.4511111111111111,0.2533333333333333,-0.65,0.25,-3.25,72.125
1589543154.7069874,-0.47,-3.89,8.81,0.4511111111111111,0.2533333333333333,-0.65,0.25,-3.375,73.6875
1589543154.7145991,-0.47,-3.81,8.68,0.4511111111111111,0.2533333333333333,-0.65,0.25,-3.6875,75.1875
1589543154.72614,-0.49,-3.8,8.78,0.4511111111111111,0.2533333333333333,-0.65,0.375,-3.75,76.625
1589543154.737602,-0.51,-3.81,8.7,0.4511111111111111,0.2533333333333333,-0.65,0.5,-3.625,77.375
1589543154.7471573,-0.52,-3.85,8.77,0.4633333333333333,0.2222222222222222,-0.6433333333333333,0.375,-3.8125,77.3125
1589543154.7536616,-0.58,-3.84,8.76,0.4633333333333333,0.2222222222222222,-0.6433333333333333,0.375,-3.8125,77.3125
1589543154.7651865,-0.63,-3.9,8.75,0.4633333333333333,0.2222222222222222,-0.6433333333333333,0.4375,-3.8125,76.75
1589543154.7775187,-0.66,-3.87,8.79,0.4633333333333333,0.2222222222222222,-0.6433333333333333,0.4375,-3.5,74.875
1589543154.7876768,-0.72,-3.82,8.87,0.4633333333333333,0.2222222222222222,-0.6433333333333333,0.1875,-3.5625,73.625
1589543154.7996473,-0.72,-3.73,8.83,0.49,0.20777777777777776,-0.6711111111111111,0.3125,-3.125,71.9375
1589543154.8052142,-0.77,-3.76,8.83,0.49,0.20777777777777776,-0.6711111111111111,0.3125,-3.6875,70.5
1589543154.8196266,-0.73,-3.8,8.71,0.49,0.20777777777777776,-0.6711111111111111,0.1875,-3.6875,68.5
1589543154.8263788,-0.88,-3.79,8.77,0.49,0.20777777777777776,-0.6711111111111111,0.1875,-3.3125,66.5625
1589543154.8379214,-0.85,-3.88,8.76,0.49,0.20777777777777776,-0.6711111111111111,0.1875,-3.125,65.25
1589543154.844296,-0.83,-3.8,8.82,0.5166666666666667,0.17333333333333334,-0.6788888888888889,0.1875,-3.0625,62.5625
1589543154.8585966,-0.9,-3.91,8.81,0.5166666666666667,0.17333333333333334,-0.6788888888888889,0.5,-2.5625,60.3125
1589543154.8647616,-1.04,-3.82,8.74,0.5166666666666667,0.17333333333333334,-0.6788888888888889,0.5,-2.625,58.1875
1589543154.8756495,-1.02,-3.7,8.78,0.5166666666666667,0.17333333333333334,-0.6788888888888889,0.5625,-2.625,57.0625
1589543154.893204,-0.98,-3.74,8.87,0.5166666666666667,0.17333333333333334,-0.6788888888888889,0.3125,-2.75,55.1875
1589543154.8988652,-1.26,-3.84,8.88,0.5166666666666667,0.16111111111111112,-0.6788888888888889,0.125,-2.25,54.0625
1589543154.9045124,-1.29,-3.82,8.8,0.5166666666666667,0.16111111111111112,-0.6788888888888889,0.4375,-2.4375,54.3125
1589543154.9144664,-1.26,-3.75,8.75,0.5166666666666667,0.16111111111111112,-0.6788888888888889,0.0625,-3.0,54.4375
1589543154.9282274,-1.27,-3.84,8.81,0.5166666666666667,0.16111111111111112,-0.6788888888888889,0.125,-2.875,54.0625
1589543154.9375224,-1.31,-3.74,8.83,0.5166666666666667,0.16111111111111112,-0.6788888888888889,0.0,-2.6875,53.4375
1589543154.9508634,-1.45,-3.83,8.86,0.5366666666666666,0.12222222222222222,-0.6977777777777778,0.125,-2.8125,53.0
1589543154.957431,-1.39,-3.67,8.78,0.5366666666666666,0.12222222222222222,-0.6977777777777778,0.3125,-2.75,53.6875
1589543154.9708664,-1.56,-3.59,8.73,0.5366666666666666,0.12222222222222222,-0.6977777777777778,0.625,-2.3125,54.9375
1589543154.9777355,-1.59,-3.58,8.74,0.5366666666666666,0.12222222222222222,-0.6977777777777778,0.75,-2.625,57.625
1589543154.9895976,-1.47,-3.47,8.91,0.5366666666666666,0.12222222222222222,-0.6977777777777778,0.3125,-3.25,60.3125
1589543154.9958308,-1.52,-3.43,8.92,0.5366666666666666,0.11666666666666667,-0.7066666666666667,0.375,-3.125,62.875
1589543155.009388,-1.41,-3.21,8.78,0.5366666666666666,0.11666666666666667,-0.7066666666666667,0.25,-3.4375,65.4375
1589543155.0152922,-1.47,-3.22,8.82,0.5366666666666666,0.11666666666666667,-0.7066666666666667,0.0625,-3.9375,67.875
1589543155.0294096,-1.53,-3.21,8.95,0.5366666666666666,0.11666666666666667,-0.7066666666666667,0.875,-3.25,71.125
1589543155.0364714,-1.5,-3.11,8.73,0.5366666666666666,0.11666666666666667,-0.7066666666666667,0.6875,-3.3125,73.8125
1589543155.0442715,-1.46,-3.08,8.89,0.52,0.07777777777777778,-0.7211111111111111,0.6875,-4.25,75.8125
1589543155.0510216,-1.46,-3.08,8.89,0.52,0.07777777777777778,-0.7211111111111111,0.6875,-4.25,75.8125
1589543155.0579786,-1.46,-3.04,8.84,0.52,0.07777777777777778,-0.7211111111111111,0.8125,-3.1875,77.625
1589543155.0689876,-1.4,-3.01,8.91,0.52,0.07777777777777778,-0.7211111111111111,0.875,-2.625,79.1875
1589543155.0758975,-1.43,-2.93,9.15,0.52,0.07777777777777778,-0.7211111111111111,0.6875,-4.0625,80.1875
1589543155.0880175,-1.53,-2.9,8.66,0.52,0.07777777777777778,-0.7211111111111111,1.0,-3.5,81.75
1589543155.101681,-1.65,-3.01,9.09,0.52,0.057777777777777775,-0.7288888888888889,0.75,-2.4375,83.875
1589543155.108341,-1.59,-2.93,8.95,0.52,0.057777777777777775,-0.7288888888888889,0.9375,-3.5,85.875
1589543155.122062,-1.61,-2.79,8.67,0.52,0.057777777777777775,-0.7288888888888889,1.25,-1.75,88.375
1589543155.1280365,-1.62,-2.79,8.86,0.52,0.057777777777777775,-0.7288888888888889,0.875,-3.0625,91.125
1589543155.1430485,-1.62,-2.76,9.14,0.52,0.057777777777777775,-0.7288888888888889,1.0,-2.1875,93.9375
1589543155.1483364,-1.68,-2.67,8.6,0.5155555555555555,0.012222222222222223,-0.7555555555555555,1.125,-2.375,96.625
1589543155.1610048,-1.58,-2.76,9.15,0.5155555555555555,0.012222222222222223,-0.7555555555555555,0.8125,-6.0625,99.5
1589543155.1672099,-1.68,-2.68,8.91,0.5155555555555555,0.012222222222222223,-0.7555555555555555,1.375,-3.25,102.6875
1589543155.1807072,-1.48,-2.41,8.22,0.5155555555555555,0.012222222222222223,-0.7555555555555555,0.5625,-4.9375,105.3125
1589543155.1876454,-1.7,-2.58,9.07,0.5155555555555555,0.012222222222222223,-0.7555555555555555,-0.125,-5.875,108.1875
1589543155.1956947,-1.53,-2.36,8.55,0.5155555555555555,-0.027777777777777776,-0.7688888888888888,1.5625,-4.125,110.875
1589543155.2058527,-1.39,-2.27,8.68,0.5155555555555555,-0.027777777777777776,-0.7688888888888888,-0.1875,-6.0,112.0625
1589543155.216328,-1.31,-2.15,8.8,0.5155555555555555,-0.027777777777777776,-0.7688888888888888,-1.125,-7.9375,112.75
1589543155.2265446,-1.68,-2.3,9.08,0.5155555555555555,-0.027777777777777776,-0.7688888888888888,0.1875,-3.875,114.5
1589543155.2402613,-1.51,-2.12,8.44,0.5155555555555555,-0.027777777777777776,-0.7688888888888888,0.75,-3.875,116.375
1589543155.2459614,-1.64,-2.26,8.82,0.5022222222222222,-0.06888888888888889,-0.7911111111111111,-2.5,-6.4375,117.8125
1589543155.2565238,-1.67,-2.11,8.44,0.5022222222222222,-0.06888888888888889,-0.7911111111111111,0.5,-4.5,119.0625
1589543155.2658858,-1.77,-2.18,8.61,0.5022222222222222,-0.06888888888888889,-0.7911111111111111,1.0625,-2.375,120.1875
1589543155.275834,-1.55,-2.09,9.12,0.5022222222222222,-0.06888888888888889,-0.7911111111111111,-0.4375,-7.5,121.25
1589543155.2878866,-1.79,-2.16,9.57,0.5022222222222222,-0.06888888888888889,-0.7911111111111111,1.8125,-3.25,123.3125
1589543155.2997475,-1.62,-1.99,9.0,0.5022222222222222,-0.14,-0.7833333333333333,-1.125,-4.25,124.4375
1589543155.3092306,-1.66,-2.03,9.67,0.5022222222222222,-0.14,-0.7833333333333333,-2.5,-5.0625,125.8125
1589543155.318717,-1.83,-1.96,8.65,0.5022222222222222,-0.14,-0.7833333333333333,1.875,-1.875,127.5
1589543155.3318114,-2.08,-2.05,8.93,0.5022222222222222,-0.14,-0.7833333333333333,-0.125,-4.0,129.25
1589543155.3380554,-2.13,-2.11,9.09,0.5022222222222222,-0.14,-0.7833333333333333,-0.8125,-5.625,131.125
1589543155.3464994,-2.27,-2.04,8.72,0.4622222222222222,-0.24,-0.7977777777777778,-0.25,-3.875,131.5
1589543155.3579035,-2.07,-1.9,8.97,0.4622222222222222,-0.24,-0.7977777777777778,-1.75,-5.5625,132.1875
1589543155.3680618,-2.07,-1.88,9.07,0.4622222222222222,-0.24,-0.7977777777777778,-1.875,-5.625,132.1875
1589543155.3764892,-1.96,-1.72,8.78,0.4622222222222222,-0.24,-0.7977777777777778,0.375,-4.0625,130.25
1589543155.3896205,-1.9,-1.54,8.75,0.4622222222222222,-0.24,-0.7977777777777778,0.25,-4.5625,127.4375
1589543155.396392,-1.5,-1.47,9.14,0.4066666666666667,-0.31777777777777777,-0.7855555555555556,-1.4375,-6.75,123.3125
1589543155.4088295,-1.63,-1.46,9.19,0.4066666666666667,-0.31777777777777777,-0.7855555555555556,0.0625,-4.0625,119.5625
1589543155.4170976,-1.72,-1.36,8.38,0.4066666666666667,-0.31777777777777777,-0.7855555555555556,1.1875,-1.875,116.5
1589543155.4267626,-2.05,-1.52,8.7,0.4066666666666667,-0.31777777777777777,-0.7855555555555556,-0.4375,-5.8125,112.875
1589543155.438602,-2.33,-1.55,9.26,0.4066666666666667,-0.31777777777777777,-0.7855555555555556,0.0,-5.875,111.5
1589543155.4491842,-2.49,-1.5,8.68,0.31777777777777777,-0.38333333333333336,-0.8033333333333333,0.25,-2.5625,110.875
1589543155.4605136,-2.09,-1.33,8.51,0.31777777777777777,-0.38333333333333336,-0.8033333333333333,-0.625,-4.5,110.125
1589543155.4677866,-1.94,-1.27,9.16,0.31777777777777777,-0.38333333333333336,-0.8033333333333333,-0.625,-6.875,108.75
1589543155.477562,-2.1,-1.22,8.72,0.31777777777777777,-0.38333333333333336,-0.8033333333333333,2.625,-1.8125,107.5625
1589543155.4889429,-2.05,-1.16,8.54,0.31777777777777777,-0.38333333333333336,-0.8033333333333333,0.5625,-1.75,104.6875
1589543155.4964876,-2.08,-1.16,8.52,0.2433333333333333,-0.4133333333333333,-0.7177777777777777,-1.375,-7.625,101.4375
1589543155.5087671,-1.96,-0.98,8.93,0.2433333333333333,-0.4133333333333333,-0.7177777777777777,-0.0625,-8.0625,99.25
1589543155.5220888,-2.14,-0.94,7.88,0.2433333333333333,-0.4133333333333333,-0.7177777777777777,1.8125,-2.0,96.25
1589543155.5287929,-2.45,-1.09,9.66,0.2433333333333333,-0.4133333333333333,-0.7177777777777777,-2.375,-8.5,89.4375
1589543155.542645,-2.55,-0.97,9.11,0.2433333333333333,-0.4133333333333333,-0.7177777777777777,0.25,-3.875,84.375
1589543155.548728,-2.59,-0.87,9.28,0.2411111111111111,-0.4,-0.6755555555555556,0.3125,-3.9375,78.25
1589543155.5616193,-2.57,-0.8,8.75,0.2411111111111111,-0.4,-0.6755555555555556,-0.0625,-3.9375,72.625
1589543155.5675356,-2.36,-0.73,8.8,0.2411111111111111,-0.4,-0.6755555555555556,-1.6875,-4.4375,65.25
1589543155.5776336,-2.22,-0.67,9.07,0.2411111111111111,-0.4,-0.6755555555555556,-0.875,-4.9375,56.5
1589543155.5893998,-2.48,-0.64,8.77,0.2411111111111111,-0.4,-0.6755555555555556,0.4375,-1.875,47.3125
1589543155.600009,-2.47,-0.66,8.95,0.25555555555555554,-0.4133333333333333,-0.6533333333333333,-1.0625,-3.3125,38.0625
1589543155.612343,-2.34,-0.72,9.37,0.25555555555555554,-0.4133333333333333,-0.6533333333333333,-1.0,-3.5625,32.0
1589543155.6191633,-2.38,-0.56,8.82,0.25555555555555554,-0.4133333333333333,-0.6533333333333333,-1.9375,-3.0625,27.25
1589543155.628167,-1.56,-0.17,9.57,0.25555555555555554,-0.4133333333333333,-0.6533333333333333,-4.5625,-7.5,20.8125
1589543155.6394818,-1.42,-0.58,9.49,0.25555555555555554,-0.4133333333333333,-0.6533333333333333,-1.8125,-2.5625,8.6875
1589543155.6471481,-2.36,-0.69,8.82,0.2877777777777778,-0.41,-0.6533333333333333,0.4375,4.125,-8.5625
1589543155.662543,-2.45,-0.77,8.99,0.2877777777777778,-0.41,-0.6533333333333333,1.0,2.375,-17.625
1589543155.6742346,-1.77,-0.52,8.07,0.2877777777777778,-0.41,-0.6533333333333333,1.75,0.125,-23.3125
1589543155.6810114,-2.01,-0.55,10.29,0.2877777777777778,-0.41,-0.6533333333333333,1.9375,-3.875,-31.8125
1589543155.6924314,-1.73,-0.59,8.57,0.2877777777777778,-0.41,-0.6533333333333333,-0.625,3.4375,-43.875
1589543155.6986027,-2.17,-0.85,9.84,0.2855555555555556,-0.4133333333333333,-0.6677777777777778,-3.5,-1.0625,-57.125
1589543155.7128446,-1.92,-0.79,8.78,0.2855555555555556,-0.4133333333333333,-0.6677777777777778,0.1875,3.625,-67.875
1589543155.7187126,-2.03,-0.84,8.41,0.2855555555555556,-0.4133333333333333,-0.6677777777777778,-0.625,4.0,-78.125
1589543155.7286675,-1.88,-1.08,9.09,0.2855555555555556,-0.4133333333333333,-0.6677777777777778,-3.125,0.8125,-88.8125
1589543155.7401786,-1.84,-0.98,8.91,0.2855555555555556,-0.4133333333333333,-0.6677777777777778,-1.25,4.0,-97.6875
1589543155.7518668,-2.06,-1.15,9.18,0.31222222222222223,-0.4,-0.6466666666666666,-0.625,4.5625,-107.5
1589543155.758153,-1.8,-1.16,8.81,0.31222222222222223,-0.4,-0.6466666666666666,-0.8125,5.8125,-116.625
1589543155.7693346,-1.69,-1.26,9.08,0.31222222222222223,-0.4,-0.6466666666666666,-2.625,3.5,-126.6875
1589543155.7782502,-1.76,-1.36,8.98,0.31222222222222223,-0.4,-0.6466666666666666,-2.625,4.75,-137.125
1589543155.7934105,-1.19,-1.34,8.66,0.31222222222222223,-0.4,-0.6466666666666666,-1.5,6.5625,-147.0
1589543155.7993321,-2.24,-1.69,9.05,0.3555555555555556,-0.3855555555555555,-0.6844444444444444,-1.625,6.75,-156.625
1589543155.810473,-2.37,-1.76,8.67,0.3555555555555556,-0.3855555555555555,-0.6844444444444444,-1.8125,8.875,-162.6875
1589543155.819247,-1.8,-1.77,8.78,0.3555555555555556,-0.3855555555555555,-0.6844444444444444,-2.1875,6.5625,-164.0
1589543155.8303542,-2.5,-2.12,9.02,0.3555555555555556,-0.3855555555555555,-0.6844444444444444,-1.875,6.25,-166.8125
1589543155.8449063,-2.23,-1.99,8.37,0.3555555555555556,-0.3855555555555555,-0.6844444444444444,-0.875,9.6875,-167.5625
1589543155.8514106,-1.88,-2.17,9.51,0.3888888888888889,-0.46,-0.67,-2.0,6.875,-167.75
1589543155.8638911,-1.51,-2.02,8.6,0.3888888888888889,-0.46,-0.67,-1.375,7.875,-171.375
1589543155.870178,-1.32,-2.34,9.52,0.3888888888888889,-0.46,-0.67,-2.25,6.4375,-177.75
1589543155.8822017,-1.12,-2.11,7.92,0.3888888888888889,-0.46,-0.67,-1.25,10.6875,-186.375
1589543155.8908412,-1.47,-2.59,9.17,0.3888888888888889,-0.46,-0.67,-2.6875,8.6875,-195.9375
1589543155.8995395,-1.69,-2.73,7.69,0.5733333333333334,-0.9822222222222222,-0.4155555555555556,-1.75,9.125,-202.875
1589543155.9092927,-1.54,-2.95,8.78,0.5733333333333334,-0.9822222222222222,-0.4155555555555556,0.6875,13.6875,-204.875
1589543155.9235241,-1.98,-3.27,9.76,0.5733333333333334,-0.9822222222222222,-0.4155555555555556,-4.5625,4.75,-211.0625
1589543155.929433,-1.84,-3.18,8.51,0.5733333333333334,-0.9822222222222222,-0.4155555555555556,-1.0,11.1875,-212.75
1589543155.9443204,-1.61,-3.38,9.4,0.5733333333333334,-0.9822222222222222,-0.4155555555555556,-0.6875,10.5625,-213.9375
1589543155.9507744,-1.52,-3.45,9.0,0.8777777777777778,-0.5255555555555556,-0.6788888888888889,-3.6875,6.75,-217.0625
1589543155.9625008,-1.58,-3.54,8.56,0.8777777777777778,-0.5255555555555556,-0.6788888888888889,-1.5625,11.125,-218.5625
1589543155.9696426,-1.43,-3.71,8.77,0.8777777777777778,-0.5255555555555556,-0.6788888888888889,-1.5,9.3125,-220.75
1589543155.979681,-1.41,-3.85,8.92,0.8777777777777778,-0.5255555555555556,-0.6788888888888889,-2.25,9.1875,-222.5625
1589543155.9968805,-1.82,-4.2,8.95,0.8777777777777778,-0.5255555555555556,-0.6788888888888889,-1.625,9.875,-222.75
1589543156.002417,-1.61,-4.08,8.6,0.6,-0.11333333333333333,-0.7122222222222222,-0.9375,11.1875,-220.8125
1589543156.0149055,-1.41,-4.34,8.83,0.6,-0.11333333333333333,-0.7122222222222222,-1.75,9.5,-217.625
1589543156.0208528,-1.6,-4.55,8.74,0.6,-0.11333333333333333,-0.7122222222222222,-1.3125,9.5,-212.3125
1589543156.035248,-1.62,-4.46,8.63,0.6,-0.11333333333333333,-0.7122222222222222,-0.8125,9.75,-205.5625
1589543156.0416212,-1.48,-4.25,8.83,0.6,-0.11333333333333333,-0.7122222222222222,-1.8125,8.5,-199.0625
1589543156.0537615,-1.37,-4.27,8.73,0.5688888888888889,0.03,-0.7388888888888889,-1.6875,8.0625,-194.1875
1589543156.0598695,-0.93,-3.92,9.12,0.5688888888888889,0.03,-0.7388888888888889,-1.9375,7.1875,-192.125
1589543156.0742588,-1.06,-4.12,8.85,0.5688888888888889,0.03,-0.7388888888888889,-1.125,8.375,-191.0
1589543156.0802915,-0.99,-4.21,8.89,0.5688888888888889,0.03,-0.7388888888888889,0.9375,10.3125,-189.75
1589543156.0933852,-0.9,-4.14,8.85,0.5688888888888889,0.03,-0.7388888888888889,-1.6875,7.8125,-188.4375
1589543156.1000574,-0.97,-4.35,9.01,0.5511111111111111,0.11666666666666667,-0.7466666666666667,-1.4375,8.0,-184.6875
1589543156.1106324,-0.95,-4.31,8.62,0.5511111111111111,0.11666666666666667,-0.7466666666666667,-0.625,8.9375,-180.75
1589543156.1204224,-0.77,-4.01,9.04,0.5511111111111111,0.11666666666666667,-0.7466666666666667,-1.125,7.6875,-177.3125
1589543156.130719,-0.74,-4.03,8.94,0.5511111111111111,0.11666666666666667,-0.7466666666666667,-0.75,6.5,-173.8125
1589543156.1447222,-0.76,-4.37,9.01,0.5511111111111111,0.11666666666666667,-0.7466666666666667,0.625,9.75,-169.25
1589543156.1510813,-21.38,-27.86,4.45,0.4955555555555556,0.1988888888888889,-0.7244444444444444,1.0625,10.375,-164.6875
1589543156.1609905,-11.02,-6.5,7.26,0.4955555555555556,0.1988888888888889,-0.7244444444444444,-44.1875,31.6875,-288.8125
1589543156.1728628,-16.03,-16.39,2.75,0.4955555555555556,0.1988888888888889,-0.7244444444444444,-230.1875,-84.125,-839.5
1589543156.1809454,-2.96,-2.71,11.72,0.4955555555555556,0.1988888888888889,-0.7244444444444444,-231.125,140.375,-524.875
1589543156.192587,-1.25,-3.8,15.99,0.4955555555555556,0.1988888888888889,-0.7244444444444444,-155.9375,76.375,-382.1875
1589543156.2029965,-1.51,-1.93,3.97,0.43,0.3477777777777778,-0.6944444444444444,-85.5625,27.0625,-336.0
1589543156.2123005,-0.63,-2.41,10.82,0.43,0.3477777777777778,-0.6944444444444444,11.25,52.875,-291.0
1589543156.2256527,-0.43,-1.74,7.86,0.43,0.3477777777777778,-0.6944444444444444,84.6875,38.0,-256.4375
1589543156.2329464,-0.21,-2.47,7.53,0.43,0.3477777777777778,-0.6944444444444444,159.1875,37.125,-232.25
1589543156.245873,7.19,-15.99,13.38,0.43,0.3477777777777778,-0.6944444444444444,226.5,31.25,-214.875
1589543156.251284,-0.86,4.41,9.25,0.2977777777777777,0.5455555555555556,-0.6533333333333333,244.4375,44.6875,-180.0625
1589543156.2612214,0.93,-0.8,10.9,0.2977777777777777,0.5455555555555556,-0.6533333333333333,-11.375,23.5,-95.5625
1589543156.2723966,3.35,-0.95,12.9,0.2977777777777777,0.5455555555555556,-0.6533333333333333,-54.125,-30.25,-58.5625
1589543156.2817106,7.93,-6.15,6.35,0.2977777777777777,0.5455555555555556,-0.6533333333333333,25.9375,-2.9375,-53.875
1589543156.2966988,4.82,-4.15,7.94,0.2977777777777777,0.5455555555555556,-0.6533333333333333,17.4375,24.125,-54.375
1589543156.302898,2.6,-3.42,8.81,0.2533333333333333,0.5111111111111111,-0.6844444444444444,-8.1875,3.5,-54.6875
1589543156.3115401,2.43,-3.81,9.33,0.2533333333333333,0.5111111111111111,-0.6844444444444444,1.5625,-0.3125,-44.25
1589543156.3235445,2.29,-2.28,8.58,0.2533333333333333,0.5111111111111111,-0.6844444444444444,2.0625,2.0625,-27.6875
1589543156.3313744,2.11,-3.85,8.5,0.2533333333333333,0.5111111111111111,-0.6844444444444444,-1.875,0.25,-9.25
1589543156.3437867,2.04,-3.8,8.58,0.2533333333333333,0.5111111111111111,-0.6844444444444444,-1.1875,-0.3125,0.0625
1589543156.354117,2.13,-3.99,8.76,0.22,0.5288888888888889,-0.7055555555555556,-1.25,-0.125,0.0625
1589543156.363233,2.02,-3.64,8.72,0.22,0.5288888888888889,-0.7055555555555556,0.6875,0.375,0.125
1589543156.3755445,2.07,-3.62,8.56,0.22,0.5288888888888889,-0.7055555555555556,1.0625,0.3125,0.1875
1589543156.3820705,2.06,-3.8,8.63,0.22,0.5288888888888889,-0.7055555555555556,0.375,-0.375,0.1875
1589543156.3986988,2.1,-3.91,8.67,0.22,0.5288888888888889,-0.7055555555555556,-1.6875,-0.25,0.0
1589543156.404883,2.05,-3.96,8.79,0.21444444444444444,0.5288888888888889,-0.6844444444444444,-0.4375,-0.4375,0.0625
1589543156.4162972,2.05,-3.71,8.65,0.21444444444444444,0.5288888888888889,-0.6844444444444444,-0.0625,0.0625,0.125
1589543156.4228165,2.0,-3.76,8.78,0.21444444444444444,0.5288888888888889,-0.6844444444444444,1.125,0.125,0.125
1589543156.4334474,2.05,-3.8,8.77,0.21444444444444444,0.5288888888888889,-0.6844444444444444,0.125,-0.125,0.0625
1589543156.4453926,2.06,-3.95,8.7,0.21444444444444444,0.5288888888888889,-0.6844444444444444,-0.6875,-0.4375,0.125
1589543156.4560337,2.09,-3.74,8.57,0.22666666666666666,0.5288888888888889,-0.6966666666666667,0.4375,0.0625,0.0
1589543156.46295,2.03,-3.81,8.75,0.22666666666666666,0.5288888888888889,-0.6966666666666667,0.4375,0.0625,0.0
1589543156.4749072,2.03,-3.78,8.77,0.22666666666666666,0.5288888888888889,-0.6966666666666667,0.6875,0.125,0.25
1589543156.4833474,2.05,-3.84,8.75,0.22666666666666666,0.5288888888888889,-0.6966666666666667,-0.6875,-0.3125,0.0
1589543156.4949396,2.06,-3.78,8.62,0.22666666666666666,0.5288888888888889,-0.6966666666666667,-0.875,-0.5,0.0625
1589543156.5030384,2.06,-3.91,8.68,0.22666666666666666,0.5222222222222223,-0.6822222222222222,-0.375,-0.0625,0.0625
1589543156.512892,2.05,-3.74,8.63,0.22666666666666666,0.5222222222222223,-0.6822222222222222,0.8125,0.0625,0.0625
1589543156.5259616,2.01,-3.83,8.74,0.22666666666666666,0.5222222222222223,-0.6822222222222222,0.5625,0.125,0.25
1589543156.5334525,2.02,-3.7,8.68,0.22666666666666666,0.5222222222222223,-0.6822222222222222,0.0,-0.25,-0.0625
1589543156.5501087,2.06,-3.8,8.72,0.22666666666666666,0.5222222222222223,-0.6822222222222222,-0.9375,-0.4375,0.0625
1589543156.5561168,2.07,-3.81,8.64,0.22666666666666666,0.5222222222222223,-0.6766666666666666,-0.5625,-0.25,0.125
1589543156.5649507,2.07,-3.87,8.72,0.22666666666666666,0.5222222222222223,-0.6766666666666666,0.4375,0.1875,-0.1875
1589543156.572928,2.04,-3.76,8.64,0.22666666666666666,0.5222222222222223,-0.6766666666666666,0.8125,0.25,0.1875
1589543156.5864189,2.04,-3.79,8.76,0.22666666666666666,0.5222222222222223,-0.6766666666666666,0.0625,0.0625,0.125
1589543156.5957115,2.05,-3.77,8.68,0.22666666666666666,0.5222222222222223,-0.6766666666666666,-0.6875,-0.375,0.0625
1589543156.6037564,2.08,-3.87,8.71,0.2344444444444445,0.5366666666666666,-0.7122222222222222,-0.75,-0.1875,0.1875
1589543156.613948,2.07,-3.81,8.64,0.2344444444444445,0.5366666666666666,-0.7122222222222222,0.125,-0.0625,0.0
1589543156.625109,2.05,-3.78,8.67,0.2344444444444445,0.5366666666666666,-0.7122222222222222,0.6875,0.125,0.0625
1589543156.633243,2.03,-3.75,8.73,0.2344444444444445,0.5366666666666666,-0.7122222222222222,0.1875,0.0,0.0625
1589543156.6460214,2.03,-3.78,8.8,0.2344444444444445,0.5366666666666666,-0.7122222222222222,-0.5,-0.3125,0.0
1589543156.6536243,2.08,-3.87,8.67,0.22,0.5155555555555555,-0.6911111111111111,-0.875,-0.375,-0.0625
1589543156.6639495,2.06,-3.85,8.66,0.22,0.5155555555555555,-0.6911111111111111,-0.125,-0.1875,0.0
1589543156.6771538,2.07,-3.79,8.62,0.22,0.5155555555555555,-0.6911111111111111,0.6875,0.25,0.0625
1589543156.684225,2.03,-3.79,8.72,0.22,0.5155555555555555,-0.6911111111111111,0.375,0.0625,0.1875
1589543156.7003837,2.04,-3.8,8.73,0.22,0.5155555555555555,-0.6911111111111111,-0.3125,-0.25,0.0
1589543156.7066696,2.06,-3.79,8.71,0.2344444444444445,0.5288888888888889,-0.7055555555555556,-0.6875,-0.5,0.1875
1589543156.7143257,2.08,-3.83,8.67,0.2344444444444445,0.5288888888888889,-0.7055555555555556,-0.375,-0.1875,0.125
1589543156.727208,2.08,-3.86,8.62,0.2344444444444445,0.5288888888888889,-0.7055555555555556,0.375,-0.0625,0.1875
1589543156.737791,2.03,-3.79,8.74,0.2344444444444445,0.5288888888888889,-0.7055555555555556,0.375,-0.1875,0.125
1589543156.7466342,2.04,-3.77,8.76,0.2344444444444445,0.5288888888888889,-0.7055555555555556,-0.1875,-0.125,0.125
1589543156.7582517,2.04,-3.8,8.73,0.2,0.5222222222222223,-0.7055555555555556,-0.6875,-0.5,0.0625
1589543156.7644095,2.06,-3.84,8.59,0.2,0.5222222222222223,-0.7055555555555556,-0.5625,-0.25,0.0
1589543156.7756767,2.04,-3.83,8.61,0.2,0.5222222222222223,-0.7055555555555556,0.125,0.0625,0.0625
1589543156.7848651,2.06,-3.79,8.7,0.2,0.5222222222222223,-0.7055555555555556,0.8125,0.1875,0.0625
1589543156.796622,2.03,-3.75,8.74,0.2,0.5222222222222223,-0.7055555555555556,0.3125,-0.0625,0.0
1589543156.8043602,2.02,-3.8,8.75,0.22666666666666666,0.5288888888888889,-0.6911111111111111,-0.4375,-0.375,0.125
1589543156.8140767,2.06,-3.82,8.71,0.22666666666666666,0.5288888888888889,-0.6911111111111111,-0.6875,-0.5,0.0
1589543156.8248928,2.07,-3.85,8.57,0.22666666666666666,0.5288888888888889,-0.6911111111111111,-0.1875,-0.25,0.25
1589543156.837585,2.04,-3.79,8.72,0.22666666666666666,0.5288888888888889,-0.6911111111111111,0.375,0.0,0.1875
1589543156.8517313,2.02,-3.76,8.75,0.22666666666666666,0.5288888888888889,-0.6911111111111111,0.25,-0.125,0.0625
1589543156.8578713,2.03,-3.78,8.75,0.2344444444444445,0.5288888888888889,-0.7055555555555556,-0.5625,-0.375,0.125
1589543156.8651075,2.05,-3.81,8.73,0.2344444444444445,0.5288888888888889,-0.7055555555555556,-0.5625,-0.25,0.0625
1589543156.8759878,2.06,-3.84,8.58,0.2344444444444445,0.5288888888888889,-0.7055555555555556,-0.4375,-0.1875,0.125
1589543156.887006,2.06,-3.8,8.67,0.2344444444444445,0.5288888888888889,-0.7055555555555556,0.4375,0.0,0.0
1589543156.8972852,2.03,-3.8,8.72,0.2344444444444445,0.5288888888888889,-0.7055555555555556,0.5625,0.125,0.125
1589543156.9099302,2.06,-3.79,8.75,0.20777777777777776,0.5288888888888889,-0.7177777777777777,0.125,0.0,0.0625
1589543156.9166422,2.06,-3.81,8.71,0.20777777777777776,0.5288888888888889,-0.7177777777777777,-0.5,-0.0625,0.125
1589543156.9300945,2.07,-3.82,8.57,0.20777777777777776,0.5288888888888889,-0.7177777777777777,-0.375,-0.125,0.125
1589543156.9363098,2.05,-3.81,8.64,0.20777777777777776,0.5288888888888889,-0.7177777777777777,-0.0625,-0.1875,0.125
1589543156.9477232,2.04,-3.76,8.76,0.20777777777777776,0.5288888888888889,-0.7177777777777777,0.375,0.0625,0.0625
1589543156.9556892,2.04,-3.78,8.77,0.21444444444444444,0.5155555555555555,-0.6844444444444444,0.125,-0.0625,0.0625
1589543156.9663193,2.04,-3.8,8.7,0.21444444444444444,0.5155555555555555,-0.6844444444444444,-0.5,-0.25,0.1875
1589543156.9753954,2.06,-3.82,8.61,0.21444444444444444,0.5155555555555555,-0.6844444444444444,-0.4375,-0.25,0.125
1589543156.9857588,2.06,-3.81,8.63,0.21444444444444444,0.5155555555555555,-0.6844444444444444,-0.0625,-0.25,0.125
1589543157.003044,2.03,-3.8,8.73,0.21444444444444444,0.5155555555555555,-0.6844444444444444,0.5,-0.0625,0.125
1589543157.0090091,2.06,-3.77,8.76,0.2533333333333333,0.51,-0.6966666666666667,0.1875,-0.0625,0.0625
1589543157.023018,2.07,-3.79,8.68,0.2533333333333333,0.51,-0.6966666666666667,-0.1875,-0.1875,0.0625
1589543157.029159,2.05,-3.85,8.58,0.2533333333333333,0.51,-0.6966666666666667,-0.5,-0.375,0.1875
1589543157.0416758,2.06,-3.83,8.63,0.2533333333333333,0.51,-0.6966666666666667,-0.1875,-0.1875,0.0
1589543157.0481708,2.04,-3.8,8.67,0.2533333333333333,0.51,-0.6966666666666667,0.125,0.0,0.1875
1589543157.060919,2.04,-3.77,8.77,0.2466666666666667,0.5155555555555555,-0.6966666666666667,0.3125,0.0,0.125
1589543157.0676873,2.05,-3.79,8.77,0.2466666666666667,0.5155555555555555,-0.6966666666666667,-0.125,-0.375,0.0625
1589543157.0810034,2.05,-3.82,8.64,0.2466666666666667,0.5155555555555555,-0.6966666666666667,-0.4375,-0.4375,0.0625
1589543157.0869071,2.06,-3.82,8.66,0.2466666666666667,0.5155555555555555,-0.6966666666666667,-0.3125,-0.25,0.125
1589543157.0984669,2.06,-3.79,8.68,0.2466666666666667,0.5155555555555555,-0.6966666666666667,0.125,0.125,-0.0625
1589543157.1057727,2.04,-3.78,8.74,0.2344444444444445,0.5155555555555555,-0.6966666666666667,0.3125,0.0625,0.0
1589543157.116374,2.06,-3.8,8.77,0.2344444444444445,0.5155555555555555,-0.6966666666666667,0.0625,-0.125,0.125
1589543157.1264794,2.05,-3.81,8.63,0.2344444444444445,0.5155555555555555,-0.6966666666666667,-0.4375,-0.1875,0.25
1589543157.1399846,2.06,-3.83,8.65,0.2344444444444445,0.5155555555555555,-0.6966666666666667,-0.375,-0.125,0.1875
1589543157.1481266,2.05,-3.81,8.69,0.2344444444444445,0.5155555555555555,-0.6966666666666667,0.0,0.0,0.1875
1589543157.159483,2.04,-3.78,8.76,0.21444444444444444,0.5288888888888889,-0.7055555555555556,0.3125,0.0,0.1875
1589543157.1662142,2.04,-3.8,8.73,0.21444444444444444,0.5288888888888889,-0.7055555555555556,-0.0625,0.0625,0.0
1589543157.1774492,2.05,-3.81,8.63,0.21444444444444444,0.5288888888888889,-0.7055555555555556,-0.4375,-0.1875,0.0625
1589543157.1860313,2.07,-3.82,8.66,0.21444444444444444,0.5288888888888889,-0.7055555555555556,-0.375,-0.25,0.0
1589543157.1986847,2.05,-3.8,8.71,0.21444444444444444,0.5288888888888889,-0.7055555555555556,-0.1875,-0.1875,0.0625
1589543157.2064474,2.05,-3.8,8.72,0.22,0.5366666666666666,-0.6966666666666667,0.125,0.0,0.1875
1589543157.216616,2.04,-3.79,8.78,0.22,0.5366666666666666,-0.6966666666666667,0.125,-0.0625,0.0625
1589543157.2319438,2.04,-3.79,8.66,0.22,0.5366666666666666,-0.6966666666666667,-0.125,-0.125,0.0
1589543157.2381144,2.06,-3.82,8.65,0.22,0.5366666666666666,-0.6966666666666667,-0.375,0.0,0.125
1589543157.2489164,2.05,-3.82,8.68,0.22,0.5366666666666666,-0.6966666666666667,-0.1875,-0.125,0.0625
1589543157.2561095,2.06,-3.8,8.71,0.22666666666666666,0.5366666666666666,-0.6966666666666667,0.125,-0.0625,0.0
1589543157.270808,2.03,-3.78,8.72,0.22666666666666666,0.5366666666666666,-0.6966666666666667,0.25,-0.0625,0.25
1589543157.2764876,2.03,-3.79,8.64,0.22666666666666666,0.5366666666666666,-0.6966666666666667,-0.125,-0.0625,0.0
1589543157.2910323,2.06,-3.8,8.67,0.22666666666666666,0.5366666666666666,-0.6966666666666667,-0.375,-0.25,0.0625
1589543157.2990036,2.05,-3.81,8.67,0.22666666666666666,0.5366666666666666,-0.6966666666666667,-0.375,-0.25,0.1875
1589543157.3085685,2.07,-3.8,8.73,0.21444444444444444,0.5288888888888889,-0.6966666666666667,0.0625,-0.1875,0.1875
1589543157.3170388,2.04,-3.8,8.77,0.21444444444444444,0.5288888888888889,-0.6966666666666667,0.1875,-0.0625,0.125
1589543157.327125,2.05,-3.8,8.64,0.21444444444444444,0.5288888888888889,-0.6966666666666667,0.0,-0.125,0.0
1589543157.3367682,2.05,-3.82,8.68,0.21444444444444444,0.5288888888888889,-0.6966666666666667,-0.1875,0.0,-0.0625
1589543157.3495564,2.07,-3.82,8.72,0.21444444444444444,0.5288888888888889,-0.6966666666666667,-0.1875,-0.3125,0.125
1589543157.3627927,2.03,-3.82,8.71,0.21444444444444444,0.51,-0.7033333333333334,-0.1875,-0.125,0.125
1589543157.369367,2.05,-3.8,8.75,0.21444444444444444,0.51,-0.7033333333333334,0.1875,0.0625,0.125
1589543157.378007,2.05,-3.79,8.66,0.21444444444444444,0.51,-0.7033333333333334,0.125,-0.0625,0.0625
