time,acc_x,acc_y,acc_z,mag_x,mag_y,mag_z,gyr_x,gyr_y,gyr_z
1589543231.0474837,0.15,-4.38,8.68,0.4544444444444444,0.33555555555555555,-0.6555555555555556,0.0,0.125,0.0625
1589543231.0634458,0.15,-4.35,8.71,0.4544444444444444,0.33555555555555555,-0.6555555555555556,0.0625,0.0,0.0625
1589543231.0712588,0.13,-4.36,8.73,0.4544444444444444,0.33555555555555555,-0.6555555555555556,0.0,-0.0625,0.1875
1589543231.0833511,0.12,-4.36,8.75,0.4477777777777778,0.31555555555555553,-0.65,-0.0625,-0.0625,-0.0625
1589543231.0895493,0.15,-4.35,8.78,0.4477777777777778,0.31555555555555553,-0.65,0.125,-0.1875,-0.0625
1589543231.1020615,0.14,-4.37,8.67,0.4477777777777778,0.31555555555555553,-0.65,0.0,-0.3125,0.0625
1589543231.1081474,0.13,-4.37,8.75,0.4477777777777778,0.31555555555555553,-0.65,0.0625,0.0,0.0
1589543231.1214955,0.14,-4.36,8.81,0.4477777777777778,0.31555555555555553,-0.65,0.125,0.0,0.0
1589543231.1279838,0.12,-4.37,8.83,0.43666666666666665,0.3233333333333333,-0.6433333333333333,0.0,0.1875,-0.0625
1589543231.1396296,0.14,-4.35,8.75,0.43666666666666665,0.3233333333333333,-0.6433333333333333,0.0,0.375,0.0
1589543231.148425,0.13,-4.37,8.67,0.43666666666666665,0.3233333333333333,-0.6433333333333333,0.125,0.25,-0.125
1589543231.1611946,0.13,-4.37,8.73,0.43666666666666665,0.3233333333333333,-0.6433333333333333,-0.0625,0.125,-0.0625
1589543231.1723154,0.14,-4.36,8.71,0.43666666666666665,0.3233333333333333,-0.6433333333333333,0.0625,0.0,0.0625
1589543231.188121,0.15,-4.37,8.72,0.4544444444444444,0.3233333333333333,-0.6355555555555555,0.125,-0.1875,0.0625
1589543231.1996882,0.14,-4.36,8.65,0.4544444444444444,0.3233333333333333,-0.6355555555555555,0.125,-0.25,0.0625
1589543231.2085385,0.13,-4.36,8.7,0.4544444444444444,0.3233333333333333,-0.6355555555555555,0.0625,-0.3125,0.125
1589543231.2220535,0.13,-4.36,8.77,0.4544444444444444,0.3233333333333333,-0.6355555555555555,0.125,0.0,-0.0625
1589543231.2289221,0.16,-4.37,8.82,0.44222222222222224,0.3233333333333333,-0.6711111111111111,0.125,-0.125,0.0
1589543231.2393112,0.15,-4.37,8.83,0.44222222222222224,0.3233333333333333,-0.6711111111111111,0.0,-0.125,-0.0625
1589543231.2509212,0.12,-4.37,8.71,0.44222222222222224,0.3233333333333333,-0.6711111111111111,0.0625,0.0,0.0625
1589543231.2586784,0.13,-4.36,8.76,0.44222222222222224,0.3233333333333333,-0.6711111111111111,-0.125,-0.0625,0.0
1589543231.2723036,0.13,-4.35,8.79,0.44222222222222224,0.3233333333333333,-0.6711111111111111,-0.1875,-0.0625,0.0625
1589543231.2796974,0.12,-4.32,8.78,0.4622222222222222,0.31555555555555553,-0.6433333333333333,-0.125,-0.4375,0.1875
1589543231.2941036,0.16,-4.34,8.74,0.4622222222222222,0.31555555555555553,-0.6433333333333333,-0.375,-0.4375,0.625
1589543231.3003972,0.16,-4.36,8.67,0.4622222222222222,0.31555555555555553,-0.6433333333333333,-0.125,-0.1875,0.5625
1589543231.3100812,0.15,-4.39,8.71,0.4622222222222222,0.31555555555555553,-0.6433333333333333,0.25,0.25,0.6875
1589543231.3225234,0.14,-4.39,8.71,0.4622222222222222,0.31555555555555553,-0.6433333333333333,0.25,0.625,0.9375
1589543231.3331518,0.16,-4.39,8.76,0.4622222222222222,0.3233333333333333,-0.6355555555555555,0.1875,0.5,0.9375
1589543231.339741,0.12,-4.38,8.79,0.4622222222222222,0.3233333333333333,-0.6355555555555555,0.1875,0.3125,0.6875
1589543231.3510606,0.14,-4.37,8.67,0.4622222222222222,0.3233333333333333,-0.6355555555555555,0.1875,0.375,0.4375
1589543231.3596265,0.14,-4.37,8.72,0.4622222222222222,0.3233333333333333,-0.6355555555555555,0.25,0.3125,0.1875
1589543231.3720436,0.11,-4.37,8.77,0.4622222222222222,0.3233333333333333,-0.6355555555555555,0.125,0.0625,0.125
1589543231.3797507,0.14,-4.36,8.82,0.4544444444444444,0.3088888888888889,-0.6577777777777778,-0.0625,-0.125,0.0625
1589543231.3897607,0.13,-4.39,8.75,0.4544444444444444,0.3088888888888889,-0.6577777777777778,0.0,0.0,0.0
1589543231.402976,0.14,-4.35,8.67,0.4544444444444444,0.3088888888888889,-0.6577777777777778,0.0625,0.0,-0.0625
1589543231.4092913,0.12,-4.36,8.7,0.4544444444444444,0.3088888888888889,-0.6577777777777778,-0.125,-0.0625,0.125
1589543231.4230554,0.11,-4.35,8.72,0.4544444444444444,0.3088888888888889,-0.6577777777777778,-0.125,0.1875,0.0625
1589543231.4296017,0.13,-4.37,8.77,0.4544444444444444,0.33,-0.6344444444444445,0.0,0.25,0.0625
1589543231.444891,0.12,-4.37,8.74,0.4544444444444444,0.33,-0.6344444444444445,0.0625,-0.125,0.0625
1589543231.450852,0.12,-4.37,8.67,0.4544444444444444,0.33,-0.6344444444444445,0.0625,0.0625,0.0
1589543231.462903,0.14,-4.36,8.68,0.4544444444444444,0.33,-0.6344444444444445,0.0625,-0.25,0.0625
1589543231.4724712,0.13,-4.35,8.74,0.4544444444444444,0.33,-0.6344444444444445,0.125,-0.0625,-0.0625
1589543231.4801185,0.14,-4.35,8.82,0.4622222222222222,0.33,-0.6433333333333333,-0.125,-0.0625,0.125
1589543231.4892867,0.12,-4.37,8.8,0.4622222222222222,0.33,-0.6433333333333333,-0.125,-0.25,-0.125
1589543231.5033329,0.13,-4.36,8.68,0.4622222222222222,0.33,-0.6433333333333333,-0.125,-0.5625,-0.125
1589543231.509488,0.13,-4.37,8.72,0.4622222222222222,0.33,-0.6433333333333333,-0.5625,-0.625,-0.1875
1589543231.5236561,0.15,-4.37,8.78,0.4622222222222222,0.33,-0.6433333333333333,-0.625,-0.625,-0.125
1589543231.5300984,0.15,-4.37,8.76,0.43666666666666665,0.3233333333333333,-0.6355555555555555,-0.4375,-0.4375,-0.1875
1589543231.5395918,0.15,-4.37,8.69,0.43666666666666665,0.3233333333333333,-0.6355555555555555,-0.5,-0.375,-0.3125
1589543231.5494008,0.15,-4.37,8.65,0.43666666666666665,0.3233333333333333,-0.6355555555555555,-0.5,-0.5,-0.0625
1589543231.559711,0.12,-4.38,8.67,0.43666666666666665,0.3233333333333333,-0.6355555555555555,-0.375,-0.4375,-0.0625
1589543231.576306,0.12,-4.34,8.74,0.43666666666666665,0.3233333333333333,-0.6355555555555555,-0.1875,-0.3125,-0.0625
1589543231.5831995,0.14,-4.34,8.79,0.4688888888888889,0.31555555555555553,-0.6711111111111111,-0.375,-0.625,0.1875
1589543231.5901275,0.14,-4.28,8.78,0.4688888888888889,0.31555555555555553,-0.6711111111111111,-0.25,-0.6875,0.3125
1589543231.6020114,0.12,-4.27,8.67,0.4688888888888889,0.31555555555555553,-0.6711111111111111,-0.125,-0.4375,0.4375
1589543231.6120849,0.11,-4.27,8.72,0.4688888888888889,0.31555555555555553,-0.6711111111111111,-0.125,-0.1875,0.6875
1589543231.62329,0.13,-4.25,8.77,0.4688888888888889,0.31555555555555553,-0.6711111111111111,-0.375,-0.5,0.875
1589543231.6339686,0.12,-4.24,8.8,0.4477777777777778,0.33555555555555555,-0.6577777777777778,-0.3125,-0.625,1.0625
1589543231.6411242,0.12,-4.29,8.72,0.4477777777777778,0.33555555555555555,-0.6577777777777778,-0.1875,-0.5625,0.8125
1589543231.6544747,0.13,-4.34,8.68,0.4477777777777778,0.33555555555555555,-0.6577777777777778,-0.125,-0.625,0.5
1589543231.660635,0.14,-4.35,8.73,0.4477777777777778,0.33555555555555555,-0.6577777777777778,-0.25,-0.6875,0.5
1589543231.674375,0.16,-4.34,8.74,0.4477777777777778,0.33555555555555555,-0.6577777777777778,-0.375,-0.625,0.1875
1589543231.680551,0.14,-4.34,8.84,0.44222222222222224,0.3233333333333333,-0.6577777777777778,-0.75,-0.5,0.25
1589543231.6924865,0.14,-4.31,8.77,0.44222222222222224,0.3233333333333333,-0.6577777777777778,-0.8125,-0.6875,0.25
1589543231.7011495,0.14,-4.25,8.67,0.44222222222222224,0.3233333333333333,-0.6577777777777778,-1.0,-0.5625,0.4375
1589543231.7116005,0.12,-4.17,8.71,0.44222222222222224,0.3233333333333333,-0.6577777777777778,-0.8125,-0.6875,0.875
1589543231.725989,0.06,-4.0,8.76,0.44222222222222224,0.3233333333333333,-0.6577777777777778,-0.875,-0.5,0.9375
1589543231.7333872,-0.19,-3.44,8.63,0.4477777777777778,0.3233333333333333,-0.6433333333333333,-0.625,-0.6875,1.375
1589543231.7402573,0.01,-3.85,9.06,0.4477777777777778,0.3233333333333333,-0.6433333333333333,-1.125,-1.5625,2.0
1589543231.7507064,-0.14,-3.87,8.59,0.4477777777777778,0.3233333333333333,-0.6433333333333333,0.0625,0.125,2.875
1589543231.7605758,-0.11,-3.88,8.88,0.4477777777777778,0.3233333333333333,-0.6433333333333333,-0.9375,-1.0625,4.125
1589543231.77317,-0.11,-3.73,8.72,0.4477777777777778,0.3233333333333333,-0.6433333333333333,-0.875,-1.0,7.1875
1589543231.7856429,-0.11,-3.74,8.83,0.4477777777777778,0.3088888888888889,-0.65,-0.9375,-1.0625,9.75
1589543231.791825,-0.07,-3.68,8.79,0.4477777777777778,0.3088888888888889,-0.65,-1.125,-1.125,12.1875
1589543231.8054786,-0.1,-3.63,8.75,0.4477777777777778,0.3088888888888889,-0.65,-1.0625,-1.25,14.9375
1589543231.8121107,-0.04,-3.38,8.8,0.4477777777777778,0.3088888888888889,-0.65,-0.625,-1.0625,17.75
1589543231.8247259,0.0,-3.3,8.73,0.4477777777777778,0.3088888888888889,-0.65,0.375,-0.6875,23.1875
1589543231.8311224,-0.11,-3.39,8.83,0.44222222222222224,0.31555555555555553,-0.6577777777777778,0.25,-1.4375,29.25
1589543231.8441124,-0.07,-3.44,8.78,0.44222222222222224,0.31555555555555553,-0.6577777777777778,0.1875,-1.875,35.1875
1589543231.8515575,-0.13,-3.46,8.72,0.44222222222222224,0.31555555555555553,-0.6577777777777778,0.4375,-2.0625,40.625
1589543231.8616724,-0.13,-3.52,8.78,0.44222222222222224,0.31555555555555553,-0.6577777777777778,0.8125,-2.1875,45.5625
1589543231.8752954,-0.12,-3.56,8.81,0.44222222222222224,0.31555555555555553,-0.6577777777777778,0.6875,-2.5,50.0
1589543231.8832767,-0.2,-3.46,8.83,0.44222222222222224,0.3088888888888889,-0.65,0.375,-2.5625,53.5625
1589543231.891513,-0.16,-3.54,8.84,0.44222222222222224,0.3088888888888889,-0.65,0.625,-3.0,57.1875
1589543231.9036672,-0.2,-3.58,8.72,0.44222222222222224,0.3088888888888889,-0.65,0.4375,-3.1875,59.875
1589543231.9124687,-0.17,-3.63,8.72,0.44222222222222224,0.3088888888888889,-0.65,0.5625,-2.875,62.75
1589543231.9257069,-0.15,-3.64,8.77,0.44222222222222224,0.3088888888888889,-0.65,0.625,-3.3125,64.375
1589543231.9371998,-0.25,-3.61,8.77,0.4888888888888889,0.2888888888888889,-0.6577777777777778,0.5,-3.25,65.0625
1589543231.944499,-0.28,-3.63,8.76,0.4888888888888889,0.2888888888888889,-0.6577777777777778,0.5625,-3.5,66.1875
1589543231.9573312,-0.29,-3.65,8.71,0.4888888888888889,0.2888888888888889,-0.6577777777777778,0.4375,-3.875,66.75
1589543231.9640114,-0.32,-3.68,8.67,0.4888888888888889,0.2888888888888889,-0.6577777777777778,0.625,-3.5,67.25
1589543231.9765465,-0.39,-3.67,8.78,0.4888888888888889,0.2888888888888889,-0.6577777777777778,0.625,-3.625,67.625
1589543231.9833019,-0.45,-3.71,8.83,0.4888888888888889,0.27,-0.6355555555555555,0.8125,-3.0625,68.5
1589543231.992258,-0.47,-3.7,8.91,0.4888888888888889,0.27,-0.6355555555555555,0.8125,-3.4375,69.3125
1589543232.002605,-0.54,-3.74,8.72,0.4888888888888889,0.27,-0.6355555555555555,0.8125,-3.125,70.625
1589543232.0155385,-0.56,-3.73,8.77,0.4888888888888889,0.27,-0.6355555555555555,0.75,-3.375,71.6875
1589543232.0285554,-0.53,-3.7,8.79,0.4888888888888889,0.27,-0.6355555555555555,0.8125,-3.6875,72.375
1589543232.0343847,-0.56,-3.68,8.83,0.4888888888888889,0.24444444444444444,-0.67,0.5,-4.0,72.25
1589543232.0427735,-0.62,-3.64,8.72,0.4888888888888889,0.24444444444444444,-0.67,0.375,-3.9375,71.3125
1589543232.055123,-0.7,-3.64,8.74,0.4888888888888889,0.24444444444444444,-0.67,0.375,-4.0625,70.9375
1589543232.0637212,-0.77,-3.67,8.78,0.4888888888888889,0.24444444444444444,-0.67,0.25,-4.25,70.75
1589543232.076275,-0.82,-3.66,8.78,0.4888888888888889,0.24444444444444444,-0.67,0.625,-4.0625,71.4375
1589543232.0860305,-0.83,-3.69,8.95,0.5155555555555555,0.21777777777777774,-0.7,0.875,-3.625,72.3125
1589543232.0932233,-0.89,-3.69,8.92,0.5155555555555555,0.21777777777777774,-0.7,0.5625,-4.0,72.9375
1589543232.1089792,-0.9,-3.69,8.57,0.5155555555555555,0.21777777777777774,-0.7,1.75,-2.625,73.75
1589543232.1157482,-0.87,-3.68,8.91,0.5155555555555555,0.21777777777777774,-0.7,0.8125,-3.75,74.125
1589543232.1274445,-0.9,-3.66,8.76,0.5155555555555555,0.21777777777777774,-0.7,0.625,-4.1875,73.8125
1589543232.1343815,-0.93,-3.66,8.82,0.5344444444444445,0.20444444444444448,-0.6711111111111111,1.1875,-3.4375,72.9375
1589543232.1436474,-1.0,-3.68,8.89,0.5344444444444445,0.20444444444444448,-0.6711111111111111,0.375,-4.125,72.125
1589543232.1534998,-1.08,-3.67,8.75,0.5344444444444445,0.20444444444444448,-0.6711111111111111,0.625,-3.6875,71.875
1589543232.1667626,-1.09,-3.67,8.75,0.5344444444444445,0.20444444444444448,-0.6711111111111111,1.0,-3.625,72.0
1589543232.1767902,-1.07,-3.62,8.84,0.5344444444444445,0.20444444444444448,-0.6711111111111111,0.875,-3.5,71.5
1589543232.1872694,-1.22,-3.7,8.8,0.5377777777777778,0.16444444444444445,-0.6855555555555556,1.125,-3.125,70.8125
1589543232.1927054,-1.18,-3.58,8.84,0.5377777777777778,0.16444444444444445,-0.6855555555555556,1.0,-3.0,70.375
1589543232.203693,-1.22,-3.56,8.78,0.5377777777777778,0.16444444444444445,-0.6855555555555556,0.75,-3.4375,69.8125
1589543232.2141788,-1.13,-3.43,8.73,0.5377777777777778,0.16444444444444445,-0.6855555555555556,1.0625,-3.25,69.0625
1589543232.2271185,-1.16,-3.4,8.89,0.5377777777777778,0.16444444444444445,-0.6855555555555556,0.625,-3.625,67.5
1589543232.2329645,-1.22,-3.39,8.84,0.5455555555555556,0.11888888888888888,-0.7055555555555556,0.6875,-3.5,65.8125
1589543232.2433605,-1.26,-3.38,8.97,0.5455555555555556,0.11888888888888888,-0.7055555555555556,0.875,-3.125,64.25
1589543232.259749,-1.28,-3.29,8.63,0.5455555555555556,0.11888888888888888,-0.7055555555555556,0.8125,-2.875,63.375
1589543232.266336,-1.24,-3.26,8.83,0.5455555555555556,0.11888888888888888,-0.7055555555555556,1.3125,-1.875,62.6875
1589543232.2785842,-1.12,-3.15,8.78,0.5455555555555556,0.11888888888888888,-0.7055555555555556,0.75,-2.6875,61.8125
1589543232.2858837,-1.19,-3.14,8.77,0.5377777777777778,0.1111111111111111,-0.7144444444444444,0.8125,-2.625,60.3125
1589543232.2969875,-1.36,-3.17,8.75,0.5377777777777778,0.1111111111111111,-0.7144444444444444,0.625,-3.0,58.0625
1589543232.3039887,-1.38,-3.15,8.91,0.5377777777777778,0.1111111111111111,-0.7144444444444444,0.3125,-3.3125,57.3125
1589543232.318353,-1.46,-3.16,8.56,0.5377777777777778,0.1111111111111111,-0.7144444444444444,0.6875,-3.25,57.75
1589543232.3259792,-1.45,-3.15,8.68,0.5377777777777778,0.1111111111111111,-0.7144444444444444,0.4375,-3.3125,57.8125
1589543232.3387346,-1.47,-3.11,8.87,0.5333333333333333,0.07222222222222223,-0.7355555555555555,0.75,-2.5625,58.125
1589543232.3447206,-1.66,-3.34,9.22,0.5333333333333333,0.07222222222222223,-0.7355555555555555,0.1875,-3.5,58.4375
1589543232.3545954,-1.64,-3.26,8.64,0.5333333333333333,0.07222222222222223,-0.7355555555555555,0.9375,-2.1875,59.5625
1589543232.363986,-1.52,-3.13,9.11,0.5333333333333333,0.07222222222222223,-0.7355555555555555,1.5625,-1.5,60.875
1589543232.37573,-1.58,-3.14,9.19,0.5333333333333333,0.07222222222222223,-0.7355555555555555,-0.25,-4.75,60.75
1589543232.384205,-1.61,-3.02,8.41,0.5255555555555556,0.05333333333333334,-0.7266666666666667,0.9375,-1.875,61.25
1589543232.3946981,-1.63,-2.96,8.68,0.5255555555555556,0.05333333333333334,-0.7266666666666667,1.25,-2.1875,61.9375
1589543232.4043436,-1.89,-3.18,8.72,0.5255555555555556,0.05333333333333334,-0.7266666666666667,-0.8125,-5.875,63.4375
1589543232.4147284,-1.85,-3.04,8.66,0.5255555555555556,0.05333333333333334,-0.7266666666666667,0.8125,-2.6875,66.25
1589543232.4261134,-1.79,-3.08,8.97,0.5255555555555556,0.05333333333333334,-0.7266666666666667,0.75,-3.1875,69.0625
1589543232.4374251,-2.04,-3.23,8.95,0.5377777777777778,0.03333333333333333,-0.7688888888888888,0.375,-4.125,71.6875
1589543232.4446282,-2.05,-3.18,8.74,0.5377777777777778,0.03333333333333333,-0.7688888888888888,1.0625,-2.875,74.3125
1589543232.4567585,-2.13,-3.18,8.73,0.5377777777777778,0.03333333333333333,-0.7688888888888888,1.4375,-2.75,77.125
1589543232.4691556,-2.14,-3.16,9.01,0.5377777777777778,0.03333333333333333,-0.7688888888888888,0.0,-4.8125,79.3125
1589543232.476656,-2.15,-3.08,8.83,0.5377777777777778,0.03333333333333333,-0.7688888888888888,0.5,-4.0625,82.4375
1589543232.489361,-2.17,-3.08,8.93,0.5333333333333333,0.01888888888888889,-0.7766666666666666,0.5625,-3.75,88.5625
1589543232.4961965,-2.06,-2.9,8.75,0.5333333333333333,0.01888888888888889,-0.7766666666666666,0.1875,-4.75,90.75
1589543232.5067196,-2.22,-2.95,8.9,0.5333333333333333,0.01888888888888889,-0.7766666666666666,0.9375,-4.25,93.1875
1589543232.5148525,-2.16,-2.86,8.75,0.5333333333333333,0.01888888888888889,-0.7766666666666666,1.125,-3.5,95.875
1589543232.5262108,-2.12,-2.76,8.78,0.5333333333333333,0.01888888888888889,-0.7766666666666666,0.4375,-4.75,97.8125
1589543232.5335279,-2.12,-2.77,9.05,0.5111111111111111,-0.05111111111111112,-0.7922222222222223,0.75,-4.75,99.5
1589543232.5487185,-2.32,-2.76,8.65,0.5111111111111111,-0.05111111111111112,-0.7922222222222223,1.5,-2.8125,101.375
1589543232.5560277,-2.22,-2.61,8.82,0.5111111111111111,-0.05111111111111112,-0.7922222222222223,0.6875,-4.375,103.3125
1589543232.5675945,-2.17,-2.54,8.91,0.5111111111111111,-0.05111111111111112,-0.7922222222222223,0.75,-4.4375,105.9375
1589543232.5766034,-2.23,-2.5,9.12,0.5111111111111111,-0.05111111111111112,-0.7922222222222223,0.375,-4.875,109.1875
1589543232.5878458,-2.12,-2.38,8.83,0.5066666666666667,-0.13333333333333333,-0.8044444444444444,1.0625,-4.25,112.625
1589543232.595601,-2.17,-2.37,8.83,0.5066666666666667,-0.13333333333333333,-0.8044444444444444,0.625,-4.625,114.5
1589543232.6057234,-2.39,-2.49,9.11,0.5066666666666667,-0.13333333333333333,-0.8044444444444444,0.8125,-4.1875,115.625
1589543232.6191034,-2.03,-2.14,8.72,0.5066666666666667,-0.13333333333333333,-0.8044444444444444,0.5625,-4.0,116.0625
1589543232.6267467,-2.0,-2.09,9.23,0.5066666666666667,-0.13333333333333333,-0.8044444444444444,0.625,-5.25,117.0
1589543232.635311,-2.2,-2.15,9.2,0.46,-0.2111111111111111,-0.7911111111111111,1.5625,-3.1875,119.5
1589543232.6466622,-1.98,-1.94,8.3,0.46,-0.2111111111111111,-0.7911111111111111,0.5625,-2.75,120.6875
1589543232.6607413,-1.92,-1.99,9.01,0.46,-0.2111111111111111,-0.7911111111111111,0.625,-3.8125,121.3125
1589543232.6674926,-2.04,-1.81,8.46,0.46,-0.2111111111111111,-0.7911111111111111,1.0,-4.0625,121.6875
1589543232.6779068,-2.04,-1.91,9.31,0.46,-0.2111111111111111,-0.7911111111111111,-0.5,-6.125,120.8125
1589543232.6849895,-2.09,-1.73,8.69,0.4155555555555556,-0.2644444444444444,-0.8044444444444444,0.8125,-4.0,120.875
1589543232.69634,-2.18,-1.8,9.2,0.4155555555555556,-0.2644444444444444,-0.8044444444444444,0.25,-5.5,120.9375
1589543232.7057462,-2.24,-1.77,8.79,0.4155555555555556,-0.2644444444444444,-0.8044444444444444,0.4375,-3.8125,119.9375
1589543232.7156472,-2.01,-1.62,8.47,0.4155555555555556,-0.2644444444444444,-0.8044444444444444,-1.125,-6.1875,119.875
1589543232.7277155,-2.03,-1.54,8.86,0.4155555555555556,-0.2644444444444444,-0.8044444444444444,1.75,-3.75,119.9375
1589543232.7388475,-2.09,-1.49,8.67,0.3466666666666667,-0.3466666666666667,-0.8033333333333333,1.125,-4.0,119.125
1589543232.7455244,-2.06,-1.52,9.09,0.3466666666666667,-0.3466666666666667,-0.8033333333333333,-0.8125,-6.625,116.5625
1589543232.7557108,-1.96,-1.39,8.76,0.3466666666666667,-0.3466666666666667,-0.8033333333333333,0.8125,-4.8125,115.375
1589543232.7702005,-2.07,-1.37,8.82,0.3466666666666667,-0.3466666666666667,-0.8033333333333333,0.9375,-5.375,112.4375
1589543232.7948518,-1.93,-1.25,8.69,0.27,-0.3655555555555556,-0.7333333333333333,1.25,-3.0,103.6875
1589543232.8004348,-1.95,-1.28,9.62,0.27,-0.3655555555555556,-0.7333333333333333,-1.25,-6.8125,98.5
1589543232.806732,-1.32,-1.03,8.6,0.27,-0.3655555555555556,-0.7333333333333333,0.875,-4.75,93.0625
1589543232.8185072,-1.18,-0.96,8.55,0.27,-0.3655555555555556,-0.7333333333333333,0.5625,-3.625,85.25
1589543232.8282733,-2.11,-1.17,9.68,0.27,-0.3655555555555556,-0.7333333333333333,-1.0625,-4.0625,78.625
1589543232.8362505,-1.73,-0.86,8.6,0.26666666666666666,-0.37666666666666665,-0.67,2.6875,-2.25,75.6875
1589543232.8501248,-1.8,-0.86,8.53,0.26666666666666666,-0.37666666666666665,-0.67,-1.0,-3.6875,69.8125
1589543232.856308,-1.67,-1.01,9.53,0.26666666666666666,-0.37666666666666665,-0.67,-3.3125,-7.4375,61.6875
1589543232.869484,-1.48,-0.8,9.03,0.26666666666666666,-0.37666666666666665,-0.67,1.125,-2.8125,56.0625
1589543232.8795595,-1.68,-0.75,8.46,0.26666666666666666,-0.37666666666666665,-0.67,1.875,0.25,48.3125
1589543232.8905127,-1.71,-0.75,9.06,0.2733333333333333,-0.3644444444444445,-0.6766666666666666,-0.25,-3.625,39.5
1589543232.8968046,-2.1,-0.85,9.55,0.2733333333333333,-0.3644444444444445,-0.6766666666666666,0.0625,-1.0625,32.8125
1589543232.9060972,-1.63,-0.63,8.33,0.2733333333333333,-0.3644444444444445,-0.6766666666666666,0.25,0.1875,24.5625
1589543232.91614,-1.65,-0.83,9.04,0.2733333333333333,-0.3644444444444445,-0.6766666666666666,-2.875,-5.8125,14.8125
1589543232.9288356,-2.09,-0.89,9.91,0.2733333333333333,-0.3644444444444445,-0.6766666666666666,-1.1875,-1.125,7.875
1589543232.9362974,-1.89,-0.52,8.5,0.31777777777777777,-0.37333333333333335,-0.6622222222222223,2.125,2.375,2.9375
1589543232.9466324,-1.5,-0.6,9.9,0.31777777777777777,-0.37333333333333335,-0.6622222222222223,-0.1875,-2.4375,-6.625
1589543232.956899,-1.25,-0.59,8.47,0.31777777777777777,-0.37333333333333335,-0.6622222222222223,0.9375,1.5625,-24.25
1589543232.9687738,-1.25,-0.8,8.35,0.31777777777777777,-0.37333333333333335,-0.6622222222222223,-2.5625,-1.0,-48.375
1589543232.982938,-2.03,-1.07,9.87,0.31777777777777777,-0.37333333333333335,-0.6622222222222223,-4.0,-2.0625,-65.125
1589543232.9882855,-2.3,-0.83,8.49,0.3111111111111111,-0.3644444444444445,-0.67,0.5,5.25,-71.75
1589543233.0008914,-2.08,-0.93,8.92,0.3111111111111111,-0.3644444444444445,-0.67,-1.6875,3.1875,-77.9375
1589543233.007234,-1.47,-0.96,8.64,0.3111111111111111,-0.3644444444444445,-0.67,-1.0,3.5625,-83.25
1589543233.021107,-2.05,-1.16,8.84,0.3111111111111111,-0.3644444444444445,-0.67,-0.1875,3.5625,-91.5625
1589543233.028635,-1.41,-1.23,9.31,0.3111111111111111,-0.3644444444444445,-0.67,-3.3125,1.3125,-100.4375
1589543233.0371752,-1.82,-1.32,8.88,0.35,-0.3644444444444445,-0.67,-1.1875,5.75,-111.75
1589543233.0487175,-1.5,-1.49,9.46,0.35,-0.3644444444444445,-0.67,-2.25,3.3125,-123.8125
1589543233.0574956,-2.0,-1.64,9.46,0.35,-0.3644444444444445,-0.67,-2.5625,4.6875,-132.6875
1589543233.0676515,-2.28,-1.52,8.52,0.35,-0.3644444444444445,-0.67,1.375,11.5,-137.0
1589543233.078903,-2.43,-1.61,8.52,0.35,-0.3644444444444445,-0.67,-0.8125,7.3125,-140.0
1589543233.0866456,-2.69,-1.9,9.21,0.3888888888888889,-0.3466666666666667,-0.6766666666666666,-5.6875,1.0,-142.125
1589543233.1016414,-3.05,-2.12,9.69,0.3888888888888889,-0.3466666666666667,-0.6766666666666666,-5.625,2.25,-139.9375
1589543233.1089215,-3.99,-2.3,9.11,0.3888888888888889,-0.3466666666666667,-0.6766666666666666,1.375,9.5625,-128.875
1589543233.1204898,-3.23,-2.25,8.72,0.3888888888888889,-0.3466666666666667,-0.6766666666666666,0.0,8.0,-113.5625
1589543233.129843,-2.87,-2.19,9.19,0.3888888888888889,-0.3466666666666667,-0.6766666666666666,-3.5625,1.0625,-103.5
1589543233.14085,-3.63,-2.45,9.65,0.4355555555555555,-0.3377777777777778,-0.6977777777777778,-1.1875,4.125,-94.0625
1589543233.1517935,-2.86,-2.08,8.33,0.4355555555555555,-0.3377777777777778,-0.6977777777777778,0.25,6.4375,-84.0625
1589543233.1580296,-2.32,-2.09,9.22,0.4355555555555555,-0.3377777777777778,-0.6977777777777778,-3.4375,1.1875,-78.625
1589543233.1732028,-1.76,-1.86,8.43,0.4355555555555555,-0.3377777777777778,-0.6977777777777778,-0.875,4.125,-74.6875
1589543233.17942,-2.31,-2.19,9.27,0.4355555555555555,-0.3377777777777778,-0.6977777777777778,-0.1875,3.75,-76.625
1589543233.1912448,-1.95,-2.1,8.77,0.5011111111111111,-0.6322222222222222,-0.5988888888888889,-1.875,3.9375,-81.4375
1589543233.1976366,-1.19,-2.0,9.06,0.5011111111111111,-0.6322222222222222,-0.5988888888888889,-4.3125,-0.375,-86.875
1589543233.2113054,-1.82,-2.39,9.8,0.5011111111111111,-0.6322222222222222,-0.5988888888888889,-1.4375,2.875,-93.6875
1589543233.2178574,-2.05,-2.39,8.37,0.5011111111111111,-0.6322222222222222,-0.5988888888888889,1.4375,11.0,-99.6875
1589543233.2304938,-1.23,-2.29,8.92,0.5011111111111111,-0.6322222222222222,-0.5988888888888889,-1.4375,4.5,-105.3125
1589543233.237688,-2.16,-2.89,9.93,1.1677777777777778,-0.9488888888888888,-0.4222222222222222,-4.0625,0.9375,-113.125
1589543233.247905,-1.73,-2.56,8.26,1.1677777777777778,-0.9488888888888888,-0.4222222222222222,1.1875,8.875,-118.625
1589543233.253683,-1.73,-2.56,8.26,1.1677777777777778,-0.9488888888888888,-0.4222222222222222,1.1875,8.875,-118.625
1589543233.2609155,-1.78,-2.95,9.49,1.1677777777777778,-0.9488888888888888,-0.4222222222222222,-0.4375,5.25,-126.375
1589543233.2726395,-2.12,-2.98,7.98,1.1677777777777778,-0.9488888888888888,-0.4222222222222222,-1.75,8.625,-134.9375
1589543233.2806675,-1.79,-3.05,9.14,1.1677777777777778,-0.9488888888888888,-0.4222222222222222,-1.3125,6.75,-141.875
1589543233.292445,-1.78,-3.14,8.89,0.6377777777777778,-0.2888888888888889,-0.7244444444444444,-1.0,6.1875,-147.8125
1589543233.302989,-1.99,-3.33,8.86,0.6377777777777778,-0.2888888888888889,-0.7244444444444444,-3.25,6.125,-153.125
1589543233.3093002,-2.05,-3.47,8.8,0.6377777777777778,-0.2888888888888889,-0.7244444444444444,-4.125,5.0,-156.5625
1589543233.3239965,-1.52,-3.28,9.46,0.6377777777777778,-0.2888888888888889,-0.7244444444444444,-3.5,5.0625,-159.1875
1589543233.3310106,-1.18,-3.1,8.7,0.6377777777777778,-0.2888888888888889,-0.7244444444444444,1.5,11.375,-161.875
1589543233.3379927,-1.86,-3.64,9.28,0.5722222222222222,-0.10666666666666667,-0.7244444444444444,0.4375,9.75,-167.3125
1589543233.349812,-1.65,-3.51,8.72,0.5722222222222222,-0.10666666666666667,-0.7244444444444444,-1.3125,9.25,-170.0
1589543233.3625805,-1.34,-3.42,8.8,0.5722222222222222,-0.10666666666666667,-0.7244444444444444,-0.6875,9.0625,-169.8125
1589543233.3687644,-1.87,-3.74,8.92,0.5722222222222222,-0.10666666666666667,-0.7244444444444444,-1.0,8.8125,-170.1875
1589543233.3842738,-1.98,-3.92,9.16,0.5722222222222222,-0.10666666666666667,-0.7244444444444444,-2.75,6.125,-169.125
1589543233.3898528,-2.03,-4.06,8.51,0.57,-0.013333333333333334,-0.7466666666666667,-1.125,8.5,-166.25
1589543233.3993,-2.04,-4.06,8.93,0.57,-0.013333333333333334,-0.7466666666666667,-1.75,6.75,-163.3125
1589543233.4087622,-1.54,-3.67,8.65,0.57,-0.013333333333333334,-0.7466666666666667,-2.4375,6.125,-159.5625
1589543233.4196384,-1.26,-3.62,8.9,0.57,-0.013333333333333334,-0.7466666666666667,-1.9375,5.6875,-156.75
1589543233.4311945,-1.27,-3.86,9.01,0.57,-0.013333333333333334,-0.7466666666666667,-0.875,6.25,-154.1875
1589543233.4393663,-1.58,-4.16,9.16,0.5733333333333334,0.05333333333333334,-0.7466666666666667,-1.5625,7.0,-150.375
1589543233.4488206,-1.95,-4.45,10.12,0.5733333333333334,0.05333333333333334,-0.7466666666666667,-3.375,4.0625,-143.9375
1589543233.4595652,-9.31,-11.31,11.48,0.5733333333333334,0.05333333333333334,-0.7466666666666667,3.75,14.0625,-132.1875
1589543233.4690065,-26.03,-9.68,1.37,0.5733333333333334,0.05333333333333334,-0.7466666666666667,13.0,78.0625,-68.9375
1589543233.4810426,-0.11,-0.14,4.86,0.5733333333333334,0.05333333333333334,-0.7466666666666667,-87.375,-79.0,-424.625
1589543233.4884186,1.41,-3.47,16.23,0.5311111111111111,0.15444444444444444,-0.72,-83.0625,-17.9375,-349.3125
1589543233.4988918,1.41,-3.47,16.23,0.5311111111111111,0.15444444444444444,-0.72,-83.0625,-17.9375,-349.3125
1589543233.5041304,-2.94,-2.14,3.29,0.5311111111111111,0.15444444444444444,-0.72,25.5625,94.1875,-279.9375
1589543233.515296,-1.62,-1.54,5.49,0.5311111111111111,0.15444444444444444,-0.72,89.875,27.75,-234.8125
1589543233.521038,0.88,-0.54,9.3,0.5311111111111111,0.15444444444444444,-0.72,61.6875,-5.1875,-188.0625
1589543233.5356483,0.62,-1.19,7.79,0.5311111111111111,0.15444444444444444,-0.72,-31.3125,0.5,-122.125
1589543233.5421536,1.14,-1.65,10.25,0.5022222222222222,0.27111111111111114,-0.7122222222222222,-12.1875,-0.4375,-92.0625
1589543233.5542982,0.46,-2.19,6.97,0.5022222222222222,0.27111111111111114,-0.7122222222222222,15.0625,11.4375,-73.0625
1589543233.560983,0.34,-2.98,9.96,0.5022222222222222,0.27111111111111114,-0.7122222222222222,-0.0625,1.4375,-50.1875
1589543233.5709114,0.4,-2.82,9.45,0.5022222222222222,0.27111111111111114,-0.7122222222222222,-6.8125,-4.375,-31.1875
1589543233.5813413,0.11,-2.63,8.47,0.5022222222222222,0.27111111111111114,-0.7122222222222222,4.0625,5.4375,-21.875
1589543233.5898385,-0.33,-3.03,8.8,0.4577777777777778,0.3144444444444445,-0.7266666666666667,1.75,1.875,-15.25
1589543233.6001446,-0.37,-2.92,9.15,0.4577777777777778,0.3144444444444445,-0.7266666666666667,-5.0,-1.9375,-3.8125
1589543233.610699,-0.36,-2.91,8.53,0.4577777777777778,0.3144444444444445,-0.7266666666666667,-0.0625,0.125,8.4375
1589543233.619745,-0.44,-3.09,8.86,0.4577777777777778,0.3144444444444445,-0.7266666666666667,3.75,0.5625,19.625
1589543233.6333704,-0.37,-2.89,8.71,0.4577777777777778,0.3144444444444445,-0.7266666666666667,1.5,-0.9375,29.8125
1589543233.6391716,-0.24,-3.01,9.08,0.4666666666666667,0.3244444444444444,-0.7144444444444444,-0.9375,-2.5625,40.125
1589543233.6497984,-0.26,-2.86,8.76,0.4666666666666667,0.3244444444444444,-0.7144444444444444,-0.5,-2.6875,48.4375
1589543233.6559825,-0.26,-2.86,8.76,0.4666666666666667,0.3244444444444444,-0.7144444444444444,-0.5,-2.6875,48.4375
1589543233.6640368,5.49,-29.04,5.45,0.4666666666666667,0.3244444444444444,-0.7144444444444444,0.6875,-2.8125,53.9375
1589543233.670945,-1.29,-4.44,11.72,0.4666666666666667,0.3244444444444444,-0.7144444444444444,-10.1875,-18.8125,-10.0
1589543233.6856382,-1.45,-0.57,8.07,0.4666666666666667,0.3244444444444444,-0.7144444444444444,-9.25,11.75,-104.125
1589543233.6909742,-1.6,-3.33,10.16,0.4744444444444445,0.3144444444444445,-0.7055555555555556,23.5,20.8125,-83.0
1589543233.7054887,-0.99,-2.96,9.05,0.4744444444444445,0.3144444444444445,-0.7055555555555556,-1.5,0.0,-54.3125
1589543233.7112658,1.82,-9.35,8.21,0.4744444444444445,0.3144444444444445,-0.7055555555555556,-10.4375,-1.4375,-22.75
1589543233.7212946,-0.21,-6.38,8.47,0.4744444444444445,0.3144444444444445,-0.7055555555555556,-0.625,-6.0625,-29.375
1589543233.732265,-0.22,-6.47,7.91,0.4744444444444445,0.3144444444444445,-0.7055555555555556,3.6875,10.875,-41.1875
1589543233.7441404,-0.46,-4.34,9.46,0.4688888888888889,0.3555555555555556,-0.7144444444444444,4.375,-0.3125,-24.3125
1589543233.7509153,-0.3,-5.17,8.52,0.4688888888888889,0.3555555555555556,-0.7144444444444444,-7.125,-1.4375,-16.5
1589543233.7642875,-0.1,-4.49,8.79,0.4688888888888889,0.3555555555555556,-0.7144444444444444,0.1875,0.9375,-7.75
1589543233.770428,-0.13,-4.25,8.58,0.4688888888888889,0.3555555555555556,-0.7144444444444444,2.0625,0.25,-2.4375
1589543233.7807882,-0.13,-4.25,8.58,0.4688888888888889,0.3555555555555556,-0.7144444444444444,2.0625,0.25,-2.4375
1589543233.7901762,0.0,-4.34,8.84,0.4955555555555556,0.3622222222222222,-0.7055555555555556,-0.125,-0.5,-0.25
