time,acc_x,acc_y,acc_z,mag_x,mag_y,mag_z,gyr_x,gyr_y,gyr_z
1589543456.4302506,0.14,-4.16,8.94,0.5344444444444445,0.3144444444444445,-0.6733333333333333,0.0625,0.0,0.1875
1589543456.4395359,0.14,-4.18,8.85,0.5344444444444445,0.3144444444444445,-0.6733333333333333,-0.0625,-0.125,0.0
1589543456.4524913,0.13,-4.15,8.93,0.5344444444444445,0.3144444444444445,-0.6733333333333333,0.125,0.0,0.0
1589543456.4626324,0.14,-4.16,8.95,0.5344444444444445,0.3144444444444445,-0.6733333333333333,0.125,-0.0625,-0.0625
1589543456.4747508,0.15,-4.16,8.97,0.5077777777777778,0.30666666666666664,-0.6588888888888889,0.0,-0.125,-0.125
1589543456.4815636,0.13,-4.15,8.95,0.5077777777777778,0.30666666666666664,-0.6588888888888889,-0.125,-0.1875,0.0625
1589543456.4938922,0.14,-4.16,8.8,0.5077777777777778,0.30666666666666664,-0.6588888888888889,-0.0625,0.0,0.0625
1589543456.5004473,0.15,-4.16,8.89,0.5077777777777778,0.30666666666666664,-0.6588888888888889,-0.125,-0.125,-0.1875
1589543456.513651,0.16,-4.17,8.9,0.5077777777777778,0.30666666666666664,-0.6588888888888889,-0.125,0.0625,0.0625
1589543456.5204635,0.13,-4.16,8.96,0.5133333333333333,0.3144444444444445,-0.6666666666666666,-0.125,0.1875,0.0
1589543456.5304418,0.13,-4.18,8.89,0.5133333333333333,0.3144444444444445,-0.6666666666666666,-0.0625,0.1875,-0.0625
1589543456.5407078,0.14,-4.19,8.84,0.5133333333333333,0.3144444444444445,-0.6666666666666666,0.0625,0.1875,0.0625
1589543456.550648,0.14,-4.17,8.87,0.5133333333333333,0.3144444444444445,-0.6666666666666666,0.0,0.0625,0.0625
1589543456.5661294,0.14,-4.15,8.93,0.5133333333333333,0.3144444444444445,-0.6666666666666666,0.1875,0.1875,0.0
1589543456.5721786,0.14,-4.14,8.95,0.5277777777777778,0.29444444444444445,-0.6444444444444445,0.125,0.1875,0.0
1589543456.5803664,0.15,-4.15,8.94,0.5277777777777778,0.29444444444444445,-0.6444444444444445,-0.125,-0.1875,0.0625
1589543456.5924056,0.14,-4.16,8.86,0.5277777777777778,0.29444444444444445,-0.6444444444444445,-0.3125,-0.1875,0.0
1589543456.603146,0.14,-4.15,8.9,0.5277777777777778,0.29444444444444445,-0.6444444444444445,-0.125,0.0,0.1875
1589543456.613157,0.14,-4.17,8.94,0.5277777777777778,0.29444444444444445,-0.6444444444444445,-0.125,-0.125,0.0625
1589543456.6254306,0.14,-4.16,8.92,0.5277777777777778,0.3,-0.6444444444444445,-0.25,0.125,-0.0625
1589543456.6320937,0.14,-4.15,8.87,0.5277777777777778,0.3,-0.6444444444444445,-0.4375,-0.0625,-0.25
1589543456.6458998,0.14,-4.14,8.81,0.5277777777777778,0.3,-0.6444444444444445,-0.375,-0.125,-0.125
1589543456.6522696,0.13,-4.18,8.85,0.5277777777777778,0.3,-0.6444444444444445,-0.4375,-0.4375,0.0
1589543456.6635554,0.14,-4.13,8.93,0.5277777777777778,0.3,-0.6444444444444445,-0.4375,-0.375,-0.0625
1589543456.6704595,0.16,-4.15,8.97,0.52,0.3144444444444445,-0.6444444444444445,-0.25,-0.25,-0.125
1589543456.6809745,0.17,-4.17,8.95,0.52,0.3144444444444445,-0.6444444444444445,-0.3125,-0.3125,0.0
1589543456.6931145,0.14,-4.16,8.83,0.52,0.3144444444444445,-0.6444444444444445,-0.3125,-0.375,0.0
1589543456.703377,0.15,-4.18,8.87,0.52,0.3144444444444445,-0.6444444444444445,-0.3125,-0.25,-0.0625
1589543456.7181213,0.14,-4.17,8.94,0.52,0.3144444444444445,-0.6444444444444445,-0.5625,0.0625,0.0
1589543456.7243564,0.14,-4.16,8.95,0.5277777777777778,0.30666666666666664,-0.6588888888888889,-0.8125,0.0,-0.125
1589543456.7311776,0.16,-4.17,8.97,0.5277777777777778,0.30666666666666664,-0.6588888888888889,-1.25,-0.0625,-0.125
1589543456.7423143,0.15,-4.16,8.81,0.5277777777777778,0.30666666666666664,-0.6588888888888889,-1.1875,0.0625,0.0625
1589543456.7523775,0.18,-4.14,8.84,0.5277777777777778,0.30666666666666664,-0.6588888888888889,-0.875,0.0,0.0625
1589543456.763977,0.24,-4.07,8.86,0.5277777777777778,0.30666666666666664,-0.6588888888888889,-0.6875,-0.3125,0.125
1589543456.7771974,0.22,-4.1,8.89,0.5344444444444445,0.3144444444444445,-0.6311111111111111,-0.6875,-0.4375,-0.1875
1589543456.7837784,0.17,-4.14,8.87,0.5344444444444445,0.3144444444444445,-0.6311111111111111,-0.6875,-0.5625,-0.5
1589543456.7975967,0.07,-4.2,8.77,0.5344444444444445,0.3144444444444445,-0.6311111111111111,-0.75,-0.5625,-0.625
1589543456.8033464,0.03,-4.25,8.82,0.5344444444444445,0.3144444444444445,-0.6311111111111111,-1.3125,-1.1875,-0.3125
1589543456.817405,0.14,-4.22,9.02,0.5344444444444445,0.3144444444444445,-0.6311111111111111,-1.5625,-1.625,-0.125
1589543456.8235161,0.14,-4.18,8.98,0.5133333333333333,0.3144444444444445,-0.6522222222222223,-1.125,-1.125,-0.125
1589543456.8363295,0.19,-4.16,9.0,0.5133333333333333,0.3144444444444445,-0.6522222222222223,-0.9375,-0.9375,-0.375
1589543456.8428564,0.22,-4.08,8.9,0.5133333333333333,0.3144444444444445,-0.6522222222222223,-0.75,-0.5625,-0.5
1589543456.8561847,0.26,-3.93,8.86,0.5133333333333333,0.3144444444444445,-0.6522222222222223,-0.75,-0.25,-1.125
1589543456.8633368,0.27,-3.85,8.85,0.5133333333333333,0.3144444444444445,-0.6522222222222223,-1.0,-0.4375,-1.5625
1589543456.8716052,0.26,-3.74,8.83,0.5133333333333333,0.3211111111111111,-0.6666666666666666,-1.875,-0.9375,-2.0
1589543456.8816862,0.27,-3.38,8.78,0.5133333333333333,0.3211111111111111,-0.6666666666666666,-3.5625,-2.8125,-2.5
1589543456.8919592,-0.05,-3.5,8.75,0.5133333333333333,0.3211111111111111,-0.6666666666666666,-5.375,-5.1875,-2.875
1589543456.9039786,-0.24,-3.26,8.99,0.5133333333333333,0.3211111111111111,-0.6666666666666666,-5.4375,-6.5625,-2.4375
1589543456.9137118,0.0,-3.15,9.17,0.5133333333333333,0.3211111111111111,-0.6666666666666666,-5.0,-5.1875,0.5625
1589543456.921734,-0.05,-2.9,9.4,0.5133333333333333,0.3144444444444445,-0.6522222222222223,-4.8125,-6.0625,4.3125
1589543456.933191,0.06,-3.0,9.35,0.5133333333333333,0.3144444444444445,-0.6522222222222223,-3.375,-4.5,7.9375
1589543456.9427226,-0.33,-2.96,9.01,0.5133333333333333,0.3144444444444445,-0.6522222222222223,0.75,1.5625,12.5625
1589543456.9552116,-0.14,-3.19,8.93,0.5133333333333333,0.3144444444444445,-0.6522222222222223,2.75,1.0,23.4375
1589543456.9684148,0.0,-3.17,9.12,0.5133333333333333,0.3144444444444445,-0.6522222222222223,-0.9375,-2.8125,32.25
1589543456.974757,0.02,-3.23,8.99,0.54,0.3211111111111111,-0.6733333333333333,0.3125,-1.375,38.5625
1589543456.9846349,0.04,-3.31,8.9,0.54,0.3211111111111111,-0.6733333333333333,0.75,-1.3125,42.6875
1589543456.9930522,0.04,-3.26,8.87,0.54,0.3211111111111111,-0.6733333333333333,-0.3125,-1.875,45.25
1589543457.0074403,0.08,-3.28,8.82,0.54,0.3211111111111111,-0.6733333333333333,0.375,-1.5625,47.8125
1589543457.0156894,0.09,-3.32,8.94,0.54,0.3211111111111111,-0.6733333333333333,0.375,-2.125,49.75
1589543457.0238118,0.01,-3.28,8.88,0.54,0.3144444444444445,-0.6377777777777778,0.125,-2.125,50.5
1589543457.033515,0.09,-3.29,8.88,0.54,0.3144444444444445,-0.6377777777777778,0.5,-2.25,51.0625
1589543457.0433252,0.07,-3.34,8.86,0.54,0.3144444444444445,-0.6377777777777778,0.125,-2.625,50.875
1589543457.0535393,0.02,-3.32,8.76,0.54,0.3144444444444445,-0.6377777777777778,0.3125,-2.0625,49.8125
1589543457.0659294,-0.13,-3.47,9.03,0.54,0.3144444444444445,-0.6377777777777778,-0.3125,-2.8125,49.25
1589543457.0784118,-0.13,-3.46,8.88,0.5611111111111111,0.2733333333333333,-0.68,0.0,-2.4375,50.1875
1589543457.0846224,-0.07,-3.35,9.12,0.5611111111111111,0.2733333333333333,-0.68,0.25,-2.1875,50.75
1589543457.0937262,-0.16,-3.47,8.78,0.5611111111111111,0.2733333333333333,-0.68,0.625,-1.4375,50.6875
1589543457.1057847,-0.18,-3.64,9.03,0.5611111111111111,0.2733333333333333,-0.68,-0.0625,-2.4375,50.25
1589543457.1198175,-0.15,-3.58,8.87,0.5611111111111111,0.2733333333333333,-0.68,0.5,-1.5625,49.5
1589543457.1252415,-0.18,-3.59,8.83,0.5544444444444444,0.2733333333333333,-0.6666666666666666,0.8125,-1.5625,48.3125
1589543457.138313,-0.13,-3.51,8.89,0.5544444444444444,0.2733333333333333,-0.6666666666666666,-0.1875,-2.625,46.3125
1589543457.1443431,-0.23,-3.62,8.91,0.5544444444444444,0.2733333333333333,-0.6666666666666666,-0.125,-2.5625,43.4375
1589543457.157159,-0.22,-3.55,8.81,0.5544444444444444,0.2733333333333333,-0.6666666666666666,0.375,-1.625,41.3125
1589543457.1661935,-0.24,-3.52,8.92,0.5544444444444444,0.2733333333333333,-0.6666666666666666,0.0,-2.0,39.5
1589543457.1774335,-0.31,-3.69,8.95,0.5666666666666667,0.2611111111111111,-0.6733333333333333,0.125,-1.75,37.4375
1589543457.1841848,-0.39,-3.58,8.87,0.5666666666666667,0.2611111111111111,-0.6733333333333333,0.875,-0.6875,35.875
1589543457.1952248,-0.35,-3.56,8.95,0.5666666666666667,0.2611111111111111,-0.6733333333333333,0.75,-0.75,34.8125
1589543457.2049372,-0.31,-3.47,8.87,0.5666666666666667,0.2611111111111111,-0.6733333333333333,0.75,-0.5,33.125
1589543457.2176232,-0.39,-3.49,8.93,0.5666666666666667,0.2611111111111111,-0.6733333333333333,-0.1875,-1.8125,29.9375
1589543457.2236025,-0.47,-3.52,8.92,0.5666666666666667,0.2611111111111111,-0.6944444444444444,-0.4375,-2.0,28.3125
1589543457.2348876,-0.5,-3.63,9.06,0.5666666666666667,0.2611111111111111,-0.6944444444444444,-0.5,-2.1875,27.625
1589543457.2444901,-0.55,-3.47,8.82,0.5666666666666667,0.2611111111111111,-0.6944444444444444,-0.0625,-1.4375,27.8125
1589543457.256554,-0.52,-3.47,8.86,0.5666666666666667,0.2611111111111111,-0.6944444444444444,0.0625,-1.4375,28.3125
1589543457.2720892,-0.65,-3.61,9.0,0.5666666666666667,0.2611111111111111,-0.6944444444444444,-0.125,-1.75,29.125
1589543457.2776856,-0.49,-3.42,8.91,0.5877777777777777,0.23555555555555555,-0.6877777777777778,0.0625,-1.5,30.5
1589543457.2872827,-0.63,-3.51,8.94,0.5877777777777777,0.23555555555555555,-0.6877777777777778,0.5,-1.25,31.4375
1589543457.2947388,-0.69,-3.6,8.95,0.5877777777777777,0.23555555555555555,-0.6877777777777778,-0.125,-1.5,31.875
1589543457.3047779,-0.66,-3.55,8.92,0.5877777777777777,0.23555555555555555,-0.6877777777777778,0.4375,-0.75,33.6875
1589543457.3166342,-0.65,-3.65,8.93,0.5877777777777777,0.23555555555555555,-0.6877777777777778,1.0625,-0.8125,35.3125
1589543457.3294196,-0.66,-3.58,9.16,0.5811111111111111,0.23555555555555555,-0.7088888888888889,-0.5625,-2.4375,36.3125
1589543457.3357744,-0.74,-3.66,8.89,0.5811111111111111,0.23555555555555555,-0.7088888888888889,0.0625,-1.875,37.3125
1589543457.3482587,-0.67,-3.61,8.83,0.5811111111111111,0.23555555555555555,-0.7088888888888889,0.5,-1.75,38.9375
1589543457.354752,-0.54,-3.21,8.89,0.5811111111111111,0.23555555555555555,-0.7088888888888889,0.1875,-2.0625,39.6875
1589543457.3674302,-0.71,-3.32,8.89,0.5811111111111111,0.23555555555555555,-0.7088888888888889,0.5,-1.5,40.25
1589543457.374551,-0.71,-3.4,9.0,0.5866666666666667,0.2222222222222222,-0.7088888888888889,0.8125,-1.6875,40.9375
1589543457.3877196,-0.78,-3.57,9.0,0.5866666666666667,0.2222222222222222,-0.7088888888888889,0.0625,-1.9375,42.5
1589543457.3958488,-0.77,-3.54,8.82,0.5866666666666667,0.2222222222222222,-0.7088888888888889,-0.1875,-2.375,43.6875
1589543457.4074028,-0.83,-3.55,8.95,0.5866666666666667,0.2222222222222222,-0.7088888888888889,0.3125,-1.6875,44.9375
1589543457.417247,-0.76,-3.34,9.06,0.5866666666666667,0.2222222222222222,-0.7088888888888889,0.25,-1.9375,46.125
1589543457.4281802,-0.87,-3.5,8.81,0.5911111111111111,0.2088888888888889,-0.7377777777777778,1.125,-1.0625,47.375
1589543457.4369035,-0.87,-3.56,9.18,0.5911111111111111,0.2088888888888889,-0.7377777777777778,0.3125,-2.625,48.4375
1589543457.4457805,-0.84,-3.46,8.96,0.5911111111111111,0.2088888888888889,-0.7377777777777778,0.125,-2.4375,49.0625
1589543457.460617,-0.94,-3.53,8.92,0.5911111111111111,0.2088888888888889,-0.7377777777777778,0.9375,-1.125,49.125
1589543457.467616,-1.11,-3.76,9.12,0.5911111111111111,0.2088888888888889,-0.7377777777777778,-0.4375,-3.3125,49.0
1589543457.481574,-1.12,-3.67,9.01,0.5911111111111111,0.1688888888888889,-0.7444444444444445,-0.3125,-2.9375,49.4375
1589543457.4879606,-1.09,-3.63,8.9,0.5911111111111111,0.1688888888888889,-0.7444444444444445,0.6875,-1.6875,50.625
1589543457.5003405,-1.04,-3.42,8.77,0.5911111111111111,0.1688888888888889,-0.7444444444444445,0.5,-1.9375,51.8125
1589543457.5063238,-1.07,-3.42,8.84,0.5911111111111111,0.1688888888888889,-0.7444444444444445,0.875,-1.125,53.3125
1589543457.5199726,-0.99,-3.29,8.91,0.5911111111111111,0.1688888888888889,-0.7444444444444445,0.25,-2.0625,54.0
1589543457.526376,-0.98,-3.29,9.04,0.6255555555555555,0.16111111111111112,-0.7444444444444445,-0.0625,-2.8125,54.4375
1589543457.5394962,-1.15,-3.31,8.59,0.6255555555555555,0.16111111111111112,-0.7444444444444445,0.5625,-1.4375,54.625
1589543457.5466335,-1.19,-3.42,8.81,0.6255555555555555,0.16111111111111112,-0.7444444444444445,1.625,-0.875,55.5
1589543457.5569735,-1.05,-3.28,9.25,0.6255555555555555,0.16111111111111112,-0.7444444444444445,-0.0625,-3.25,55.0
1589543457.5671911,-0.92,-3.01,8.82,0.6255555555555555,0.16111111111111112,-0.7444444444444445,0.5,-1.25,54.1875
1589543457.5779898,-0.96,-3.06,9.39,0.5988888888888889,0.14888888888888888,-0.7866666666666666,-1.0,-4.375,52.125
1589543457.585433,-1.08,-3.15,9.14,0.5988888888888889,0.14888888888888888,-0.7866666666666666,-1.5625,-3.875,49.5625
1589543457.596409,-1.2,-3.21,8.69,0.5988888888888889,0.14888888888888888,-0.7866666666666666,0.5,-0.6875,48.25
1589543457.6054447,-1.34,-3.36,9.08,0.5988888888888889,0.14888888888888888,-0.7866666666666666,0.375,-2.0,47.3125
1589543457.6173658,-1.33,-3.41,9.0,0.5988888888888889,0.14888888888888888,-0.7866666666666666,-0.25,-2.1875,47.0
1589543457.6246018,-1.3,-3.23,8.7,0.5988888888888889,0.10222222222222224,-0.7866666666666666,0.625,-0.6875,46.8125
1589543457.635125,-1.3,-3.23,8.7,0.5988888888888889,0.10222222222222224,-0.7866666666666666,0.625,-0.6875,46.8125
1589543457.6410625,-1.54,-3.47,9.11,0.5988888888888889,0.10222222222222224,-0.7866666666666666,-0.6875,-2.5,45.5
1589543457.6519866,-1.48,-3.33,8.48,0.5988888888888889,0.10222222222222224,-0.7866666666666666,-0.125,-1.25,45.125
1589543457.6587286,-1.46,-3.33,9.0,0.5988888888888889,0.10222222222222224,-0.7866666666666666,0.4375,-1.1875,45.875
1589543457.6696231,-1.54,-3.36,9.36,0.5988888888888889,0.10222222222222224,-0.7866666666666666,-1.0625,-3.0625,46.25
1589543457.6763494,-1.48,-3.24,8.87,0.5777777777777777,0.06888888888888889,-0.8088888888888889,0.5,0.0,47.5
1589543457.6903312,-1.6,-3.33,9.19,0.5777777777777777,0.06888888888888889,-0.8088888888888889,-0.5625,-2.3125,47.9375
1589543457.6971571,-1.55,-3.22,8.89,0.5777777777777777,0.06888888888888889,-0.8088888888888889,-0.9375,-2.625,48.3125
1589543457.7103446,-1.69,-3.29,8.99,0.5777777777777777,0.06888888888888889,-0.8088888888888889,0.0625,-1.375,49.5625
1589543457.7188165,-1.81,-3.34,9.1,0.5777777777777777,0.06888888888888889,-0.8088888888888889,-0.5,-2.0625,50.375
1589543457.7278814,-1.76,-3.27,8.9,0.5866666666666667,0.008888888888888889,-0.8011111111111111,-0.5,-1.5,51.6875
1589543457.737164,-1.72,-3.22,9.06,0.5866666666666667,0.008888888888888889,-0.8011111111111111,0.125,-0.75,53.875
1589543457.7472732,-1.8,-3.29,8.7,0.5866666666666667,0.008888888888888889,-0.8011111111111111,-0.25,-1.1875,55.25
1589543457.7570572,-1.74,-3.18,9.17,0.5866666666666667,0.008888888888888889,-0.8011111111111111,-0.875,-1.625,57.125
1589543457.7693017,-1.84,-3.2,9.14,0.5866666666666667,0.008888888888888889,-0.8011111111111111,-1.1875,-2.375,58.625
1589543457.7764835,-1.87,-3.16,8.73,0.6044444444444445,-0.03555555555555556,-0.7655555555555555,0.1875,-0.125,61.375
1589543457.7878878,-1.77,-3.07,8.96,0.6044444444444445,-0.03555555555555556,-0.7655555555555555,-0.75,-1.3125,64.1875
1589543457.797484,-2.0,-3.13,8.63,0.6044444444444445,-0.03555555555555556,-0.7655555555555555,-0.75,-1.125,66.375
1589543457.8079393,-2.06,-3.15,9.03,0.6044444444444445,-0.03555555555555556,-0.7655555555555555,-0.9375,-2.4375,68.75
1589543457.8193824,-2.3,-3.28,9.09,0.6044444444444445,-0.03555555555555556,-0.7655555555555555,-1.25,-3.25,72.9375
1589543457.8277395,-2.14,-3.13,8.53,0.5788888888888889,-0.05666666666666665,-0.8155555555555556,0.0,-1.0625,78.0625
1589543457.8414528,-1.94,-2.97,9.42,0.5788888888888889,-0.05666666666666665,-0.8155555555555556,-0.3125,-2.5625,82.75
1589543457.848151,-1.95,-2.93,8.94,0.5788888888888889,-0.05666666666666665,-0.8155555555555556,-0.5,-3.3125,86.0
1589543457.860665,-1.97,-2.92,9.29,0.5788888888888889,-0.05666666666666665,-0.8155555555555556,0.5,-1.3125,88.5
1589543457.8687437,-2.07,-2.92,9.32,0.5788888888888889,-0.05666666666666665,-0.8155555555555556,-2.75,-6.875,90.0625
1589543457.8806994,-2.02,-2.68,8.35,0.5344444444444445,-0.1688888888888889,-0.7911111111111111,-1.0625,-4.125,92.5
1589543457.8867257,-2.43,-2.97,9.28,0.5344444444444445,-0.1688888888888889,-0.7911111111111111,-1.0625,-6.125,94.8125
1589543457.900819,-2.22,-2.67,8.2,0.5344444444444445,-0.1688888888888889,-0.7911111111111111,0.0,-4.375,98.75
1589543457.9071882,-2.4,-2.83,9.11,0.5344444444444445,-0.1688888888888889,-0.7911111111111111,0.75,-2.5625,103.75
1589543457.9206564,-2.22,-2.7,9.51,0.5344444444444445,-0.1688888888888889,-0.7911111111111111,-1.5625,-7.375,108.25
1589543457.9267426,-2.13,-2.56,8.82,0.51,-0.20777777777777776,-0.7,1.4375,-2.9375,114.625
1589543457.9370306,-2.1,-2.55,8.51,0.51,-0.20777777777777776,-0.7,3.0625,-0.625,118.9375
1589543457.9471676,-1.81,-2.31,8.44,0.51,-0.20777777777777776,-0.7,0.0,-4.5,119.5
1589543457.957344,-2.5,-2.69,9.31,0.51,-0.20777777777777776,-0.7,-2.25,-11.0625,118.5
1589543457.9719725,-2.28,-2.41,8.28,0.51,-0.20777777777777776,-0.7,1.1875,-4.3125,120.0
1589543457.9791524,-2.12,-2.36,8.95,0.5066666666666667,-0.21444444444444444,-0.6855555555555556,0.875,-4.75,119.3125
1589543457.9877574,-2.12,-2.26,9.0,0.5066666666666667,-0.21444444444444444,-0.6855555555555556,0.875,-4.75,119.3125
1589543457.9989786,-2.37,-2.38,9.88,0.5066666666666667,-0.21444444444444444,-0.6855555555555556,-2.5,-9.5625,113.0625
1589543458.007296,-2.4,-2.26,9.27,0.5066666666666667,-0.21444444444444444,-0.6855555555555556,0.875,-3.75,112.25
1589543458.0197482,-2.19,-2.05,8.27,0.5066666666666667,-0.21444444444444444,-0.6855555555555556,0.6875,-5.625,110.6875
1589543458.0298345,-2.23,-2.17,9.12,0.5311111111111111,-0.23555555555555555,-0.6788888888888889,-1.5625,-7.9375,108.0
1589543458.0381155,-2.53,-2.03,8.66,0.5311111111111111,-0.23555555555555555,-0.6788888888888889,1.625,-1.625,107.0625
1589543458.0510476,-2.36,-1.95,9.08,0.5311111111111111,-0.23555555555555555,-0.6788888888888889,1.0625,-3.5,104.4375
1589543458.057885,-2.1,-1.77,8.77,0.5311111111111111,-0.23555555555555555,-0.6788888888888889,0.625,-4.4375,100.3125
1589543458.070099,-2.66,-1.98,9.69,0.5311111111111111,-0.23555555555555555,-0.6788888888888889,-0.9375,-7.125,94.875
1589543458.0768845,-2.83,-1.91,9.22,0.4922222222222222,-0.26222222222222225,-0.6666666666666666,1.125,-3.0625,93.0
1589543458.0857985,-2.83,-1.91,9.22,0.4922222222222222,-0.26222222222222225,-0.6666666666666666,1.125,-3.0625,93.0
1589543458.0926175,-2.68,-1.81,8.9,0.4922222222222222,-0.26222222222222225,-0.6666666666666666,2.125,-1.8125,91.375
1589543458.0991926,-2.33,-1.61,8.98,0.4922222222222222,-0.26222222222222225,-0.6666666666666666,0.9375,-3.0625,86.1875
1589543458.1094868,-2.52,-1.62,9.64,0.4922222222222222,-0.26222222222222225,-0.6666666666666666,-2.8125,-10.4375,78.9375
1589543458.120826,-2.91,-1.78,10.11,0.4922222222222222,-0.26222222222222225,-0.6666666666666666,0.125,-4.9375,76.0
1589543458.128117,-2.68,-1.56,8.85,0.4711111111111111,-0.27555555555555555,-0.68,4.375,3.0625,75.5625
1589543458.1381311,-2.97,-1.62,9.52,0.4711111111111111,-0.27555555555555555,-0.68,-1.3125,-7.75,72.5
1589543458.1499946,-2.8,-1.62,9.94,0.4711111111111111,-0.27555555555555555,-0.68,-2.25,-8.625,71.75
1589543458.1582644,-2.82,-1.46,8.89,0.4711111111111111,-0.27555555555555555,-0.68,2.3125,-1.3125,71.9375
1589543458.1701384,-2.46,-1.31,8.33,0.4711111111111111,-0.27555555555555555,-0.68,-0.5625,-4.8125,70.1875
1589543458.1803193,-2.56,-1.34,9.39,0.4811111111111111,-0.28,-0.6944444444444444,0.8125,-5.6875,69.0
1589543458.1881106,-2.97,-1.8,9.11,0.4811111111111111,-0.28,-0.6944444444444444,3.625,0.25,69.0
1589543458.2027225,-2.48,-1.15,8.37,0.4811111111111111,-0.28,-0.6944444444444444,0.125,-0.875,66.6875
1589543458.2095106,-2.55,-1.55,10.9,0.4811111111111111,-0.28,-0.6944444444444444,-5.125,-10.375,52.0625
1589543458.220893,-2.69,-0.87,8.0,0.4811111111111111,-0.28,-0.6944444444444444,4.25,2.875,45.0
1589543458.2282848,-2.01,-0.82,8.41,0.46,-0.3333333333333333,-0.68,-1.5625,-4.625,39.125
1589543458.234141,-2.01,-0.82,8.41,0.46,-0.3333333333333333,-0.68,-1.5625,-4.625,39.125
1589543458.2487373,-2.22,-0.79,8.49,0.46,-0.3333333333333333,-0.68,5.0625,4.5,21.6875
1589543458.2581785,-2.21,-0.82,8.91,0.46,-0.3333333333333333,-0.68,1.3125,1.1875,9.875
1589543458.2659554,-2.21,-0.82,8.91,0.46,-0.3333333333333333,-0.68,1.3125,1.1875,9.875
1589543458.2722313,-2.7,-1.02,9.58,0.46,-0.3333333333333333,-0.68,-1.0,0.8125,-2.0
1589543458.2810278,-2.08,-0.86,8.41,0.4311111111111111,-0.32666666666666666,-0.6877777777777778,-0.125,-1.0,-11.0625
1589543458.2894402,-2.81,-0.94,8.87,0.4311111111111111,-0.32666666666666666,-0.6877777777777778,-1.0625,-0.5625,-21.5625
1589543458.3005064,-2.55,-1.03,8.75,0.4311111111111111,-0.32666666666666666,-0.6877777777777778,-2.375,-2.4375,-27.6875
1589543458.3096097,-2.9,-1.19,9.86,0.4311111111111111,-0.32666666666666666,-0.6877777777777778,-2.1875,-1.375,-29.375
1589543458.3208725,-3.35,-1.18,8.87,0.4311111111111111,-0.32666666666666666,-0.6877777777777778,1.625,3.75,-27.1875
1589543458.329702,-3.08,-1.17,8.94,0.4511111111111111,-0.3466666666666667,-0.6877777777777778,-0.625,0.9375,-25.625
1589543458.3389552,-2.57,-1.17,9.68,0.4511111111111111,-0.3466666666666667,-0.6877777777777778,-1.5,-1.25,-26.5625
1589543458.345502,-2.57,-1.17,9.68,0.4511111111111111,-0.3466666666666667,-0.6877777777777778,-1.5,-1.25,-26.5625
1589543458.3561952,-2.56,-1.11,9.29,0.4511111111111111,-0.3466666666666667,-0.6877777777777778,1.4375,4.5625,-30.0625
1589543458.3624434,-3.42,-1.38,9.63,0.4511111111111111,-0.3466666666666667,-0.6877777777777778,-1.8125,-1.5,-33.3125
1589543458.3757186,-2.65,-1.2,9.22,0.4511111111111111,-0.3466666666666667,-0.6877777777777778,-2.375,-1.0,-32.3125
1589543458.3813062,-2.27,-1.13,9.24,0.43,-0.3977777777777778,-0.7022222222222222,-0.4375,1.0625,-34.3125
1589543458.393497,-3.23,-1.38,9.18,0.43,-0.3977777777777778,-0.7022222222222222,0.1875,2.6875,-38.3125
1589543458.4000242,-2.92,-1.33,8.66,0.43,-0.3977777777777778,-0.7022222222222222,0.8125,4.625,-39.6875
1589543458.4098456,-3.05,-1.36,8.8,0.43,-0.3977777777777778,-0.7022222222222222,-1.6875,0.125,-41.0
1589543458.4215994,-3.47,-1.63,9.86,0.43,-0.3977777777777778,-0.7022222222222222,-1.875,-0.0625,-38.9375
1589543458.4332829,-3.06,-1.45,8.71,0.3655555555555556,-0.5488888888888889,-0.6233333333333333,1.25,4.125,-35.5625
1589543458.440142,-2.4,-1.38,9.31,0.3655555555555556,-0.5488888888888889,-0.6233333333333333,-1.75,-0.5,-36.4375
1589543458.4496381,-2.79,-1.54,9.25,0.3655555555555556,-0.5488888888888889,-0.6233333333333333,-1.5,1.0625,-40.6875
1589543458.4598153,-2.79,-1.51,8.95,0.3655555555555556,-0.5488888888888889,-0.6233333333333333,0.75,3.9375,-42.3125
1589543458.4747086,-2.41,-1.42,8.61,0.3655555555555556,-0.5488888888888889,-0.6233333333333333,0.375,3.5,-44.75
1589543458.4813464,-2.54,-1.61,9.46,0.27555555555555555,-1.1233333333333333,0.13777777777777778,-2.375,-0.25,-48.5625
1589543458.49015,-2.46,-1.59,9.41,0.27555555555555555,-1.1233333333333333,0.13777777777777778,-0.375,2.9375,-52.4375
1589543458.5065858,-2.32,-1.63,9.32,0.27555555555555555,-1.1233333333333333,0.13777777777777778,-0.625,2.375,-58.1875
1589543458.5132446,-2.11,-1.66,9.44,0.27555555555555555,-1.1233333333333333,0.13777777777777778,-1.75,0.9375,-62.75
1589543458.5267766,-2.75,-1.84,9.11,0.27555555555555555,-1.1233333333333333,0.13777777777777778,1.25,5.625,-66.9375
1589543458.5323436,-2.27,-1.79,8.82,1.1022222222222222,-0.5866666666666667,-0.5166666666666667,1.75,6.6875,-71.8125
1589543458.544376,-2.71,-2.16,9.81,1.1022222222222222,-0.5866666666666667,-0.5166666666666667,-2.75,0.0,-80.9375
1589543458.5512302,-2.5,-2.03,9.0,1.1022222222222222,-0.5866666666666667,-0.5166666666666667,-1.125,3.1875,-86.5625
1589543458.5646253,-1.89,-1.93,8.65,1.1022222222222222,-0.5866666666666667,-0.5166666666666667,-0.125,4.5625,-90.0
1589543458.5724733,-1.95,-2.32,9.94,1.1022222222222222,-0.5866666666666667,-0.5166666666666667,-1.6875,2.5625,-97.9375
1589543458.5840044,-1.79,-2.11,8.34,0.7055555555555556,-0.32666666666666666,-0.7233333333333334,1.8125,7.875,-104.6875
1589543458.5902507,-1.67,-2.16,8.61,0.7055555555555556,-0.32666666666666666,-0.7233333333333334,-0.5625,4.0625,-114.6875
1589543458.600997,-2.07,-2.53,10.19,0.7055555555555556,-0.32666666666666666,-0.7233333333333334,-3.9375,1.6875,-123.9375
1589543458.6125093,-2.53,-2.6,8.27,0.7055555555555556,-0.32666666666666666,-0.7233333333333334,2.75,11.4375,-126.0625
1589543458.6243072,-2.06,-2.53,8.84,0.7055555555555556,-0.32666666666666666,-0.7233333333333334,0.0,5.9375,-128.0625
1589543458.6307325,-2.11,-2.59,8.91,0.6133333333333333,-0.23555555555555555,-0.7377777777777778,-4.0,0.6875,-132.4375
1589543458.6412327,-1.67,-2.59,9.23,0.6133333333333333,-0.23555555555555555,-0.7377777777777778,-3.6875,2.1875,-134.3125
1589543458.6557212,-2.06,-2.81,8.63,0.6133333333333333,-0.23555555555555555,-0.7377777777777778,2.5625,9.1875,-134.25
1589543458.661688,-2.45,-3.06,9.3,0.6133333333333333,-0.23555555555555555,-0.7377777777777778,0.375,7.5,-138.1875
1589543458.6760054,-1.61,-2.6,8.54,0.6133333333333333,-0.23555555555555555,-0.7377777777777778,-0.6875,8.375,-140.5
1589543458.6825953,-1.81,-2.95,9.64,0.6077777777777778,-0.1511111111111111,-0.7566666666666667,-1.25,3.75,-144.5
1589543458.6911645,-2.11,-3.07,9.11,0.6077777777777778,-0.1511111111111111,-0.7566666666666667,-1.25,4.5625,-148.0
1589543458.7020488,-2.09,-3.13,8.66,0.6077777777777778,-0.1511111111111111,-0.7566666666666667,-1.125,7.125,-148.625
1589543458.7131221,-2.34,-3.31,9.03,0.6077777777777778,-0.1511111111111111,-0.7566666666666667,-0.6875,6.0,-148.4375
1589543458.723098,-2.2,-3.4,9.08,0.6077777777777778,-0.1511111111111111,-0.7566666666666667,-0.75,6.5,-145.75
1589543458.7349615,-2.04,-3.32,8.89,0.6355555555555555,-0.09222222222222222,-0.7588888888888888,-0.625,6.5625,-143.3125
1589543458.7417164,-2.3,-3.65,9.33,0.6355555555555555,-0.09222222222222222,-0.7588888888888888,-0.75,5.75,-141.9375
1589543458.7545488,-1.81,-3.39,8.63,0.6355555555555555,-0.09222222222222222,-0.7588888888888888,0.125,7.375,-139.3125
1589543458.761766,-1.91,-3.49,9.01,0.6355555555555555,-0.09222222222222222,-0.7588888888888888,-0.6875,3.9375,-137.0625
1589543458.773586,-1.82,-3.52,9.26,0.6355555555555555,-0.09222222222222222,-0.7588888888888888,-1.875,3.0,-132.5625
1589543458.7809582,-1.89,-3.59,9.42,0.6344444444444445,-0.012222222222222223,-0.7377777777777778,1.25,6.9375,-126.0625
1589543458.7945852,-37.05,-33.58,8.78,0.6344444444444445,-0.012222222222222223,-0.7377777777777778,8.25,29.375,-105.0
1589543458.8016176,5.34,5.14,-0.32,0.6344444444444445,-0.012222222222222223,-0.7377777777777778,-24.125,60.625,-52.75
1589543458.812007,0.05,2.64,7.35,0.6344444444444445,-0.012222222222222223,-0.7377777777777778,-65.0625,-18.0625,-31.875
1589543458.8291912,5.89,-0.41,26.42,0.6344444444444445,-0.012222222222222223,-0.7377777777777778,-8.4375,-68.0,28.125
1589543458.835237,1.87,2.93,5.24,0.6488888888888888,0.054444444444444434,-0.7377777777777778,62.5,-43.9375,24.0
1589543458.8423533,0.01,2.24,2.2,0.6488888888888888,0.054444444444444434,-0.7377777777777778,43.625,57.8125,14.75
1589543458.8546374,1.22,-0.32,10.11,0.6488888888888888,0.054444444444444434,-0.7377777777777778,-36.5,-32.0625,19.1875
1589543458.8645878,-0.56,-1.11,5.95,0.6488888888888888,0.054444444444444434,-0.7377777777777778,-6.125,-11.8125,12.875
1589543458.8737018,-1.27,-1.59,7.54,0.6488888888888888,0.054444444444444434,-0.7377777777777778,12.4375,15.5,0.4375
1589543458.8857262,-1.07,-1.89,11.01,0.6111111111111112,0.06888888888888889,-0.73,-7.6875,-9.375,-5.125
1589543458.8926733,-1.45,-2.14,8.46,0.6111111111111112,0.06888888888888889,-0.73,0.375,2.3125,-1.625
1589543458.9077456,-1.25,-2.54,9.78,0.6111111111111112,0.06888888888888889,-0.73,3.1875,-0.375,3.25
1589543458.9142807,-1.28,-2.49,8.57,0.6111111111111112,0.06888888888888889,-0.73,-1.875,-0.4375,9.5
1589543458.9246738,-1.35,-2.57,8.83,0.6111111111111112,0.06888888888888889,-0.73,-1.4375,-0.4375,14.5
1589543458.931381,-1.26,-2.72,9.02,0.6177777777777778,0.07111111111111111,-0.7233333333333334,0.375,-1.1875,20.75
1589543458.9376054,-1.26,-2.72,9.02,0.6177777777777778,0.07111111111111111,-0.7233333333333334,0.375,-1.1875,20.75
1589543458.9476385,-1.6,-2.86,9.12,0.6177777777777778,0.07111111111111111,-0.7233333333333334,1.4375,-1.25,27.375
1589543458.9538734,-14.85,-24.89,9.01,0.6177777777777778,0.07111111111111111,-0.7233333333333334,1.25,-1.6875,32.25
1589543458.9645016,-2.63,-6.34,6.86,0.6177777777777778,0.07111111111111111,-0.7233333333333334,-5.375,-7.375,10.5
1589543458.9788795,-0.84,0.28,8.49,0.6177777777777778,0.07111111111111111,-0.7233333333333334,2.75,3.5,-12.0625
1589543458.9851,-1.91,-1.89,7.78,0.64,0.06,-0.7233333333333334,8.25,9.25,-9.5625
1589543458.9924777,-2.45,-3.5,10.21,0.64,0.06,-0.7233333333333334,-7.75,-6.0625,-3.4375
1589543459.0025241,-2.77,-4.53,8.18,0.64,0.06,-0.7233333333333334,0.5625,0.25,4.6875
1589543459.0126786,-1.65,-2.63,9.14,0.64,0.06,-0.7233333333333334,2.625,1.4375,2.375
1589543459.0243554,-1.91,-3.8,9.41,0.64,0.06,-0.7233333333333334,-1.625,-2.3125,-0.6875
1589543459.0380287,-2.14,-3.57,8.53,0.6266666666666667,0.05333333333333334,-0.7377777777777778,-0.875,1.6875,0.0625
1589543459.044384,-1.94,-3.46,9.19,0.6266666666666667,0.05333333333333334,-0.7377777777777778,1.0,-0.4375,-0.125
1589543459.0577853,-2.01,-3.51,8.88,0.6266666666666667,0.05333333333333334,-0.7377777777777778,0.625,-0.75,-0.1875
1589543459.0636654,-1.96,-3.51,8.98,0.6266666666666667,0.05333333333333334,-0.7377777777777778,-0.3125,0.0,-0.125
1589543459.0761304,-2.05,-3.52,8.86,0.6266666666666667,0.05333333333333334,-0.7377777777777778,-0.4375,0.4375,-0.0625
1589543459.0834787,-2.07,-3.61,8.91,0.6344444444444445,0.06,-0.7377777777777778,-0.125,0.75,0.125
1589543459.094277,-1.98,-3.58,9.08,0.6344444444444445,0.06,-0.7377777777777778,0.125,-0.25,-0.125
1589543459.10343,-2.03,-3.47,8.89,0.6344444444444445,0.06,-0.7377777777777778,1.0,-0.125,-0.0625
1589543459.1140482,-1.99,-3.54,9.06,0.6344444444444445,0.06,-0.7377777777777778,0.1875,-0.1875,-0.0625
1589543459.1261337,-2.03,-3.54,8.93,0.6344444444444445,0.06,-0.7377777777777778,-0.5625,0.375,-0.0625
1589543459.1336277,-2.07,-3.58,8.91,0.6266666666666667,0.06,-0.7377777777777778,-0.5625,0.5,0.0
1589543459.1443908,-2.03,-3.56,8.96,0.6266666666666667,0.06,-0.7377777777777778,-0.1875,0.0625,0.0625
1589543459.156451,-1.99,-3.47,8.98,0.6266666666666667,0.06,-0.7377777777777778,0.75,-0.0625,0.0
1589543459.1658852,-2.01,-3.51,9.02,0.6266666666666667,0.06,-0.7377777777777778,0.4375,-0.0625,0.0
1589543459.1769564,-2.0,-3.55,9.01,0.6266666666666667,0.06,-0.7377777777777778,-0.3125,0.3125,-0.0625
1589543459.1898036,-2.03,-3.57,8.92,0.6266666666666667,0.05333333333333334,-0.7233333333333334,-0.5625,0.375,-0.0625
1589543459.196636,-2.01,-3.57,8.96,0.6266666666666667,0.05333333333333334,-0.7233333333333334,-0.3125,0.0625,-0.0625
1589543459.210021,-2.0,-3.53,8.93,0.6266666666666667,0.05333333333333334,-0.7233333333333334,0.625,-0.3125,0.0
1589543459.2167366,-2.03,-3.47,8.99,0.6266666666666667,0.05333333333333334,-0.7233333333333334,0.75,-0.125,-0.0625
1589543459.2298625,-2.0,-3.53,9.02,0.6266666666666667,0.05333333333333334,-0.7233333333333334,-0.125,0.125,-0.0625
1589543459.2368095,-2.03,-3.57,8.96,0.6266666666666667,0.05333333333333334,-0.7377777777777778,-0.5625,0.5,0.0
1589543459.2489266,-2.03,-3.56,8.92,0.6266666666666667,0.05333333333333334,-0.7377777777777778,-0.3125,0.0625,0.0
1589543459.254875,-2.0,-3.5,8.93,0.6266666666666667,0.05333333333333334,-0.7377777777777778,0.125,-0.125,-0.0625
1589543459.2653413,-1.99,-3.5,9.03,0.6266666666666667,0.05333333333333334,-0.7377777777777778,0.625,-0.3125,0.0
1589543459.2771626,-2.0,-3.5,9.0,0.6266666666666667,0.05333333333333334,-0.7377777777777778,0.0625,0.0625,0.0
1589543459.2947786,-2.05,-3.55,8.89,0.6411111111111111,0.05333333333333334,-0.7511111111111111,-0.125,0.125,0.0625
1589543459.305192,-2.02,-3.52,8.88,0.6411111111111111,0.05333333333333334,-0.7511111111111111,0.1875,0.0,-0.0625
1589543459.315174,-2.0,-3.51,8.98,0.6411111111111111,0.05333333333333334,-0.7511111111111111,0.375,-0.0625,0.0
1589543459.3287222,-2.0,-3.51,9.03,0.6411111111111111,0.05333333333333334,-0.7511111111111111,0.4375,-0.0625,-0.1875
1589543459.3398194,-2.04,-3.55,8.98,0.6266666666666667,0.05333333333333334,-0.7444444444444445,-0.3125,0.25,-0.0625
1589543459.3459215,-2.04,-3.56,8.94,0.6266666666666667,0.05333333333333334,-0.7444444444444445,-0.5625,0.4375,0.0
1589543459.3560414,-2.03,-3.54,8.85,0.6266666666666667,0.05333333333333334,-0.7444444444444445,0.0,0.1875,-0.0625
1589543459.367627,-2.0,-3.51,9.01,0.6266666666666667,0.05333333333333334,-0.7444444444444445,0.4375,-0.375,-0.0625
1589543459.3807511,-2.0,-3.49,9.05,0.6266666666666667,0.05333333333333334,-0.7444444444444445,0.4375,-0.25,-0.125
1589543459.3869064,-2.02,-3.53,9.02,0.6411111111111111,0.06,-0.7511111111111111,0.25,0.25,-0.0625
1589543459.3999915,-2.03,-3.57,8.98,0.6411111111111111,0.06,-0.7511111111111111,-0.375,0.25,0.0625
1589543459.4058568,-2.02,-3.53,8.86,0.6411111111111111,0.06,-0.7511111111111111,-0.0625,0.25,0.0625
1589543459.4196546,-2.0,-3.52,8.99,0.6411111111111111,0.06,-0.7511111111111111,0.4375,-0.3125,-0.0625
1589543459.4277694,-1.99,-3.51,9.06,0.6411111111111111,0.06,-0.7511111111111111,0.4375,-0.3125,0.0
1589543459.4386373,-2.02,-3.54,8.99,0.6411111111111111,0.07222222222222223,-0.7377777777777778,0.125,0.0,0.0
1589543459.4459324,-2.04,-3.57,8.94,0.6411111111111111,0.07222222222222223,-0.7377777777777778,-0.4375,0.3125,-0.0625
1589543459.4556446,-2.05,-3.55,8.82,0.6411111111111111,0.07222222222222223,-0.7377777777777778,-0.3125,0.25,0.0625
1589543459.4657688,-2.04,-3.53,8.9,0.6411111111111111,0.07222222222222223,-0.7377777777777778,0.1875,0.0,0.0625
1589543459.4796991,-2.01,-3.5,9.05,0.6411111111111111,0.07222222222222223,-0.7377777777777778,0.5625,-0.1875,-0.1875
1589543459.4877453,-2.0,-3.52,9.05,0.6266666666666667,0.06555555555555556,-0.73,0.25,0.0,-0.0625
1589543459.4976904,-2.03,-3.53,9.01,0.6266666666666667,0.06555555555555556,-0.73,-0.25,0.3125,-0.0625
1589543459.5057845,-2.02,-3.54,8.88,0.6266666666666667,0.06555555555555556,-0.73,-0.375,0.3125,0.0625
1589543459.5179367,-2.01,-3.53,8.96,0.6266666666666667,0.06555555555555556,-0.73,0.0,0.0625,0.0
1589543459.533576,-2.03,-3.51,9.04,0.6266666666666667,0.06555555555555556,-0.73,0.3125,-0.25,0.0
1589543459.539401,-2.0,-3.51,9.07,0.6411111111111111,0.05333333333333334,-0.7088888888888889,0.375,-0.0625,-0.125
1589543459.5491455,-2.02,-3.54,8.92,0.6411111111111111,0.05333333333333334,-0.7088888888888889,-0.1875,0.3125,-0.125
1589543459.5560136,-2.04,-3.55,8.83,0.6411111111111111,0.05333333333333334,-0.7088888888888889,-0.4375,0.125,0.0625
1589543459.5713706,-2.03,-3.54,8.92,0.6411111111111111,0.05333333333333334,-0.7088888888888889,-0.0625,0.25,-0.125
1589543459.5782669,-2.0,-3.51,9.03,0.6411111111111111,0.05333333333333334,-0.7088888888888889,0.25,0.0,-0.125
1589543459.591317,-2.0,-3.54,9.04,0.6266666666666667,0.06,-0.7377777777777778,0.375,-0.1875,-0.0625
1589543459.5979753,-2.03,-3.53,9.01,0.6266666666666667,0.06,-0.7377777777777778,0.0625,-0.0625,0.0
1589543459.6067634,-2.03,-3.55,8.88,0.6266666666666667,0.06,-0.7377777777777778,-0.0625,0.1875,0.125
1589543459.6161106,-2.03,-3.53,8.95,0.6266666666666667,0.06,-0.7377777777777778,-0.0625,0.1875,0.0625
1589543459.6287026,-2.0,-3.53,9.01,0.6266666666666667,0.06,-0.7377777777777778,0.375,-0.1875,0.0625
1589543459.636373,-2.01,-3.51,9.06,0.6266666666666667,0.06,-0.73,0.0625,-0.0625,0.125
1589543459.649058,-2.01,-3.52,9.07,0.6266666666666667,0.06,-0.73,0.0625,-0.0625,0.125
1589543459.6574082,-2.03,-3.53,8.86,0.6266666666666667,0.06,-0.73,-0.3125,0.125,0.0625
1589543459.6697755,-2.03,-3.56,8.92,0.6266666666666667,0.06,-0.73,0.125,0.0,-0.0625
1589543459.6843548,-2.02,-3.54,8.96,0.6266666666666667,0.06,-0.73,0.375,-0.0625,-0.125
1589543459.690269,-2.01,-3.51,9.06,0.6411111111111111,0.05333333333333334,-0.7377777777777778,0.0,-0.0625,-0.0625
1589543459.6971366,-2.01,-3.51,8.98,0.6411111111111111,0.05333333333333334,-0.7377777777777778,0.0,-0.0625,0.0625
1589543459.7067382,-2.03,-3.52,8.9,0.6411111111111111,0.05333333333333334,-0.7377777777777778,-0.1875,0.125,-0.1875
1589543459.7221255,-2.02,-3.56,8.9,0.6411111111111111,0.05333333333333334,-0.7377777777777778,0.0,-0.0625,0.0625
1589543459.7294755,-2.01,-3.51,8.98,0.6411111111111111,0.05333333333333334,-0.7377777777777778,0.4375,-0.0625,-0.0625
1589543459.742269,-2.01,-3.51,9.04,0.62,0.05333333333333334,-0.7377777777777778,0.25,-0.125,-0.0625
1589543459.7487302,-2.01,-3.52,9.04,0.62,0.05333333333333334,-0.7377777777777778,-0.0625,0.1875,-0.1875
1589543459.7606585,-2.04,-3.55,8.87,0.62,0.05333333333333334,-0.7377777777777778,-0.125,0.5,-0.125
1589543459.7677152,-2.05,-3.53,8.91,0.62,0.05333333333333334,-0.7377777777777778,-0.1875,0.25,0.0
1589543459.7816985,-2.01,-3.54,8.97,0.62,0.05333333333333334,-0.7377777777777778,0.1875,0.0,0.0625
1589543459.7878318,-2.02,-3.53,9.02,0.6266666666666667,0.045555555555555564,-0.7377777777777778,0.25,-0.0625,-0.0625
1589543459.801137,-2.02,-3.53,8.99,0.6266666666666667,0.045555555555555564,-0.7377777777777778,0.0625,0.0,-0.0625
1589543459.807214,-2.04,-3.52,8.89,0.6266666666666667,0.045555555555555564,-0.7377777777777778,-0.0625,0.25,0.0
1589543459.8174946,-2.04,-3.54,8.91,0.6266666666666667,0.045555555555555564,-0.7377777777777778,-0.125,0.0,-0.125
1589543459.8301153,-2.04,-3.55,8.97,0.6266666666666667,0.045555555555555564,-0.7377777777777778,0.1875,0.0,-0.1875
1589543459.8406687,-2.01,-3.51,9.03,0.6266666666666667,0.06555555555555556,-0.7444444444444445,0.25,-0.125,-0.1875
1589543459.8476439,-2.0,-3.5,9.05,0.6266666666666667,0.06555555555555556,-0.7444444444444445,0.125,0.125,0.0
1589543459.8597162,-2.01,-3.51,8.91,0.6266666666666667,0.06555555555555556,-0.7444444444444445,-0.1875,0.3125,0.125
1589543459.8730552,-2.01,-3.53,8.94,0.6266666666666667,0.06555555555555556,-0.7444444444444445,-0.1875,0.3125,-0.25
1589543459.8803544,-2.04,-3.55,8.95,0.6266666666666667,0.06555555555555556,-0.7444444444444445,0.0,0.125,-0.0625
1589543459.8936214,-2.02,-3.54,9.0,0.62,0.06,-0.73,0.25,-0.125,-0.125
1589543459.9001598,-2.03,-3.54,9.05,0.62,0.06,-0.73,0.1875,-0.25,0.0625
1589543459.912312,-2.02,-3.52,8.91,0.62,0.06,-0.73,-0.0625,-0.0625,0.0625
1589543459.9187822,-2.03,-3.52,8.93,0.62,0.06,-0.73,-0.125,0.25,0.0
1589543459.9307704,-2.03,-3.55,8.94,0.62,0.06,-0.73,0.0,0.1875,-0.0625
1589543459.938301,-2.01,-3.52,9.04,0.6344444444444445,0.05333333333333334,-0.7155555555555555,0.3125,-0.0625,0.0
1589543459.951886,-2.03,-3.52,9.03,0.6344444444444445,0.05333333333333334,-0.7155555555555555,0.25,-0.0625,-0.125
1589543459.95795,-2.01,-3.51,8.91,0.6344444444444445,0.05333333333333334,-0.7155555555555555,-0.0625,0.25,-0.1875
1589543459.9708722,-2.0,-3.53,8.91,0.6344444444444445,0.05333333333333334,-0.7155555555555555,-0.1875,0.25,-0.125
1589543459.9810686,-2.01,-3.55,8.97,0.6344444444444445,0.05333333333333334,-0.7155555555555555,-0.125,0.1875,-0.0625
1589543459.9926205,-2.0,-3.57,9.0,0.6266666666666667,0.06,-0.7377777777777778,0.125,0.0,-0.0625
1589543459.9991586,-2.01,-3.51,9.04,0.6266666666666667,0.06,-0.7377777777777778,0.125,-0.125,-0.0625
1589543460.0082095,-2.0,-3.52,8.91,0.6266666666666667,0.06,-0.7377777777777778,0.125,0.0,0.0
1589543460.0184019,-2.01,-3.54,8.95,0.6266666666666667,0.06,-0.7377777777777778,-0.125,-0.0625,0.0
1589543460.0315006,-2.04,-3.56,8.97,0.6266666666666667,0.06,-0.7377777777777778,0.0,0.0625,0.0625
1589543460.0383825,-2.03,-3.55,8.99,0.6411111111111111,0.06,-0.73,0.1875,0.1875,0.0
1589543460.0501266,-2.03,-3.53,9.0,0.6411111111111111,0.06,-0.73,0.25,-0.1875,0.0625
1589543460.0586257,-2.01,-3.51,8.93,0.6411111111111111,0.06,-0.73,0.0625,-0.1875,0.0625
1589543460.0681329,-2.02,-3.53,8.94,0.6411111111111111,0.06,-0.73,-0.25,0.0625,0.0625
1589543460.0812528,-2.02,-3.55,8.95,0.6411111111111111,0.06,-0.73,-0.3125,0.1875,0.0
1589543460.0891864,-2.03,-3.53,9.0,0.6411111111111111,0.06,-0.73,-0.0625,0.125,0.0625
1589543460.1028426,-2.04,-3.54,9.01,0.6411111111111111,0.06,-0.73,0.1875,-0.125,0.0
1589543460.1088748,-2.01,-3.53,8.93,0.6411111111111111,0.06,-0.73,0.0625,-0.125,0.125
1589543460.1225028,-2.0,-3.52,8.96,0.6411111111111111,0.06,-0.73,-0.125,-0.125,0.125
1589543460.1311831,-2.02,-3.54,8.97,0.6411111111111111,0.06,-0.73,-0.25,0.1875,0.25
1589543460.142363,-2.0,-3.55,8.98,0.6266666666666667,0.06555555555555556,-0.7588888888888888,0.0625,0.0,0.0
1589543460.1489484,-2.02,-3.54,9.01,0.6266666666666667,0.06555555555555556,-0.7588888888888888,0.1875,-0.125,0.0625
