time,acc_x,acc_y,acc_z,mag_x,mag_y,mag_z,gyr_x,gyr_y,gyr_z
1589541243.1493068,-0.25,-4.19,9.01,0.46,0.31222222222222223,-0.65,-0.8125,-0.125,-0.25
1589541243.15718,-0.26,-4.19,8.94,0.4666666666666667,0.3,-0.6433333333333333,-0.625,-0.5,-0.1875
1589541243.1694586,-0.24,-4.19,8.88,0.4666666666666667,0.3,-0.6433333333333333,-0.125,-0.125,-0.0625
1589541243.1767404,-0.24,-4.19,8.73,0.4666666666666667,0.3,-0.6433333333333333,-0.3125,-0.3125,-0.0625
1589541243.1890366,-0.23,-4.18,8.72,0.4666666666666667,0.3,-0.6433333333333333,-0.0625,-0.375,0.0625
1589541243.1998675,-0.26,-4.23,8.78,0.4666666666666667,0.3,-0.6433333333333333,-0.125,-0.1875,-0.0625
1589541243.2074144,-0.27,-4.16,8.77,0.4488888888888889,0.30666666666666664,-0.6433333333333333,-0.3125,-0.1875,-0.1875
1589541243.2212055,-0.24,-4.18,8.79,0.4488888888888889,0.30666666666666664,-0.6433333333333333,0.0,0.3125,-0.125
1589541243.2273831,-0.24,-4.19,8.81,0.4488888888888889,0.30666666666666664,-0.6433333333333333,-0.3125,1.0625,0.0625
1589541243.2395222,-0.28,-4.18,8.85,0.4488888888888889,0.30666666666666664,-0.6433333333333333,-0.25,1.4375,0.0625
1589541243.2497954,-0.28,-4.18,8.91,0.4488888888888889,0.30666666666666664,-0.6433333333333333,-0.1875,1.125,0.125
1589541243.26052,-0.29,-4.17,8.94,0.4744444444444445,0.2933333333333333,-0.65,0.0,0.25,-0.0625
1589541243.267102,-0.26,-4.18,8.84,0.4744444444444445,0.2933333333333333,-0.65,-0.0625,-0.4375,-0.1875
1589541243.2776732,-0.24,-4.16,8.76,0.4744444444444445,0.2933333333333333,-0.65,0.0,-0.875,-0.125
1589541243.2871895,-0.21,-4.19,8.72,0.4744444444444445,0.2933333333333333,-0.65,0.0625,-1.25,0.0
1589541243.30003,-0.24,-4.18,8.75,0.4744444444444445,0.2933333333333333,-0.65,0.125,-0.875,-0.125
1589541243.307815,-0.26,-4.16,8.77,0.46,0.31222222222222223,-0.6433333333333333,-0.0625,0.1875,-0.125
1589541243.3197875,-0.25,-4.19,8.81,0.46,0.31222222222222223,-0.6433333333333333,-0.0625,0.625,-0.0625
1589541243.3279536,-0.19,-4.2,8.79,0.46,0.31222222222222223,-0.6433333333333333,-0.0625,1.1875,0.0625
1589541243.33994,-0.22,-4.18,8.94,0.46,0.31222222222222223,-0.6433333333333333,-0.0625,1.1875,0.0625
1589541243.3507953,-0.24,-4.17,8.94,0.46,0.31222222222222223,-0.6433333333333333,-0.1875,1.8125,-0.125
1589541243.3578293,-0.29,-4.18,8.93,0.4488888888888889,0.3,-0.6433333333333333,-0.1875,1.125,-0.0625
1589541243.3720648,-0.32,-4.19,8.88,0.4488888888888889,0.3,-0.6433333333333333,-0.375,0.3125,-0.0625
1589541243.378025,-0.26,-4.19,8.71,0.4488888888888889,0.3,-0.6433333333333333,-0.25,-0.4375,-0.1875
1589541243.3933096,-0.23,-4.19,8.74,0.4488888888888889,0.3,-0.6433333333333333,-0.1875,-0.5625,-0.125
1589541243.4002714,-0.22,-4.18,8.79,0.4488888888888889,0.3,-0.6433333333333333,-0.25,-0.3125,0.0
1589541243.4106047,-0.25,-4.17,8.78,0.4666666666666667,0.3,-0.6355555555555555,-0.375,0.125,0.0
1589541243.418734,-0.26,-4.16,8.78,0.4666666666666667,0.3,-0.6355555555555555,-0.4375,0.875,0.125
1589541243.4285734,-0.29,-4.16,8.72,0.4666666666666667,0.3,-0.6355555555555555,-0.5,1.0625,0.0625
1589541243.4387484,-0.3,-4.19,8.83,0.4666666666666667,0.3,-0.6355555555555555,-0.75,1.1875,0.1875
1589541243.450293,-0.3,-4.13,8.82,0.4666666666666667,0.3,-0.6355555555555555,-1.0625,0.25,0.1875
1589541243.4585712,-0.23,-4.21,8.96,0.46,0.2933333333333333,-0.6577777777777778,-1.5625,-1.5,0.1875
1589541243.4704535,-0.34,-4.13,8.8,0.46,0.2933333333333333,-0.6577777777777778,-1.5,-2.625,0.0
1589541243.478541,-0.25,-4.19,8.77,0.46,0.2933333333333333,-0.6577777777777778,-1.1875,-2.6875,0.125
1589541243.488133,-0.24,-4.21,8.74,0.46,0.2933333333333333,-0.6577777777777778,-0.5,-1.5625,0.0625
1589541243.5023756,-0.26,-4.2,8.7,0.46,0.2933333333333333,-0.6577777777777778,-0.375,-1.375,-0.0625
1589541243.5086784,-0.21,-4.21,8.74,0.46,0.31222222222222223,-0.6577777777777778,-0.3125,-1.5625,-0.125
1589541243.522894,-0.22,-4.2,8.75,0.46,0.31222222222222223,-0.6577777777777778,-0.375,-0.9375,-0.1875
1589541243.529053,-0.26,-4.22,8.73,0.46,0.31222222222222223,-0.6577777777777778,-0.125,-0.5625,-0.125
1589541243.5440044,-0.27,-4.18,8.76,0.46,0.31222222222222223,-0.6577777777777778,-0.25,-0.75,0.0
1589541243.5517347,-0.25,-4.2,8.91,0.46,0.31222222222222223,-0.6577777777777778,-0.3125,-1.0625,-0.1875
1589541243.5626278,-0.23,-4.19,8.99,0.4744444444444445,0.3,-0.6355555555555555,-0.25,-0.625,-0.1875
1589541243.568823,-0.25,-4.17,8.91,0.4744444444444445,0.3,-0.6355555555555555,-0.75,-0.625,-0.125
1589541243.5825202,-0.24,-4.18,8.84,0.4744444444444445,0.3,-0.6355555555555555,-1.5625,-1.1875,-0.375
1589541243.5892634,-0.21,-4.19,8.85,0.4744444444444445,0.3,-0.6355555555555555,-1.875,-0.875,-0.1875
1589541243.6038651,-0.32,-4.08,8.77,0.4744444444444445,0.3,-0.6355555555555555,-1.9375,-0.375,0.0
1589541243.6102002,-0.29,-4.02,8.78,0.4488888888888889,0.32,-0.6433333333333333,-2.3125,-0.9375,0.5625
1589541243.6205134,-0.35,-3.92,8.74,0.4488888888888889,0.32,-0.6433333333333333,-2.5,-1.3125,2.375
1589541243.6288927,-0.29,-3.83,8.66,0.4488888888888889,0.32,-0.6433333333333333,-2.6875,-1.6875,4.5
1589541243.638542,-0.23,-3.51,8.71,0.4488888888888889,0.32,-0.6433333333333333,-2.75,-2.0,6.1875
1589541243.6509,-0.2,-3.47,8.9,0.4488888888888889,0.32,-0.6433333333333333,-3.125,-2.375,6.5
1589541243.6628106,-0.2,-3.4,8.89,0.4488888888888889,0.2933333333333333,-0.6644444444444444,-2.875,-1.9375,7.1875
1589541243.6743498,-0.23,-3.39,8.9,0.4488888888888889,0.2933333333333333,-0.6644444444444444,-2.75,-2.3125,7.3125
1589541243.680541,-0.26,-3.23,8.86,0.4488888888888889,0.2933333333333333,-0.6644444444444444,-3.9375,-3.125,7.4375
1589541243.6896145,-0.25,-3.05,8.95,0.4488888888888889,0.2933333333333333,-0.6644444444444444,-4.25,-2.875,8.625
1589541243.7008224,-0.49,-2.63,8.73,0.4488888888888889,0.2933333333333333,-0.6644444444444444,0.5,0.3125,10.625
1589541243.7114828,-0.54,-2.91,8.67,0.4666666666666667,0.3,-0.6355555555555555,2.8125,0.625,17.0625
1589541243.718941,-0.46,-2.89,8.92,0.4666666666666667,0.3,-0.6355555555555555,-1.9375,-2.0,24.25
1589541243.7330372,-0.45,-2.94,8.69,0.4666666666666667,0.3,-0.6355555555555555,-0.3125,-1.125,31.0625
1589541243.7390294,-0.45,-3.07,8.78,0.4666666666666667,0.3,-0.6355555555555555,0.75,-1.25,36.625
1589541243.751884,-0.36,-3.08,8.85,0.4666666666666667,0.3,-0.6355555555555555,-0.8125,-2.0625,40.5625
1589541243.7596972,-0.28,-3.09,8.93,0.4744444444444445,0.2933333333333333,-0.6433333333333333,-0.1875,-2.0,41.8125
1589541243.7721524,-0.29,-3.26,9.0,0.4744444444444445,0.2933333333333333,-0.6433333333333333,0.375,-2.0625,41.3125
1589541243.7799075,-0.25,-3.23,8.86,0.4744444444444445,0.2933333333333333,-0.6433333333333333,-0.5625,-2.4375,40.25
1589541243.792397,-0.28,-3.24,8.94,0.4744444444444445,0.2933333333333333,-0.6433333333333333,-0.4375,-2.0,38.3125
1589541243.8023713,-0.23,-3.26,8.83,0.4744444444444445,0.2933333333333333,-0.6433333333333333,-0.3125,-2.0625,35.875
1589541243.8138425,-0.3,-3.28,8.85,0.46,0.2855555555555556,-0.6222222222222222,-0.4375,-2.125,33.25
1589541243.8244474,-0.36,-3.31,8.74,0.46,0.2855555555555556,-0.6222222222222222,-0.125,-1.5,31.4375
1589541243.8308554,-0.37,-3.32,8.74,0.46,0.2855555555555556,-0.6222222222222222,-0.3125,-1.6875,30.0
1589541243.8412662,-0.42,-3.39,8.8,0.46,0.2855555555555556,-0.6222222222222222,0.0,-1.1875,28.6875
1589541243.8526564,-0.42,-3.37,8.81,0.46,0.2855555555555556,-0.6222222222222222,0.0,-1.3125,27.5625
1589541243.85982,-0.5,-3.43,8.88,0.4744444444444445,0.28,-0.65,0.125,-1.3125,27.3125
1589541243.8707592,-0.52,-3.51,8.99,0.4744444444444445,0.28,-0.65,0.0,-1.3125,27.3125
1589541243.8812866,-0.5,-3.51,8.92,0.4744444444444445,0.28,-0.65,0.25,-1.25,28.0
1589541243.890741,-0.51,-3.44,8.84,0.4744444444444445,0.28,-0.65,0.1875,-1.0625,27.6875
1589541243.903816,-0.49,-3.47,8.96,0.4744444444444445,0.28,-0.65,-0.25,-1.4375,27.1875
1589541243.9102972,-0.43,-3.32,8.7,0.4866666666666667,0.2733333333333333,-0.6711111111111111,-0.1875,-0.8125,26.4375
1589541243.9236186,-0.47,-3.37,8.9,0.4866666666666667,0.2733333333333333,-0.6711111111111111,-0.5,-1.875,24.625
1589541243.9308038,-0.54,-3.35,8.74,0.4866666666666667,0.2733333333333333,-0.6711111111111111,-0.625,-1.8125,23.0625
1589541243.941138,-0.51,-3.44,8.64,0.4866666666666667,0.2733333333333333,-0.6711111111111111,-0.0625,-0.875,22.1875
1589541243.9529276,-0.56,-3.55,8.81,0.4866666666666667,0.2733333333333333,-0.6711111111111111,-0.1875,-1.125,20.5
1589541243.9642296,-0.58,-3.6,8.82,0.4811111111111111,0.2733333333333333,-0.6644444444444444,-0.1875,-0.8125,18.8125
1589541243.9710815,-0.59,-3.58,8.94,0.4811111111111111,0.2733333333333333,-0.6644444444444444,0.25,-0.8125,17.5625
1589541243.9829972,-0.58,-3.66,8.84,0.4811111111111111,0.2733333333333333,-0.6644444444444444,0.3125,-0.75,16.4375
1589541243.991536,-0.57,-3.51,8.94,0.4811111111111111,0.2733333333333333,-0.6644444444444444,-0.0625,-0.875,15.25
1589541244.0034125,-0.59,-3.5,8.84,0.4811111111111111,0.2733333333333333,-0.6644444444444444,0.0,-0.5,14.0625
1589541244.0105708,-0.58,-3.63,8.92,0.4922222222222222,0.2733333333333333,-0.6933333333333334,-0.4375,-0.9375,12.5
1589541244.0220401,-0.62,-3.56,8.76,0.4922222222222222,0.2733333333333333,-0.6933333333333334,-0.375,-0.6875,11.0
1589541244.0347743,-0.61,-3.64,8.7,0.4922222222222222,0.2733333333333333,-0.6933333333333334,-0.125,-0.625,9.6875
1589541244.0416167,-0.67,-3.57,8.76,0.4922222222222222,0.2733333333333333,-0.6933333333333334,-0.0625,-0.5,8.25
1589541244.058461,-0.63,-3.57,8.7,0.4922222222222222,0.2733333333333333,-0.6933333333333334,-0.125,-0.4375,7.4375
1589541244.0642352,-0.65,-3.55,8.8,0.5066666666666667,0.2611111111111111,-0.6933333333333334,0.125,-0.3125,6.5
1589541244.0760677,-0.62,-3.59,8.89,0.5066666666666667,0.2611111111111111,-0.6933333333333334,0.1875,-0.125,5.5625
1589541244.0821595,-0.69,-3.7,8.81,0.5066666666666667,0.2611111111111111,-0.6933333333333334,0.125,-0.3125,4.6875
1589541244.092202,-0.71,-3.72,8.9,0.5066666666666667,0.2611111111111111,-0.6933333333333334,0.25,0.0,3.625
1589541244.1035821,-0.67,-3.68,8.93,0.5066666666666667,0.2611111111111111,-0.6933333333333334,0.0,-0.0625,3.3125
1589541244.1151135,-0.74,-3.8,8.89,0.4988888888888889,0.2733333333333333,-0.7144444444444444,-0.125,-0.1875,2.5625
1589541244.1214626,-0.76,-3.73,8.84,0.4988888888888889,0.2733333333333333,-0.7144444444444444,-0.3125,-0.5,2.125
1589541244.131967,-0.79,-3.67,8.69,0.4988888888888889,0.2733333333333333,-0.7144444444444444,-0.25,-0.4375,2.0625
1589541244.1423233,-0.73,-3.53,8.74,0.4988888888888889,0.2733333333333333,-0.7144444444444444,-0.1875,-0.4375,2.375
1589541244.1536927,-0.72,-3.59,8.81,0.4988888888888889,0.2733333333333333,-0.7144444444444444,-0.1875,-0.1875,3.0
1589541244.1616127,-0.7,-3.68,8.85,0.5066666666666667,0.26666666666666666,-0.6977777777777778,0.1875,0.25,3.125
1589541244.1715991,-0.69,-3.6,8.88,0.5066666666666667,0.26666666666666666,-0.6977777777777778,-0.25,-0.3125,2.5
1589541244.1857953,-0.73,-3.71,8.74,0.5066666666666667,0.26666666666666666,-0.6977777777777778,0.125,0.1875,2.1875
1589541244.192067,-0.73,-3.56,8.83,0.5066666666666667,0.26666666666666666,-0.6977777777777778,0.375,0.3125,2.125
1589541244.208454,-0.72,-3.75,8.99,0.5066666666666667,0.26666666666666666,-0.6977777777777778,-0.1875,-0.0625,2.875
1589541244.2146552,-0.72,-3.65,8.85,0.4922222222222222,0.2533333333333333,-0.7266666666666667,-0.5625,-0.375,3.1875
1589541244.2282915,-0.77,-3.74,8.86,0.4922222222222222,0.2533333333333333,-0.7266666666666667,0.1875,-0.0625,3.5625
1589541244.2345126,-0.75,-3.61,8.72,0.4922222222222222,0.2533333333333333,-0.7266666666666667,-0.3125,-0.625,4.4375
1589541244.247198,-0.7,-3.62,8.81,0.4922222222222222,0.2533333333333333,-0.7266666666666667,-0.375,-0.375,5.5625
1589541244.2542634,-0.75,-3.7,8.82,0.4922222222222222,0.2533333333333333,-0.7266666666666667,-0.1875,-0.375,6.5
1589541244.2660866,-0.76,-3.62,8.8,0.4655555555555556,0.2488888888888889,-0.7333333333333333,-0.3125,-0.25,7.625
1589541244.2722216,-0.83,-3.77,8.79,0.4655555555555556,0.2488888888888889,-0.7333333333333333,-0.0625,-0.3125,8.875
1589541244.28605,-0.84,-3.76,8.77,0.4655555555555556,0.2488888888888889,-0.7333333333333333,-0.1875,-0.1875,11.0625
1589541244.2925026,-0.81,-3.69,8.81,0.4655555555555556,0.2488888888888889,-0.7333333333333333,0.0625,-0.4375,13.1875
1589541244.3049304,-0.78,-3.59,8.83,0.4655555555555556,0.2488888888888889,-0.7333333333333333,0.1875,-0.4375,15.4375
1589541244.3129144,-0.76,-3.64,8.88,0.4844444444444445,0.26666666666666666,-0.7622222222222222,-0.125,-0.625,17.5625
1589541244.322946,-0.78,-3.62,8.91,0.4844444444444445,0.26666666666666666,-0.7622222222222222,-0.4375,-0.875,18.75
1589541244.3335226,-0.83,-3.74,8.77,0.4844444444444445,0.26666666666666666,-0.7622222222222222,-0.25,-1.0,20.0625
1589541244.3430276,-0.85,-3.73,8.81,0.4844444444444445,0.26666666666666666,-0.7622222222222222,-0.625,-1.0,21.625
1589541244.3549669,-0.81,-3.73,8.78,0.4844444444444445,0.26666666666666666,-0.7622222222222222,-0.5,-1.0625,23.5
1589541244.363117,-0.82,-3.59,8.82,0.4922222222222222,0.2533333333333333,-0.7688888888888888,-0.5,-1.375,24.875
1589541244.3779645,-0.85,-3.74,8.86,0.4922222222222222,0.2533333333333333,-0.7688888888888888,-0.5625,-1.25,26.125
1589541244.3844464,-0.79,-3.73,8.78,0.4922222222222222,0.2533333333333333,-0.7688888888888888,-0.625,-1.125,27.3125
1589541244.3980849,-0.85,-3.79,8.82,0.4922222222222222,0.2533333333333333,-0.7688888888888888,-0.1875,-0.75,28.0625
1589541244.405455,-0.84,-3.71,8.81,0.4922222222222222,0.2533333333333333,-0.7688888888888888,-0.25,-1.0,27.6875
1589541244.4173734,-0.89,-3.78,8.89,0.5188888888888888,0.2222222222222222,-0.8044444444444444,-0.25,-0.8125,27.3125
1589541244.4233177,-0.85,-3.81,8.93,0.5188888888888888,0.2222222222222222,-0.8044444444444444,-0.5,-0.6875,26.75
1589541244.4376285,-0.75,-3.62,8.7,0.5188888888888888,0.2222222222222222,-0.8044444444444444,-0.25,-0.25,25.8125
1589541244.4435985,-0.73,-3.62,8.87,0.5188888888888888,0.2222222222222222,-0.8044444444444444,-0.5625,-0.5,24.0625
1589541244.4557006,-0.8,-3.5,8.99,0.5188888888888888,0.2222222222222222,-0.8044444444444444,-0.75,-0.5,21.4375
1589541244.4618747,-0.91,-3.53,8.77,0.5455555555555556,0.17333333333333334,-0.8044444444444444,-0.75,-1.1875,18.6875
1589541244.4739652,-0.91,-3.53,8.77,0.5455555555555556,0.17333333333333334,-0.8044444444444444,-0.75,-1.1875,18.6875
1589541244.4832804,-0.81,-3.39,8.96,0.5455555555555556,0.17333333333333334,-0.8044444444444444,-0.5625,-0.375,16.625
1589541244.4961336,-0.87,-3.41,8.93,0.5455555555555556,0.17333333333333334,-0.8044444444444444,-1.25,-0.1875,15.25
1589541244.505842,-0.81,-3.35,8.7,0.5455555555555556,0.17333333333333334,-0.8044444444444444,-0.5625,1.25,14.125
1589541244.513973,-0.71,-3.34,8.94,0.5511111111111111,0.13444444444444445,-0.8188888888888889,-0.75,0.8125,12.0
1589541244.5236392,-0.72,-3.33,8.76,0.5511111111111111,0.13444444444444445,-0.8188888888888889,-0.625,1.0,9.3125
1589541244.5358324,-0.7,-3.34,8.78,0.5511111111111111,0.13444444444444445,-0.8188888888888889,-1.0625,1.4375,5.6875
1589541244.5443199,-0.74,-3.47,8.7,0.5511111111111111,0.13444444444444445,-0.8188888888888889,-1.25,0.875,2.4375
1589541244.5557106,-0.85,-3.66,8.8,0.5511111111111111,0.13444444444444445,-0.8188888888888889,-1.6875,0.25,-0.9375
1589541244.5684967,-0.8,-3.48,8.63,0.5666666666666667,0.11,-0.8188888888888889,-1.5625,0.4375,-3.5625
1589541244.5742016,-0.85,-3.63,8.82,0.5666666666666667,0.11,-0.8188888888888889,-1.1875,1.0,-5.3125
1589541244.588469,-0.89,-3.72,8.9,0.5666666666666667,0.11,-0.8188888888888889,-1.9375,-0.25,-7.875
1589541244.594362,-0.87,-3.58,8.78,0.5666666666666667,0.11,-0.8188888888888889,-0.875,1.5,-9.125
1589541244.6064456,-0.88,-3.71,9.1,0.5666666666666667,0.11,-0.8188888888888889,-1.3125,0.1875,-10.625
1589541244.613967,-0.78,-3.66,8.71,0.5522222222222222,0.024444444444444446,-0.7833333333333333,-0.9375,1.4375,-12.1875
1589541244.627439,-0.7,-3.47,8.81,0.5522222222222222,0.024444444444444446,-0.7833333333333333,-0.9375,1.625,-14.625
1589541244.6351671,-0.8,-3.5,8.48,0.5522222222222222,0.024444444444444446,-0.7833333333333333,-1.0625,0.5,-17.875
1589541244.6460323,-0.96,-3.78,9.22,0.5522222222222222,0.024444444444444446,-0.7833333333333333,-1.125,-0.125,-21.0
1589541244.660747,-0.92,-3.71,8.73,0.5522222222222222,0.024444444444444446,-0.7833333333333333,-1.5,0.1875,-22.3125
1589541244.668291,-0.95,-3.84,9.07,0.51,0.024444444444444446,-0.7055555555555556,-0.1875,1.8125,-22.8125
1589541244.6747732,-0.86,-3.64,8.51,0.51,0.024444444444444446,-0.7055555555555556,-0.6875,0.875,-23.625
1589541244.6845596,-0.93,-3.61,8.81,0.51,0.024444444444444446,-0.7055555555555556,-0.5,0.875,-24.5625
1589541244.6946929,-1.09,-3.89,8.96,0.51,0.024444444444444446,-0.7055555555555556,-0.4375,0.375,-25.0625
1589541244.7070506,-0.93,-3.64,8.84,0.51,0.024444444444444446,-0.7055555555555556,0.375,2.5,-23.875
1589541244.7184277,-0.84,-3.56,9.08,0.4844444444444445,0.08666666666666667,-0.6488888888888888,-0.8125,0.375,-24.5625
1589541244.7252946,-0.74,-3.5,8.77,0.4844444444444445,0.08666666666666667,-0.6488888888888888,0.0,1.0,-24.125
1589541244.7343278,-0.69,-3.41,8.79,0.4844444444444445,0.08666666666666667,-0.6488888888888888,0.3125,2.1875,-24.625
1589541244.7457485,-0.63,-3.37,8.96,0.4844444444444445,0.08666666666666667,-0.6488888888888888,-0.6875,0.5,-26.3125
1589541244.7610624,-0.66,-3.4,8.8,0.4844444444444445,0.08666666666666667,-0.6488888888888888,-0.3125,0.5625,-28.0
1589541244.7672107,-0.64,-3.48,8.7,0.49,0.13333333333333333,-0.6622222222222223,-0.0625,2.1875,-29.125
1589541244.778677,-0.73,-3.71,8.9,0.49,0.13333333333333333,-0.6622222222222223,-0.9375,0.25,-30.6875
1589541244.7849193,-0.79,-3.74,8.66,0.49,0.13333333333333333,-0.6622222222222223,0.4375,1.375,-31.75
1589541244.7986374,-0.78,-3.81,8.61,0.49,0.13333333333333333,-0.6622222222222223,0.625,2.5,-32.5
1589541244.806584,-0.8,-3.73,8.89,0.49,0.13333333333333333,-0.6622222222222223,-0.9375,0.5625,-33.0
1589541244.816764,-0.73,-3.73,8.81,0.5111111111111111,0.17222222222222222,-0.6411111111111111,0.0625,0.4375,-32.9375
1589541244.8255706,-0.66,-3.56,8.89,0.5111111111111111,0.17222222222222222,-0.6411111111111111,-0.125,0.8125,-33.0625
1589541244.8367324,-0.66,-3.53,8.65,0.5111111111111111,0.17222222222222222,-0.6411111111111111,-0.375,0.8125,-32.875
1589541244.844745,-0.73,-3.22,8.43,0.5111111111111111,0.17222222222222222,-0.6411111111111111,0.0,-0.4375,-33.0
1589541244.8569806,-0.72,-3.36,9.21,0.5111111111111111,0.17222222222222222,-0.6411111111111111,0.4375,0.625,-31.4375
1589541244.8640232,-0.59,-3.06,8.75,0.5111111111111111,0.20444444444444448,-0.6622222222222223,-0.5625,-0.625,-28.625
1589541244.8751295,-0.68,-3.3,9.05,0.5111111111111111,0.20444444444444448,-0.6622222222222223,0.875,1.0625,-25.9375
1589541244.8849876,-0.57,-3.48,8.6,0.5111111111111111,0.20444444444444448,-0.6622222222222223,0.6875,1.3125,-23.75
1589541244.8974733,-0.56,-3.47,8.8,0.5111111111111111,0.20444444444444448,-0.6622222222222223,0.625,1.8125,-22.4375
1589541244.9114516,-0.61,-3.62,8.93,0.5111111111111111,0.20444444444444448,-0.6622222222222223,0.4375,0.375,-22.125
1589541244.9175878,-0.64,-3.59,8.97,0.4777777777777778,0.23777777777777775,-0.6488888888888888,0.875,0.3125,-21.5
1589541244.9303784,-0.47,-3.21,8.96,0.4777777777777778,0.23777777777777775,-0.6488888888888888,0.125,-0.6875,-20.0625
1589541244.9365106,-0.43,-3.39,8.82,0.4777777777777778,0.23777777777777775,-0.6488888888888888,0.6875,0.25,-18.5625
1589541244.9501665,-0.39,-3.39,8.81,0.4777777777777778,0.23777777777777775,-0.6488888888888888,1.6875,2.125,-17.625
1589541244.9584498,-0.32,-3.52,8.54,0.4777777777777778,0.23777777777777775,-0.6488888888888888,0.9375,1.625,-18.3125
1589541244.9700992,-0.41,-3.59,9.15,0.4777777777777778,0.2644444444444444,-0.6555555555555556,-0.125,-1.0,-20.3125
1589541244.9764905,-0.39,-3.64,8.94,0.4777777777777778,0.2644444444444444,-0.6555555555555556,-0.125,-1.0,-20.3125
1589541244.9879706,-0.43,-3.62,8.68,0.4777777777777778,0.2644444444444444,-0.6555555555555556,0.9375,1.0625,-21.125
1589541244.997604,-0.47,-3.55,9.01,0.4777777777777778,0.2644444444444444,-0.6555555555555556,0.4375,0.125,-22.5
1589541245.008701,-0.39,-3.41,8.65,0.4777777777777778,0.2644444444444444,-0.6555555555555556,0.4375,0.6875,-21.1875
1589541245.0158505,-0.27,-3.4,9.02,0.4988888888888889,0.27,-0.6555555555555556,0.625,1.125,-21.0
1589541245.0262074,-0.27,-3.46,8.58,0.4988888888888889,0.27,-0.6555555555555556,0.8125,1.6875,-22.0625
1589541245.0364208,-0.24,-3.7,8.83,0.4988888888888889,0.27,-0.6555555555555556,-0.375,-0.4375,-23.5625
1589541245.0490859,-0.21,-3.62,8.92,0.4988888888888889,0.27,-0.6555555555555556,0.3125,0.75,-25.4375
1589541245.0638187,-0.13,-3.64,8.79,0.4988888888888889,0.27,-0.6555555555555556,0.75,1.25,-27.5
1589541245.0698988,-0.21,-3.64,9.03,0.5188888888888888,0.27,-0.6555555555555556,-0.25,0.5,-29.5
1589541245.0791,-0.17,-3.61,8.72,0.5188888888888888,0.27,-0.6555555555555556,0.625,1.5,-30.375
1589541245.0867813,-0.12,-3.8,9.01,0.5188888888888888,0.27,-0.6555555555555556,1.125,3.0,-31.6875
1589541245.1005585,-0.01,-3.98,8.77,0.5188888888888888,0.27,-0.6555555555555556,-0.3125,0.6875,-34.5625
1589541245.107807,0.02,-3.99,9.09,0.5188888888888888,0.27,-0.6555555555555556,-0.3125,0.375,-38.1875
1589541245.1205006,0.0,-3.81,8.7,0.5644444444444444,0.2677777777777778,-0.62,1.375,3.125,-41.375
1589541245.1270773,-0.24,-3.95,8.79,0.5644444444444444,0.2677777777777778,-0.62,0.5,1.9375,-40.25
1589541245.1367145,-0.39,-4.25,8.72,0.5644444444444444,0.2677777777777778,-0.62,-0.8125,1.5,-37.0625
1589541245.147079,-0.21,-4.12,8.55,0.5644444444444444,0.2677777777777778,-0.62,-0.1875,0.6875,-29.25
1589541245.1582403,0.09,-3.97,9.34,0.5644444444444444,0.2677777777777778,-0.62,0.9375,2.0,-24.9375
1589541245.1659765,0.36,-3.8,8.86,0.7177777777777777,0.21666666666666667,-0.6266666666666667,0.375,2.1875,-30.6875
1589541245.1801178,0.11,-3.75,8.92,0.7177777777777777,0.21666666666666667,-0.6266666666666667,0.1875,1.4375,-39.1875
1589541245.1862226,0.13,-3.71,8.56,0.7177777777777777,0.21666666666666667,-0.6266666666666667,1.25,1.75,-41.875
1589541245.196613,0.13,-3.71,8.56,0.7177777777777777,0.21666666666666667,-0.6266666666666667,1.25,1.75,-41.875
1589541245.2082255,0.3,-3.66,8.11,0.7177777777777777,0.21666666666666667,-0.6266666666666667,0.5625,4.0,-51.8125
1589541245.2205818,0.23,-3.7,9.19,1.262222222222222,0.0811111111111111,-0.37777777777777777,-2.3125,-2.375,-57.5
1589541245.228159,0.16,-3.48,8.99,1.262222222222222,0.0811111111111111,-0.37777777777777777,-0.5625,0.875,-59.125
1589541245.2402053,-0.2,-3.68,8.9,1.262222222222222,0.0811111111111111,-0.37777777777777777,0.125,2.0,-57.4375
1589541245.2518175,-0.16,-3.75,8.69,1.262222222222222,0.0811111111111111,-0.37777777777777777,0.25,2.125,-51.0
1589541245.2591574,-0.24,-3.57,8.93,1.262222222222222,0.0811111111111111,-0.37777777777777777,-0.4375,1.0625,-43.125
1589541245.266582,-0.23,-3.55,8.86,1.2444444444444445,0.4955555555555556,-0.5788888888888889,-0.25,0.6875,-33.875
1589541245.2776895,-0.16,-3.81,8.78,1.2444444444444445,0.4955555555555556,-0.5788888888888889,-0.3125,0.4375,-24.0
1589541245.2886214,0.07,-3.73,8.71,1.2444444444444445,0.4955555555555556,-0.5788888888888889,-0.1875,0.0,-15.8125
1589541245.2975886,0.05,-3.93,8.83,1.2444444444444445,0.4955555555555556,-0.5788888888888889,0.5625,0.3125,-11.3125
1589541245.3089151,0.07,-4.13,8.74,1.2444444444444445,0.4955555555555556,-0.5788888888888889,0.1875,-0.125,-8.0
1589541245.3174102,0.07,-3.89,8.88,0.6733333333333333,0.3888888888888889,-0.6977777777777778,0.25,-0.3125,-4.3125
1589541245.3285475,0.07,-3.9,8.74,0.6733333333333333,0.3888888888888889,-0.6977777777777778,0.25,-0.0625,-1.625
1589541245.33791,-0.02,-3.71,8.72,0.6733333333333333,0.3888888888888889,-0.6977777777777778,0.0,-0.75,0.6875
1589541245.3497162,-0.12,-3.97,8.8,0.6733333333333333,0.3888888888888889,-0.6977777777777778,0.375,-0.5,4.9375
1589541245.3601005,-0.1,-3.93,8.84,0.6733333333333333,0.3888888888888889,-0.6977777777777778,0.1875,-0.625,10.875
1589541245.371259,-0.1,-3.81,8.78,0.5166666666666667,0.3711111111111111,-0.6911111111111111,0.25,-1.0625,17.0625
1589541245.3781948,-0.1,-3.84,8.9,0.5166666666666667,0.3711111111111111,-0.6911111111111111,-0.0625,-1.625,23.0625
1589541245.3893793,0.03,-3.8,8.69,0.5166666666666667,0.3711111111111111,-0.6911111111111111,-0.0625,-1.75,28.375
1589541245.4023438,0.06,-3.85,8.84,0.5166666666666667,0.3711111111111111,-0.6911111111111111,0.1875,-1.9375,30.9375
1589541245.4108448,0.0,-3.93,8.78,0.5166666666666667,0.3711111111111111,-0.6911111111111111,0.875,-1.0,32.375
1589541245.423661,0.2,-3.79,8.86,0.4655555555555556,0.38666666666666666,-0.7122222222222222,0.1875,-2.1875,34.6875
1589541245.4299026,0.18,-3.52,8.9,0.4655555555555556,0.38666666666666666,-0.7122222222222222,-0.3125,-2.4375,34.1875
1589541245.4445748,0.07,-3.81,8.65,0.4655555555555556,0.38666666666666666,-0.7122222222222222,0.9375,-1.25,32.625
1589541245.451046,0.1,-3.79,8.71,0.4655555555555556,0.38666666666666666,-0.7122222222222222,-0.25,-2.25,31.9375
1589541245.4611392,0.04,-3.98,8.87,0.4655555555555556,0.38666666666666666,-0.7122222222222222,-0.1875,-2.25,30.625
1589541245.4679606,0.05,-4.06,8.85,0.4811111111111111,0.3566666666666667,-0.7122222222222222,0.5625,-1.25,29.625
1589541245.4820178,0.07,-3.84,8.79,0.4811111111111111,0.3566666666666667,-0.7122222222222222,0.3125,-1.5625,28.8125
1589541245.4892495,0.02,-3.87,8.77,0.4811111111111111,0.3566666666666667,-0.7122222222222222,0.4375,-1.6875,28.5625
1589541245.4989545,0.03,-3.85,8.76,0.4811111111111111,0.3566666666666667,-0.7122222222222222,0.125,-1.3125,28.625
1589541245.5110836,0.17,-3.7,8.72,0.4811111111111111,0.3566666666666667,-0.7122222222222222,0.125,-1.6875,28.4375
1589541245.5226786,0.16,-3.9,9.17,0.4811111111111111,0.3466666666666667,-0.7122222222222222,0.3125,-1.4375,25.8125
1589541245.529332,0.12,-3.75,8.63,0.4811111111111111,0.3466666666666667,-0.7122222222222222,1.25,0.625,22.1875
1589541245.5390306,0.08,-3.7,9.06,0.4811111111111111,0.3466666666666667,-0.7122222222222222,-0.25,-3.875,18.0
1589541245.5493145,0.04,-3.46,8.43,0.4811111111111111,0.3466666666666667,-0.7122222222222222,0.9375,-2.125,15.6875
1589541245.5601318,-0.03,-3.61,8.93,0.4811111111111111,0.3466666666666667,-0.7122222222222222,1.25,-1.9375,14.9375
1589541245.567696,-0.29,-4.16,7.99,0.4666666666666667,0.32,-0.72,4.125,3.75,17.625
1589541245.5793846,-10.56,-24.82,-0.67,0.4666666666666667,0.32,-0.72,-12.5,-1.8125,3.0625
1589541245.5886571,-0.49,-13.8,16.47,0.4666666666666667,0.32,-0.72,-133.0,-46.0625,-148.3125
1589541245.6000547,1.55,-3.29,11.52,0.4666666666666667,0.32,-0.72,-144.25,-28.0,-242.0
1589541245.6115491,-0.29,-0.94,0.62,0.4666666666666667,0.32,-0.72,-95.5625,15.6875,-249.9375
1589541245.6186182,-2.41,-1.82,19.01,0.4577777777777778,0.3388888888888889,-0.6977777777777778,-38.3125,104.5,-239.9375
1589541245.6327515,-1.47,-0.62,2.49,0.4577777777777778,0.3388888888888889,-0.6977777777777778,65.3125,28.0,-225.1875
1589541245.638855,-1.26,-1.25,10.06,0.4577777777777778,0.3388888888888889,-0.6977777777777778,131.125,26.4375,-200.9375
1589541245.6527493,0.33,1.54,12.81,0.4577777777777778,0.3388888888888889,-0.6977777777777778,198.5625,33.75,-172.3125
1589541245.6608765,-1.54,3.84,5.59,0.4577777777777778,0.3388888888888889,-0.6977777777777778,41.875,14.375,-121.4375
1589541245.6689568,-0.11,-0.58,5.25,0.3911111111111111,0.4444444444444444,-0.6622222222222223,-67.4375,-14.125,-76.5625
1589541245.6790528,0.82,-1.25,9.48,0.3911111111111111,0.4444444444444444,-0.6622222222222223,8.25,18.75,-74.6875
1589541245.6901152,1.17,-1.6,9.35,0.3911111111111111,0.4444444444444444,-0.6622222222222223,36.0625,8.25,-72.8125
1589541245.6990864,0.96,-2.4,8.17,0.3911111111111111,0.4444444444444444,-0.6622222222222223,-2.125,1.5625,-60.8125
1589541245.7139018,0.68,-2.04,7.66,0.3911111111111111,0.4444444444444444,-0.6622222222222223,-12.875,0.875,-46.125
1589541245.719184,1.49,-18.45,9.33,0.3588888888888889,0.4477777777777778,-0.6766666666666666,6.8125,5.9375,-37.125
1589541245.7305028,1.4,-6.49,8.52,0.3588888888888889,0.4477777777777778,-0.6766666666666666,0.0,5.0625,20.4375
1589541245.7394345,1.59,-2.72,10.35,0.3588888888888889,0.4477777777777778,-0.6766666666666666,2.75,-3.375,52.5
1589541245.7494595,1.55,-5.1,8.9,0.3588888888888889,0.4477777777777778,-0.6766666666666666,-2.0,-11.625,38.3125
1589541245.7656276,1.02,-5.3,8.17,0.3588888888888889,0.4477777777777778,-0.6766666666666666,-1.9375,4.0,35.0
1589541245.7710733,0.88,-3.51,8.53,0.3511111111111111,0.4844444444444445,-0.6844444444444444,0.875,-1.125,39.4375
1589541245.7846134,0.53,-3.7,8.62,0.3511111111111111,0.4844444444444445,-0.6844444444444444,2.25,-2.875,40.375
1589541245.791444,0.53,-4.13,8.62,0.3511111111111111,0.4844444444444445,-0.6844444444444444,-2.1875,-2.25,43.875
1589541245.8048904,0.64,-4.11,8.74,0.3511111111111111,0.4844444444444445,-0.6844444444444444,-0.9375,-2.1875,48.5625
1589541245.8113422,0.73,-3.93,8.7,0.3511111111111111,0.4844444444444445,-0.6844444444444444,1.125,-2.125,52.6875
1589541245.8211868,0.53,-4.01,8.37,0.3655555555555556,0.4533333333333333,-0.6844444444444444,0.4375,-2.375,53.625
1589541245.830583,0.63,-4.32,9.04,0.3655555555555556,0.4533333333333333,-0.6844444444444444,0.0625,-2.3125,54.75
1589541245.8415394,0.68,-4.06,8.71,0.3655555555555556,0.4533333333333333,-0.6844444444444444,0.5625,-2.5625,54.8125
1589541245.8507893,0.48,-4.35,8.78,0.3655555555555556,0.4533333333333333,-0.6844444444444444,-0.9375,-2.5625,54.5625
1589541245.863004,0.7,-4.23,8.81,0.3655555555555556,0.4533333333333333,-0.6844444444444444,-0.5,-2.75,55.0625
1589541245.870344,0.65,-4.2,8.77,0.3655555555555556,0.4544444444444444,-0.6911111111111111,0.625,-2.4375,54.625
1589541245.8804612,0.42,-4.03,8.67,0.3655555555555556,0.4544444444444444,-0.6911111111111111,0.5625,-2.5,54.5625
1589541245.8901644,0.31,-4.18,8.74,0.3655555555555556,0.4544444444444444,-0.6911111111111111,-0.5625,-2.875,55.3125
1589541245.9001615,0.3,-4.06,8.56,0.3655555555555556,0.4544444444444444,-0.6911111111111111,0.0,-2.125,57.0625
1589541245.912347,0.24,-4.26,8.94,0.3655555555555556,0.4544444444444444,-0.6911111111111111,-0.75,-3.1875,58.9375
1589541245.9207685,0.29,-4.19,8.76,0.3977777777777778,0.43,-0.6766666666666666,0.3125,-2.9375,60.75
1589541245.9357507,0.35,-4.19,8.85,0.3977777777777778,0.43,-0.6766666666666666,0.4375,-2.4375,62.5
1589541245.9422884,0.14,-4.01,8.76,0.3977777777777778,0.43,-0.6766666666666666,-0.25,-3.4375,64.0625
1589541245.9559605,0.0,-4.13,8.79,0.3977777777777778,0.43,-0.6766666666666666,-0.375,-2.5,66.0625
1589541245.9627426,-0.03,-3.9,8.26,0.3977777777777778,0.43,-0.6766666666666666,0.125,-3.1875,69.375
1589541245.9724646,-0.07,-4.19,9.49,0.4044444444444445,0.3955555555555556,-0.6911111111111111,-0.6875,-3.375,72.75
1589541245.980516,0.1,-3.91,8.61,0.4044444444444445,0.3955555555555556,-0.6911111111111111,-0.8125,-4.0625,76.75
1589541245.9920664,0.22,-4.21,8.52,0.4044444444444445,0.3955555555555556,-0.6911111111111111,0.0625,-3.9375,79.125
1589541246.0016625,0.02,-4.3,8.73,0.4044444444444445,0.3955555555555556,-0.6911111111111111,-0.3125,-4.8125,80.75
1589541246.0133119,0.09,-4.45,8.78,0.4044444444444445,0.3955555555555556,-0.6911111111111111,-0.625,-3.6875,81.5625
1589541246.0200222,2.62,-9.44,8.98,0.4177777777777778,0.4033333333333333,-0.6844444444444444,0.0625,-2.75,82.3125
1589541246.026018,2.62,-9.44,8.98,0.4177777777777778,0.4033333333333333,-0.6844444444444444,0.0625,-2.75,82.3125
1589541246.0406275,-1.13,-3.84,8.15,0.4177777777777778,0.4033333333333333,-0.6844444444444444,3.25,8.625,10.8125
1589541246.0509806,-1.13,-3.84,8.15,0.4177777777777778,0.4033333333333333,-0.6844444444444444,3.25,8.625,10.8125
1589541246.0626853,0.38,-4.51,8.8,0.4177777777777778,0.4033333333333333,-0.6844444444444444,-3.9375,-4.9375,-1.75
1589541246.0729196,-0.26,-4.16,8.8,0.4511111111111111,0.34444444444444444,-0.7055555555555556,1.1875,4.9375,-0.6875
1589541246.0807483,0.07,-4.24,8.94,0.4511111111111111,0.34444444444444444,-0.7055555555555556,1.25,-0.9375,-0.25
1589541246.0910075,-0.05,-4.3,8.7,0.4511111111111111,0.34444444444444444,-0.7055555555555556,-0.8125,-0.875,-0.3125
1589541246.09626,-0.05,-4.3,8.7,0.4511111111111111,0.34444444444444444,-0.7055555555555556,-0.8125,-0.875,-0.3125
1589541246.1086645,-0.01,-4.17,8.87,0.4511111111111111,0.34444444444444444,-0.7055555555555556,-0.0625,0.625,0.125
1589541246.1153905,-0.09,-4.3,8.79,0.4511111111111111,0.34444444444444444,-0.7055555555555556,0.3125,-0.3125,0.0
1589541246.1229384,-0.11,-4.25,8.76,0.4455555555555555,0.35,-0.6844444444444444,-0.6875,0.125,0.0625
1589541246.1348422,-0.02,-4.32,8.87,0.4455555555555555,0.35,-0.6844444444444444,-0.125,-0.375,-0.0625
1589541246.1459944,-0.08,-4.22,8.76,0.4455555555555555,0.35,-0.6844444444444444,0.5625,0.0625,0.0
1589541246.1522186,-0.07,-4.25,8.77,0.4455555555555555,0.35,-0.6844444444444444,0.1875,-0.0625,-0.0625
1589541246.1644628,-0.05,-4.24,8.78,0.4455555555555555,0.35,-0.6844444444444444,-0.375,-0.3125,-0.0625
1589541246.1717384,-0.07,-4.27,8.81,0.4455555555555555,0.38333333333333336,-0.6977777777777778,-0.25,0.0625,-0.0625
1589541246.1862485,-0.06,-4.28,8.82,0.4455555555555555,0.38333333333333336,-0.6977777777777778,0.0625,-0.0625,0.0
1589541246.1927507,-0.07,-4.24,8.7,0.4455555555555555,0.38333333333333336,-0.6977777777777778,0.25,0.0,0.0
1589541246.2032378,-0.09,-4.23,8.76,0.4455555555555555,0.38333333333333336,-0.6977777777777778,0.3125,0.0,-0.0625
1589541246.214976,-0.08,-4.26,8.81,0.4455555555555555,0.38333333333333336,-0.6977777777777778,-0.125,0.0,0.0
1589541246.2234313,-0.07,-4.27,8.83,0.4533333333333333,0.37666666666666665,-0.6911111111111111,-0.25,-0.0625,0.0625
1589541246.2336054,-0.07,-4.29,8.82,0.4533333333333333,0.37666666666666665,-0.6911111111111111,-0.125,-0.125,-0.125
1589541246.245512,-0.08,-4.22,8.73,0.4533333333333333,0.37666666666666665,-0.6911111111111111,0.1875,-0.125,0.0625
1589541246.25253,-0.08,-4.24,8.8,0.4533333333333333,0.37666666666666665,-0.6911111111111111,0.1875,0.0625,-0.0625
