time,acc_x,acc_y,acc_z,mag_x,mag_y,mag_z,gyr_x,gyr_y,gyr_z
1589543550.9117494,-0.08,-4.2,8.91,0.5255555555555556,0.30666666666666664,-0.6322222222222222,-0.25,-0.4375,0.0
1589543550.9178224,-0.08,-4.22,8.93,0.5255555555555556,0.30666666666666664,-0.6322222222222222,-0.625,-0.375,-0.0625
1589543550.924773,-0.07,-4.2,8.84,0.5255555555555556,0.30666666666666664,-0.6322222222222222,-0.375,-0.3125,0.0625
1589543550.934892,-0.07,-4.21,8.87,0.5255555555555556,0.30666666666666664,-0.6322222222222222,-0.1875,-0.1875,0.0
1589543550.9469113,-0.06,-4.2,8.88,0.5255555555555556,0.30666666666666664,-0.6322222222222222,-0.125,-0.25,0.0625
1589543550.9578855,-0.08,-4.18,8.88,0.5255555555555556,0.3211111111111111,-0.6533333333333333,-0.0625,0.0,0.0625
1589543550.9652054,-0.07,-4.19,8.83,0.5255555555555556,0.3211111111111111,-0.6533333333333333,-0.25,0.25,-0.125
1589543550.9784179,-0.06,-4.2,8.76,0.5255555555555556,0.3211111111111111,-0.6533333333333333,-0.125,0.125,0.0
1589543550.984679,-0.07,-4.2,8.83,0.5255555555555556,0.3211111111111111,-0.6533333333333333,0.125,0.125,0.0
1589543550.9982812,-0.08,-4.22,8.9,0.5255555555555556,0.3211111111111111,-0.6533333333333333,0.125,0.1875,0.125
1589543551.0045705,-0.09,-4.19,8.88,0.5255555555555556,0.3144444444444445,-0.6466666666666666,0.25,0.4375,0.0625
1589543551.0151846,-0.1,-4.2,8.92,0.5255555555555556,0.3144444444444445,-0.6466666666666666,0.4375,0.4375,0.0
1589543551.0255046,-0.08,-4.22,8.81,0.5255555555555556,0.3144444444444445,-0.6466666666666666,0.1875,0.25,-0.0625
1589543551.0346787,-0.11,-4.2,8.87,0.5255555555555556,0.3144444444444445,-0.6466666666666666,0.375,0.4375,0.0
1589543551.0476751,-0.07,-4.2,8.88,0.5255555555555556,0.3144444444444445,-0.6466666666666666,0.3125,0.375,0.0
1589543551.0585694,-0.08,-4.21,8.91,0.5333333333333333,0.3144444444444445,-0.6533333333333333,0.125,0.1875,0.0
1589543551.0704415,-0.08,-4.19,8.95,0.5333333333333333,0.3144444444444445,-0.6533333333333333,0.125,0.1875,0.0
1589543551.0769947,-0.09,-4.2,8.8,0.5333333333333333,0.3144444444444445,-0.6533333333333333,0.125,0.4375,0.0
1589543551.0909472,-0.11,-4.19,8.87,0.5333333333333333,0.3144444444444445,-0.6533333333333333,0.375,0.375,0.0625
1589543551.09744,-0.07,-4.21,8.88,0.5333333333333333,0.3144444444444445,-0.6533333333333333,0.25,0.375,-0.0625
1589543551.1075752,-0.07,-4.21,8.91,0.5066666666666667,0.3144444444444445,-0.6611111111111111,0.1875,0.5625,0.0625
1589543551.1152394,-0.09,-4.19,8.87,0.5066666666666667,0.3144444444444445,-0.6611111111111111,0.25,0.5,-0.1875
1589543551.1295564,-0.09,-4.19,8.78,0.5066666666666667,0.3144444444444445,-0.6611111111111111,0.0,0.375,0.0625
1589543551.1357186,-0.09,-4.2,8.81,0.5066666666666667,0.3144444444444445,-0.6611111111111111,-0.0625,0.4375,0.0
1589543551.148284,-0.09,-4.18,8.86,0.5066666666666667,0.3144444444444445,-0.6611111111111111,-0.1875,0.0625,0.125
1589543551.1560082,-0.14,-4.18,8.83,0.5066666666666667,0.3211111111111111,-0.6466666666666666,-0.1875,-0.25,0.125
1589543551.1652331,-0.05,-4.26,8.89,0.5066666666666667,0.3211111111111111,-0.6466666666666666,-0.875,-1.625,-0.125
1589543551.1754663,0.06,-4.27,9.15,0.5066666666666667,0.3211111111111111,-0.6466666666666666,0.625,1.0,0.0
1589543551.1861947,-0.06,-4.19,8.86,0.5066666666666667,0.3211111111111111,-0.6466666666666666,0.125,0.25,0.0625
1589543551.198153,-0.03,-4.23,9.04,0.5066666666666667,0.3211111111111111,-0.6466666666666666,-0.3125,-0.1875,0.0
1589543551.205635,-0.15,-4.18,8.82,0.5133333333333333,0.3022222222222222,-0.64,0.125,0.5625,0.0625
1589543551.216335,-0.07,-4.22,8.9,0.5133333333333333,0.3022222222222222,-0.64,-0.1875,0.0,0.0
1589543551.2262275,-0.1,-4.21,8.76,0.5133333333333333,0.3022222222222222,-0.64,-0.1875,-0.1875,-0.0625
1589543551.2357855,-0.06,-4.21,8.83,0.5133333333333333,0.3022222222222222,-0.64,0.0,-0.0625,0.0625
1589543551.2485955,-0.07,-4.2,8.89,0.5133333333333333,0.3022222222222222,-0.64,-0.0625,-0.125,-0.0625
1589543551.256097,-0.07,-4.21,8.9,0.5255555555555556,0.3144444444444445,-0.6611111111111111,-0.1875,-0.125,0.0
1589543551.2659392,-0.08,-4.22,8.91,0.5255555555555556,0.3144444444444445,-0.6611111111111111,-0.3125,-0.3125,0.0
1589543551.2814484,-0.09,-4.21,8.78,0.5255555555555556,0.3144444444444445,-0.6611111111111111,0.0,0.0,0.0625
1589543551.2875195,-0.1,-4.21,8.89,0.5255555555555556,0.3144444444444445,-0.6611111111111111,-0.0625,-0.125,0.0
1589543551.3024163,-0.07,-4.18,8.92,0.5255555555555556,0.3144444444444445,-0.6611111111111111,-0.25,-0.1875,0.0
1589543551.3083458,-0.07,-4.21,8.92,0.5333333333333333,0.30666666666666664,-0.6322222222222222,0.1875,0.0625,0.125
1589543551.319896,-0.09,-4.18,8.9,0.5333333333333333,0.30666666666666664,-0.6322222222222222,0.0625,-0.125,0.0625
1589543551.3263493,-0.07,-4.21,8.82,0.5333333333333333,0.30666666666666664,-0.6322222222222222,-0.0625,-0.1875,-0.125
1589543551.3398604,-0.08,-4.21,8.88,0.5333333333333333,0.30666666666666664,-0.6322222222222222,0.0625,-0.0625,0.0
1589543551.3492165,-0.07,-4.19,8.87,0.5333333333333333,0.30666666666666664,-0.6322222222222222,-0.0625,-0.0625,-0.0625
1589543551.3571374,-0.07,-4.16,8.9,0.5255555555555556,0.3211111111111111,-0.64,-0.1875,-0.125,-0.1875
1589543551.3667119,-0.06,-4.2,8.89,0.5255555555555556,0.3211111111111111,-0.64,-0.4375,-0.0625,-0.1875
1589543551.3783321,-0.08,-4.16,8.79,0.5255555555555556,0.3211111111111111,-0.64,-0.25,0.1875,-0.125
1589543551.3863986,-0.06,-4.14,8.82,0.5255555555555556,0.3211111111111111,-0.64,-0.25,0.0625,-0.5
1589543551.3986235,-0.02,-4.12,8.88,0.5255555555555556,0.3211111111111111,-0.64,-0.125,0.0,-0.5
1589543551.4077704,-0.03,-4.12,8.88,0.54,0.30666666666666664,-0.6533333333333333,-0.125,0.25,-0.9375
1589543551.4164698,-0.11,-4.09,8.79,0.54,0.30666666666666664,-0.6533333333333333,0.0,-0.0625,-1.375
1589543551.426455,-0.05,-4.17,8.86,0.54,0.30666666666666664,-0.6533333333333333,-0.125,-0.375,-1.5
1589543551.438321,-0.12,-4.16,8.7,0.54,0.30666666666666664,-0.6533333333333333,0.3125,0.6875,-1.5
1589543551.4498265,-0.03,-4.18,8.99,0.54,0.30666666666666664,-0.6533333333333333,-0.125,-0.0625,-1.375
1589543551.4581938,-0.03,-4.15,8.92,0.4988888888888889,0.3144444444444445,-0.6322222222222222,0.25,0.4375,-1.25
1589543551.470508,-0.01,-4.1,8.89,0.4988888888888889,0.3144444444444445,-0.6322222222222222,0.1875,0.25,-1.375
1589543551.47681,-0.01,-4.06,8.81,0.4988888888888889,0.3144444444444445,-0.6322222222222222,0.0625,0.25,-1.25
1589543551.4910102,-0.01,-4.07,8.87,0.4988888888888889,0.3144444444444445,-0.6322222222222222,-0.4375,0.1875,-1.5
1589543551.4986606,0.04,-3.99,8.92,0.4988888888888889,0.3144444444444445,-0.6322222222222222,-0.6875,-0.125,-1.875
1589543551.5082483,0.07,-3.86,9.1,0.5333333333333333,0.3211111111111111,-0.6466666666666666,-1.5,-0.5625,-2.5
1589543551.5170407,0.08,-3.74,8.87,0.5333333333333333,0.3211111111111111,-0.6466666666666666,-1.3125,-0.1875,-2.8125
1589543551.529578,-0.15,-3.62,8.61,0.5333333333333333,0.3211111111111111,-0.6466666666666666,-1.875,-0.875,-2.9375
1589543551.536963,0.11,-3.71,9.08,0.5333333333333333,0.3211111111111111,-0.6466666666666666,-1.8125,-0.8125,-2.8125
1589543551.548968,0.11,-2.86,8.93,0.5333333333333333,0.3211111111111111,-0.6466666666666666,-1.875,-0.625,-2.8125
1589543551.5567713,0.05,-3.13,9.17,0.5066666666666667,0.3144444444444445,-0.6533333333333333,-2.0625,-1.3125,-2.75
1589543551.5670388,-0.1,-3.31,8.71,0.5066666666666667,0.3144444444444445,-0.6533333333333333,-0.8125,0.25,-0.5
1589543551.58191,-0.35,-3.65,8.89,0.5066666666666667,0.3144444444444445,-0.6533333333333333,-1.125,-1.0,2.125
1589543551.5880704,-0.32,-3.46,8.84,0.5066666666666667,0.3144444444444445,-0.6533333333333333,-0.375,-0.1875,5.4375
1589543551.603259,-0.44,-3.1,8.93,0.5066666666666667,0.3144444444444445,-0.6533333333333333,-0.5,-0.6875,8.0625
1589543551.6090345,-0.44,-3.0,8.96,0.54,0.30666666666666664,-0.6466666666666666,-0.1875,-1.0625,14.3125
1589543551.6171665,-0.37,-3.16,9.02,0.54,0.30666666666666664,-0.6466666666666666,-0.125,-1.125,22.125
1589543551.6275387,-0.32,-3.12,8.79,0.54,0.30666666666666664,-0.6466666666666666,0.4375,-0.9375,29.625
1589543551.642231,-0.3,-3.16,8.81,0.54,0.30666666666666664,-0.6466666666666666,0.375,-1.5,35.9375
1589543551.65019,-0.33,-3.24,9.01,0.54,0.30666666666666664,-0.6466666666666666,0.125,-2.25,41.5625
1589543551.6620314,-0.33,-3.24,8.79,0.5188888888888888,0.3211111111111111,-0.6322222222222222,0.5625,-1.75,47.6875
1589543551.6676755,-0.32,-3.34,8.96,0.5188888888888888,0.3211111111111111,-0.6322222222222222,0.3125,-2.8125,52.875
1589543551.6812274,-0.35,-3.38,8.93,0.5188888888888888,0.3211111111111111,-0.6322222222222222,0.375,-2.625,57.8125
1589543551.6889234,-0.41,-3.48,8.93,0.5188888888888888,0.3211111111111111,-0.6322222222222222,0.6875,-2.625,63.0625
1589543551.700639,-0.47,-3.47,8.92,0.5188888888888888,0.3211111111111111,-0.6322222222222222,0.5,-3.3125,68.0625
1589543551.7077956,-0.45,-3.51,8.93,0.5133333333333333,0.3022222222222222,-0.6466666666666666,0.4375,-3.1875,72.6875
1589543551.7180893,-0.5,-3.5,8.89,0.5133333333333333,0.3022222222222222,-0.6466666666666666,0.5625,-3.6875,76.75
1589543551.7303355,-0.51,-3.47,8.81,0.5133333333333333,0.3022222222222222,-0.6466666666666666,0.625,-3.75,80.9375
1589543551.7391198,-0.54,-3.59,8.92,0.5133333333333333,0.3022222222222222,-0.6466666666666666,0.5,-4.0625,84.8125
1589543551.755477,-0.59,-3.6,8.9,0.5133333333333333,0.3022222222222222,-0.6466666666666666,0.625,-4.1875,88.5625
1589543551.7617712,-0.64,-3.59,8.97,0.5333333333333333,0.27,-0.6611111111111111,0.6875,-4.5,92.1875
1589543551.7697089,-0.67,-3.65,8.91,0.5333333333333333,0.27,-0.6611111111111111,0.625,-4.4375,96.0625
1589543551.7806578,-0.74,-3.64,8.84,0.5333333333333333,0.27,-0.6611111111111111,0.6875,-4.5,99.875
1589543551.7935975,-0.78,-3.66,8.84,0.5333333333333333,0.27,-0.6611111111111111,1.0625,-4.5,103.8125
1589543551.8005798,-0.8,-3.54,8.98,0.5333333333333333,0.27,-0.6611111111111111,0.8125,-5.1875,107.375
1589543551.8125446,-0.81,-3.6,8.95,0.5788888888888889,0.23555555555555555,-0.6611111111111111,0.875,-5.3125,110.1875
1589543551.818858,-0.87,-3.63,8.95,0.5788888888888889,0.23555555555555555,-0.6611111111111111,0.9375,-5.1875,112.5
1589543551.8328714,-0.9,-3.5,8.84,0.5788888888888889,0.23555555555555555,-0.6611111111111111,1.0,-5.3125,114.6875
1589543551.8385947,-0.85,-3.59,8.89,0.5788888888888889,0.23555555555555555,-0.6611111111111111,1.25,-5.25,116.125
1589543551.851804,-0.78,-3.5,8.88,0.5788888888888889,0.23555555555555555,-0.6611111111111111,0.8125,-5.4375,115.625
1589543551.8578482,-0.88,-3.46,9.07,0.5644444444444444,0.20444444444444448,-0.6677777777777778,0.625,-5.625,112.125
1589543551.8692243,-1.03,-3.37,8.87,0.5644444444444444,0.20444444444444448,-0.6677777777777778,1.25,-4.6875,109.875
1589543551.8792055,-1.09,-3.35,8.8,0.5644444444444444,0.20444444444444448,-0.6677777777777778,1.0,-5.0625,108.6875
1589543551.8889244,-1.14,-3.39,8.91,0.5644444444444444,0.20444444444444448,-0.6677777777777778,0.8125,-5.375,108.4375
1589543551.9058838,-1.32,-3.47,8.92,0.5644444444444444,0.20444444444444448,-0.6677777777777778,0.8125,-5.125,108.0
1589543551.911356,-1.4,-3.4,9.0,0.5822222222222222,0.14333333333333334,-0.6755555555555556,0.9375,-5.0625,107.4375
1589543551.9192991,-1.41,-3.45,8.99,0.5822222222222222,0.14333333333333334,-0.6755555555555556,1.1875,-4.875,107.625
1589543551.9303865,-1.42,-3.38,8.85,0.5822222222222222,0.14333333333333334,-0.6755555555555556,1.0625,-4.875,107.625
1589543551.9399195,-1.47,-3.34,8.94,0.5822222222222222,0.14333333333333334,-0.6755555555555556,0.8125,-5.125,106.5
1589543551.951598,-1.37,-3.19,8.97,0.5822222222222222,0.14333333333333334,-0.6755555555555556,1.1875,-4.625,105.0625
1589543551.9638462,-1.31,-3.1,8.98,0.59,0.09777777777777777,-0.6822222222222222,1.0625,-4.375,102.5
1589543551.969981,-1.44,-3.08,8.96,0.59,0.09777777777777777,-0.6822222222222222,0.9375,-4.5625,99.5
1589543551.9842982,-1.47,-3.02,8.92,0.59,0.09777777777777777,-0.6822222222222222,0.6875,-4.75,96.375
1589543551.9910774,-1.56,-3.01,8.89,0.59,0.09777777777777777,-0.6822222222222222,0.875,-4.375,93.5625
1589543552.0032728,-1.68,-3.08,9.02,0.59,0.09777777777777777,-0.6822222222222222,0.8125,-4.4375,91.375
1589543552.0094738,-1.72,-3.05,8.99,0.5877777777777777,0.057777777777777775,-0.7244444444444444,0.875,-4.3125,89.375
1589543552.021665,-1.66,-3.0,9.02,0.5877777777777777,0.057777777777777775,-0.7244444444444444,0.625,-4.125,86.8125
1589543552.02988,-1.53,-2.81,8.73,0.5877777777777777,0.057777777777777775,-0.7244444444444444,0.5625,-4.5,83.3125
1589543552.0439653,-1.77,-2.94,9.16,0.5877777777777777,0.057777777777777775,-0.7244444444444444,0.0,-5.25,78.0
1589543552.0523536,-1.89,-2.86,8.9,0.5877777777777777,0.057777777777777775,-0.7244444444444444,0.5625,-3.25,74.25
1589543552.0616493,-1.92,-2.9,9.06,0.6022222222222222,0.012222222222222223,-0.7033333333333334,1.0,-3.25,72.0625
1589543552.071239,-1.84,-2.79,9.08,0.6022222222222222,0.012222222222222223,-0.7033333333333334,0.5,-3.5,70.0625
1589543552.080502,-2.01,-2.89,9.15,0.6022222222222222,0.012222222222222223,-0.7033333333333334,0.8125,-3.125,67.625
1589543552.0903585,-2.0,-2.78,8.86,0.6022222222222222,0.012222222222222223,-0.7033333333333334,0.4375,-3.1875,65.0
1589543552.1025133,-1.99,-2.76,8.96,0.6022222222222222,0.012222222222222223,-0.7033333333333334,0.75,-2.5,62.625
1589543552.1147027,-1.93,-2.7,9.15,0.6,-0.013333333333333334,-0.7111111111111111,0.5625,-2.75,59.8125
1589543552.1207356,-2.05,-2.68,9.05,0.6,-0.013333333333333334,-0.7111111111111111,0.875,-2.1875,56.875
1589543552.136006,-2.0,-2.61,8.94,0.6,-0.013333333333333334,-0.7111111111111111,0.4375,-2.75,53.9375
1589543552.1424212,-2.09,-2.61,8.87,0.6,-0.013333333333333334,-0.7111111111111111,0.625,-2.0625,51.5625
1589543552.1558256,-2.23,-2.69,9.06,0.6,-0.013333333333333334,-0.7111111111111111,0.125,-2.875,49.125
1589543552.1614134,-2.12,-2.58,8.98,0.5788888888888889,-0.04777777777777778,-0.7511111111111111,0.3125,-2.0,47.25
1589543552.172848,-2.09,-2.57,9.05,0.5788888888888889,-0.04777777777777778,-0.7511111111111111,0.5,-1.6875,45.875
1589543552.180662,-2.14,-2.56,8.96,0.5788888888888889,-0.04777777777777778,-0.7511111111111111,0.625,-1.8125,44.25
1589543552.1946642,-2.1,-2.48,8.92,0.5788888888888889,-0.04777777777777778,-0.7511111111111111,0.5,-1.5625,43.0625
1589543552.2028346,-2.19,-2.52,9.01,0.5788888888888889,-0.04777777777777778,-0.7511111111111111,0.5625,-1.625,41.6875
1589543552.2113824,-2.23,-2.56,9.1,0.5644444444444444,-0.05333333333333334,-0.7388888888888889,0.1875,-2.1875,40.8125
1589543552.2204206,-2.22,-2.53,9.08,0.5644444444444444,-0.05333333333333334,-0.7388888888888889,-0.0625,-1.8125,40.0
1589543552.234314,-2.41,-2.6,9.03,0.5644444444444444,-0.05333333333333334,-0.7388888888888889,0.375,-1.625,39.5
1589543552.2418811,-2.34,-2.57,9.07,0.5644444444444444,-0.05333333333333334,-0.7388888888888889,0.1875,-1.75,39.5
1589543552.2539272,-2.33,-2.49,8.97,0.5644444444444444,-0.05333333333333334,-0.7388888888888889,0.75,-0.8125,39.625
1589543552.2651744,-2.31,-2.44,9.08,0.5522222222222222,-0.08,-0.7655555555555555,0.8125,-1.0,38.875
1589543552.2714634,-2.46,-2.53,9.17,0.5522222222222222,-0.08,-0.7655555555555555,-0.0625,-2.0625,38.5625
1589543552.2858298,-2.5,-2.52,8.93,0.5522222222222222,-0.08,-0.7655555555555555,0.1875,-1.5,39.25
1589543552.2918901,-2.45,-2.43,8.79,0.5522222222222222,-0.08,-0.7655555555555555,0.75,-0.75,40.125
1589543552.3058412,-2.36,-2.38,9.2,0.5522222222222222,-0.08,-0.7655555555555555,-0.25,-2.25,40.625
1589543552.3119545,-2.45,-2.39,9.03,0.57,-0.09333333333333334,-0.7955555555555556,-0.0625,-1.9375,41.625
1589543552.3258257,-2.26,-2.22,8.93,0.57,-0.09333333333333334,-0.7955555555555556,0.25,-1.25,42.1875
1589543552.3315706,-2.3,-2.2,8.81,0.57,-0.09333333333333334,-0.7955555555555556,0.25,-1.6875,43.625
1589543552.3458288,-2.45,-2.23,8.92,0.57,-0.09333333333333334,-0.7955555555555556,1.3125,-0.375,46.375
1589543552.3538241,-2.55,-2.34,9.22,0.57,-0.09333333333333334,-0.7955555555555556,-0.3125,-2.0,48.875
1589543552.3643405,-2.57,-2.33,9.07,0.51,-0.14222222222222222,-0.8088888888888889,0.25,-1.25,52.4375
1589543552.3712456,-2.27,-2.14,9.05,0.51,-0.14222222222222222,-0.8088888888888889,1.25,-0.6875,55.25
1589543552.3816645,-2.21,-2.11,8.95,0.51,-0.14222222222222222,-0.8088888888888889,0.5625,-1.1875,56.625
1589543552.3915071,-2.16,-1.95,8.39,0.51,-0.14222222222222222,-0.8088888888888889,0.125,-1.0,58.875
1589543552.402975,-2.24,-2.1,9.68,0.51,-0.14222222222222222,-0.8088888888888889,-2.6875,-5.5625,60.1875
1589543552.4105446,-2.39,-1.95,8.09,0.5044444444444445,-0.17888888888888888,-0.7866666666666666,0.5,-0.9375,64.0625
1589543552.4219384,-2.52,-2.13,9.13,0.5044444444444445,-0.17888888888888888,-0.7866666666666666,2.75,1.625,65.1875
1589543552.4308705,-2.37,-2.1,9.43,0.5044444444444445,-0.17888888888888888,-0.7866666666666666,-2.3125,-4.5625,63.625
1589543552.4461818,-2.19,-1.87,8.8,0.5044444444444445,-0.17888888888888888,-0.7866666666666666,0.4375,-0.625,64.3125
1589543552.459487,-2.3,-1.93,9.1,0.5044444444444445,-0.17888888888888888,-0.7866666666666666,0.25,-1.0625,64.8125
1589543552.4660814,-2.47,-2.0,9.29,0.4744444444444445,-0.2288888888888889,-0.7655555555555555,-1.0,-3.25,65.6875
1589543552.4773042,-2.41,-1.83,8.7,0.4744444444444445,-0.2288888888888889,-0.7655555555555555,0.5625,-0.6875,67.5
1589543552.4839616,-2.3,-1.81,9.19,0.4744444444444445,-0.2288888888888889,-0.7655555555555555,-0.5,-2.1875,68.0625
1589543552.4957087,-2.12,-1.67,9.03,0.4744444444444445,-0.2288888888888889,-0.7655555555555555,-0.0625,-2.75,70.0
1589543552.5036054,-1.85,-1.58,8.56,0.4744444444444445,-0.2288888888888889,-0.7655555555555555,0.125,-1.4375,71.375
1589543552.5158682,-2.21,-1.6,8.89,0.4533333333333333,-0.2677777777777778,-0.8,-0.75,-2.6875,70.0625
1589543552.522313,-2.4,-1.67,8.78,0.4533333333333333,-0.2677777777777778,-0.8,2.375,-0.0625,68.6875
1589543552.5355346,-2.35,-1.66,9.09,0.4533333333333333,-0.2677777777777778,-0.8,0.0625,-1.9375,66.4375
1589543552.5417845,-2.55,-1.67,9.32,0.4533333333333333,-0.2677777777777778,-0.8,-0.4375,-2.8125,63.25
1589543552.5542438,-1.77,-1.24,8.46,0.4533333333333333,-0.2677777777777778,-0.8,0.75,-0.3125,59.6875
1589543552.5607069,-2.16,-1.58,10.08,0.3566666666666667,-0.3233333333333333,-0.7588888888888888,-0.75,-3.4375,56.5
1589543552.567554,-2.16,-1.58,10.08,0.3566666666666667,-0.3233333333333333,-0.7588888888888888,-0.75,-3.4375,56.5
1589543552.5826552,-2.11,-1.42,9.17,0.3566666666666667,-0.3233333333333333,-0.7588888888888888,1.125,2.1875,48.8125
1589543552.5927405,-2.23,-1.39,9.19,0.3566666666666667,-0.3233333333333333,-0.7588888888888888,-0.6875,-2.3125,45.375
1589543552.6038175,-1.8,-1.16,8.43,0.3566666666666667,-0.3233333333333333,-0.7588888888888888,0.6875,-0.875,42.5625
1589543552.612094,-1.89,-1.3,9.47,0.3333333333333333,-0.33,-0.6877777777777778,-0.5625,-3.5,39.4375
1589543552.623786,-1.7,-1.07,8.2,0.3333333333333333,-0.33,-0.6877777777777778,-1.5625,-2.125,37.0625
1589543552.6318126,-2.0,-1.24,9.04,0.3333333333333333,-0.33,-0.6877777777777778,2.375,0.75,35.125
1589543552.6372473,-2.0,-1.24,9.04,0.3333333333333333,-0.33,-0.6877777777777778,2.375,0.75,35.125
1589543552.6492586,-2.16,-1.28,9.49,0.3333333333333333,-0.33,-0.6877777777777778,-1.3125,-1.6875,30.25
1589543552.6553676,-1.76,-1.12,8.82,0.3333333333333333,-0.33,-0.6877777777777778,-0.625,-1.5625,26.8125
1589543552.6619716,-1.89,-1.12,9.28,0.37333333333333335,-0.3144444444444445,-0.6877777777777778,0.9375,-0.8125,24.25
1589543552.673624,-1.88,-1.04,8.56,0.37333333333333335,-0.3144444444444445,-0.6877777777777778,0.3125,0.375,20.8125
1589543552.6838331,-1.99,-1.13,9.04,0.37333333333333335,-0.3144444444444445,-0.6877777777777778,-0.375,-0.125,16.625
1589543552.6930304,-2.01,-1.08,8.62,0.37333333333333335,-0.3144444444444445,-0.6877777777777778,-1.5625,-1.5,13.0
1589543552.7074573,-1.85,-1.04,8.63,0.37333333333333335,-0.3144444444444445,-0.6877777777777778,1.0,1.875,12.3125
1589543552.7128878,-1.9,-1.18,9.66,0.4044444444444445,-0.30666666666666664,-0.6588888888888889,-0.5625,-2.1875,8.625
1589543552.7256598,-1.8,-1.11,9.17,0.4044444444444445,-0.30666666666666664,-0.6588888888888889,-0.9375,-2.8125,4.875
1589543552.732521,-1.83,-1.1,8.77,0.4044444444444445,-0.30666666666666664,-0.6588888888888889,0.8125,1.3125,1.9375
1589543552.74307,-1.4,-1.09,9.33,0.4044444444444445,-0.30666666666666664,-0.6588888888888889,-1.9375,-2.375,-2.0625
1589543552.7555144,-1.99,-1.19,9.44,0.4044444444444445,-0.30666666666666664,-0.6588888888888889,-1.75,-3.125,-4.5625
1589543552.7668607,-1.95,-1.05,8.84,0.4122222222222222,-0.3022222222222222,-0.6733333333333333,-0.125,-0.9375,-9.625
1589543552.773468,-2.18,-1.33,10.19,0.4122222222222222,-0.3022222222222222,-0.6733333333333333,-0.125,-0.9375,-9.625
1589543552.7835011,-1.64,-1.01,8.48,0.4122222222222222,-0.3022222222222222,-0.6733333333333333,2.375,3.375,-18.6875
1589543552.7938402,-1.86,-0.94,8.37,0.4122222222222222,-0.3022222222222222,-0.6733333333333333,-3.0,-3.0625,-30.5
1589543552.8057206,-1.87,-1.29,9.56,0.4122222222222222,-0.3022222222222222,-0.6733333333333333,-0.375,-0.375,-35.25
1589543552.8122346,-1.35,-0.99,8.28,0.4388888888888889,-0.28,-0.6522222222222223,1.0,3.4375,-40.4375
1589543552.8236456,-1.71,-1.24,8.99,0.4388888888888889,-0.28,-0.6522222222222223,-4.1875,-1.6875,-47.6875
1589543552.8333268,-1.97,-1.36,9.55,0.4388888888888889,-0.28,-0.6522222222222223,-0.75,1.3125,-48.875
1589543552.846748,-1.58,-1.13,8.29,0.4388888888888889,-0.28,-0.6522222222222223,2.6875,7.625,-49.9375
1589543552.8589065,-1.59,-1.25,8.56,0.4388888888888889,-0.28,-0.6522222222222223,-0.9375,0.4375,-55.5625
1589543552.8653677,-1.27,-1.32,9.59,0.4511111111111111,-0.27555555555555555,-0.6588888888888889,-3.0,-0.75,-61.25
1589543552.8788047,-1.66,-1.51,9.61,0.4511111111111111,-0.27555555555555555,-0.6588888888888889,-1.875,2.375,-67.25
1589543552.8848808,-1.88,-1.45,8.32,0.4511111111111111,-0.27555555555555555,-0.6588888888888889,2.0,4.75,-71.3125
1589543552.8975182,-1.45,-1.47,8.73,0.4511111111111111,-0.27555555555555555,-0.6588888888888889,-3.25,-0.25,-77.1875
1589543552.9058633,-1.5,-1.63,9.53,0.4511111111111111,-0.27555555555555555,-0.6588888888888889,-2.125,1.625,-81.9375
1589543552.9133346,-1.45,-1.5,8.59,0.4888888888888889,-0.2611111111111111,-0.6666666666666666,-0.375,6.25,-86.1875
1589543552.9204266,-1.45,-1.5,8.59,0.4888888888888889,-0.2611111111111111,-0.6666666666666666,-0.375,6.25,-86.1875
1589543552.9266946,-1.89,-1.74,9.03,0.4888888888888889,-0.2611111111111111,-0.6666666666666666,-0.875,2.9375,-89.5625
1589543552.9375474,-1.8,-1.73,9.13,0.4888888888888889,-0.2611111111111111,-0.6666666666666666,-0.0625,4.125,-91.125
1589543552.94365,-1.37,-1.83,9.22,0.4888888888888889,-0.2611111111111111,-0.6666666666666666,-3.0,1.25,-92.625
1589543552.9585679,-1.58,-1.84,9.21,0.4888888888888889,-0.2611111111111111,-0.6666666666666666,-1.6875,4.0625,-95.5625
1589543552.9643373,-1.67,-1.93,8.97,0.4777777777777778,-0.27555555555555555,-0.68,-0.6875,5.0625,-98.5625
1589543552.9738445,-1.89,-2.12,9.35,0.4777777777777778,-0.27555555555555555,-0.68,-0.75,7.0625,-100.375
1589543552.9840558,-1.82,-2.07,8.52,0.4777777777777778,-0.27555555555555555,-0.68,-0.25,7.25,-101.125
1589543552.9959948,-1.59,-2.02,8.31,0.4777777777777778,-0.27555555555555555,-0.68,-3.8125,0.875,-104.5625
1589543553.008676,-1.67,-2.28,9.94,0.4777777777777778,-0.27555555555555555,-0.68,-3.6875,-0.75,-107.6875
1589543553.0143692,-2.04,-2.36,7.92,0.5422222222222223,-0.5377777777777778,-0.6088888888888889,1.1875,9.375,-107.5625
1589543553.0299597,-1.53,-2.37,9.03,0.5422222222222223,-0.5377777777777778,-0.6088888888888889,-2.5625,3.75,-109.625
1589543553.0361195,-1.77,-2.57,9.45,0.5422222222222223,-0.5377777777777778,-0.6088888888888889,-3.8125,2.125,-113.3125
1589543553.047945,-1.64,-2.6,9.67,0.5422222222222223,-0.5377777777777778,-0.6088888888888889,0.6875,8.9375,-114.9375
1589543553.056116,-1.5,-2.58,8.72,0.5422222222222223,-0.5377777777777778,-0.6088888888888889,1.4375,7.625,-118.1875
1589543553.0684252,-1.23,-2.6,9.37,1.3344444444444443,-0.78,-0.31222222222222223,-3.5625,2.625,-122.875
1589543553.0748146,-1.46,-2.74,9.39,1.3344444444444443,-0.78,-0.31222222222222223,0.8125,7.375,-126.375
1589543553.0880947,-1.3,-2.8,8.84,1.3344444444444443,-0.78,-0.31222222222222223,1.6875,8.625,-129.3125
1589543553.0942216,-1.13,-2.63,8.56,1.3344444444444443,-0.78,-0.31222222222222223,-3.0,5.1875,-134.4375
1589543553.1072562,-1.47,-3.08,9.47,1.3344444444444443,-0.78,-0.31222222222222223,-2.6875,3.25,-138.125
1589543553.113559,-1.22,-2.96,9.29,0.7477777777777778,-0.1988888888888889,-0.7155555555555555,0.375,8.8125,-140.9375
1589543553.1239073,-1.22,-2.96,9.29,0.7477777777777778,-0.1988888888888889,-0.7155555555555555,0.375,8.8125,-140.9375
1589543553.1299064,-1.21,-3.12,9.47,0.7477777777777778,-0.1988888888888889,-0.7155555555555555,-1.9375,5.375,-145.0625
1589543553.1374125,-1.42,-3.3,8.7,0.7477777777777778,-0.1988888888888889,-0.7155555555555555,-0.25,7.375,-147.125
1589543553.1489375,-1.48,-3.38,8.55,0.7477777777777778,-0.1988888888888889,-0.7155555555555555,-2.8125,5.75,-149.875
1589543553.159185,-1.22,-3.24,9.2,0.7477777777777778,-0.1988888888888889,-0.7155555555555555,-5.875,3.9375,-150.6875
1589543553.165826,-1.77,-3.78,9.42,0.6133333333333333,-0.022222222222222227,-0.7155555555555555,2.6875,7.375,-148.5
1589543553.1798675,-1.4,-3.47,8.42,0.6133333333333333,-0.022222222222222227,-0.7155555555555555,2.625,10.875,-145.625
1589543553.1859505,-1.46,-3.68,8.78,0.6133333333333333,-0.022222222222222227,-0.7155555555555555,-4.0625,4.5,-144.8125
1589543553.1992981,-1.57,-3.66,9.26,0.6133333333333333,-0.022222222222222227,-0.7155555555555555,-1.6875,4.5,-142.25
1589543553.2067568,-1.64,-3.79,8.76,0.6133333333333333,-0.022222222222222227,-0.7155555555555555,-0.25,6.5625,-138.125
1589543553.2167182,-1.46,-3.65,9.08,0.5966666666666667,0.048888888888888885,-0.7588888888888888,-2.0625,5.3125,-134.1875
1589543553.2248259,-1.29,-3.45,8.72,0.5966666666666667,0.048888888888888885,-0.7588888888888888,-1.5625,5.25,-129.9375
1589543553.2393994,-1.06,-3.43,8.98,0.5966666666666667,0.048888888888888885,-0.7588888888888888,-0.1875,4.8125,-125.8125
1589543553.2452323,-1.1,-3.43,8.66,0.5966666666666667,0.048888888888888885,-0.7588888888888888,-1.1875,5.4375,-122.9375
1589543553.2577367,-1.21,-3.75,9.25,0.5966666666666667,0.048888888888888885,-0.7588888888888888,-1.8125,4.0625,-119.875
1589543553.264478,-1.37,-4.18,9.9,0.6022222222222222,0.09888888888888887,-0.7233333333333334,-0.5625,5.9375,-116.3125
1589543553.2781599,-1.0,-3.81,8.06,0.6022222222222222,0.09888888888888887,-0.7233333333333334,4.125,12.5,-112.375
1589543553.2858732,-11.34,-13.74,12.38,0.6022222222222222,0.09888888888888887,-0.7233333333333334,-2.375,12.5625,-105.875
1589543553.2958894,-20.6,-6.31,0.69,0.6022222222222222,0.09888888888888887,-0.7233333333333334,-17.0625,48.0625,-228.3125
1589543553.3080769,-0.11,-1.88,6.25,0.6022222222222222,0.09888888888888887,-0.7233333333333334,-116.375,-104.9375,-545.125
1589543553.3156838,0.02,-3.86,11.33,0.56,0.1811111111111111,-0.73,-62.1875,35.6875,-393.4375
1589543553.3267,-4.18,-2.72,8.63,0.56,0.1811111111111111,-0.73,40.125,103.5,-346.0
1589543553.3388462,-1.33,-1.83,4.47,0.56,0.1811111111111111,-0.73,96.75,10.0,-299.1875
1589543553.3467546,-1.15,-0.38,5.98,0.56,0.1811111111111111,-0.73,64.125,29.5,-248.0625
1589543553.3577564,-0.16,-1.19,6.84,0.56,0.1811111111111111,-0.73,-33.5625,5.1875,-180.0
1589543553.3703618,1.82,-1.17,11.31,0.5222222222222223,0.3466666666666667,-0.7088888888888889,-13.5625,-12.9375,-144.25
1589543553.377171,0.95,-1.41,6.63,0.5222222222222223,0.3466666666666667,-0.7088888888888889,10.6875,16.875,-131.875
1589543553.3909676,0.9,-2.39,8.47,0.5222222222222223,0.3466666666666667,-0.7088888888888889,1.0625,9.4375,-121.8125
1589543553.3977554,1.01,-2.75,10.06,0.5222222222222223,0.3466666666666667,-0.7088888888888889,-5.375,-1.1875,-102.3125
1589543553.4123447,0.34,-2.48,8.73,0.5222222222222223,0.3466666666666667,-0.7088888888888889,0.0,6.4375,-82.9375
1589543553.4179661,0.33,-2.63,8.96,0.48,0.4088888888888889,-0.7022222222222222,-1.5625,3.125,-64.5
1589543553.426483,0.21,-2.55,8.88,0.48,0.4088888888888889,-0.7022222222222222,-1.9375,3.8125,-48.3125
1589543553.4369652,0.14,-2.77,8.79,0.48,0.4088888888888889,-0.7022222222222222,2.125,3.3125,-32.1875
1589543553.4470654,-0.08,-2.94,8.84,0.48,0.4088888888888889,-0.7022222222222222,1.5,2.25,-14.5625
1589543553.4590006,-0.76,-6.6,9.07,0.48,0.4088888888888889,-0.7022222222222222,0.4375,0.8125,5.5625
1589543553.4659314,-1.08,-26.58,9.81,0.4188888888888889,0.4511111111111111,-0.6944444444444444,-0.875,3.8125,54.8125
1589543553.4725838,-1.08,-26.58,9.81,0.4188888888888889,0.4511111111111111,-0.6944444444444444,-0.875,3.8125,54.8125
1589543553.484623,0.63,0.52,4.58,0.4188888888888889,0.4511111111111111,-0.6944444444444444,-0.625,-0.8125,156.4375
1589543553.4906402,1.25,-2.34,10.91,0.4188888888888889,0.4511111111111111,-0.6944444444444444,6.4375,-20.6875,161.5
1589543553.4980102,0.63,-1.81,6.69,0.4188888888888889,0.4511111111111111,-0.6944444444444444,6.4375,2.125,149.375
1589543553.5091865,0.9,-2.22,8.99,0.4188888888888889,0.4511111111111111,-0.6944444444444444,-0.375,-8.5,138.0
1589543553.5164375,0.76,-0.61,9.81,0.4544444444444444,0.4477777777777778,-0.6877777777777778,-5.375,-11.6875,105.8125
1589543553.5255096,0.76,-0.61,9.81,0.4544444444444444,0.4477777777777778,-0.6877777777777778,-5.375,-11.6875,105.8125
1589543553.5312848,-0.61,0.07,8.22,0.4544444444444444,0.4477777777777778,-0.6877777777777778,-9.75,2.0625,25.5
1589543553.542094,0.64,-7.19,8.72,0.4544444444444444,0.4477777777777778,-0.6877777777777778,16.625,6.8125,14.5
1589543553.547832,-0.37,-3.1,8.67,0.4544444444444444,0.4477777777777778,-0.6877777777777778,-1.375,-0.8125,0.125
1589543553.5626802,0.25,-4.07,9.02,0.4544444444444444,0.4477777777777778,-0.6877777777777778,-2.625,-2.5,-1.5
1589543553.5688837,0.05,-3.99,8.85,0.4811111111111111,0.4155555555555556,-0.7033333333333334,2.5625,1.875,0.0
1589543553.580849,0.32,-4.19,8.92,0.4811111111111111,0.4155555555555556,-0.7033333333333334,-1.25,-0.875,0.125
1589543553.5868356,0.22,-4.34,8.65,0.4811111111111111,0.4155555555555556,-0.7033333333333334,-1.4375,0.0,-0.0625
1589543553.600142,0.21,-4.12,8.84,0.4811111111111111,0.4155555555555556,-0.7033333333333334,1.5,0.6875,-0.125
1589543553.6086762,0.25,-4.12,9.0,0.4811111111111111,0.4155555555555556,-0.7033333333333334,1.3125,0.0,0.0
1589543553.6175444,0.22,-4.14,8.85,0.4988888888888889,0.3977777777777778,-0.7033333333333334,-0.625,0.1875,0.1875
1589543553.6275375,0.16,-4.2,8.69,0.4988888888888889,0.3977777777777778,-0.7033333333333334,-0.5625,0.0625,0.125
1589543553.6377428,0.29,-4.25,8.75,0.4988888888888889,0.3977777777777778,-0.7033333333333334,-1.0,-0.0625,0.125
1589543553.64814,0.19,-4.25,8.71,0.4988888888888889,0.3977777777777778,-0.7033333333333334,0.125,0.0,0.0
1589543553.6608553,0.25,-4.12,8.9,0.4988888888888889,0.3977777777777778,-0.7033333333333334,1.3125,-0.1875,0.125
1589543553.6684606,0.21,-4.14,8.81,0.4666666666666667,0.41,-0.7033333333333334,0.625,0.0,0.0
1589543553.6779866,0.28,-4.22,8.88,0.4666666666666667,0.41,-0.7033333333333334,-0.875,0.0625,0.0625
1589543553.6910124,0.22,-4.22,8.69,0.4666666666666667,0.41,-0.7033333333333334,-0.5625,0.1875,0.125
1589543553.6980991,0.26,-4.22,8.85,0.4666666666666667,0.41,-0.7033333333333334,0.0,-0.3125,0.0
1589543553.7143931,0.21,-4.15,8.87,0.4666666666666667,0.41,-0.7033333333333334,1.0,0.0,0.0
1589543553.7210662,0.25,-4.09,9.01,0.4811111111111111,0.4177777777777778,-0.7111111111111111,0.75,0.0625,0.0
1589543553.7323925,0.24,-4.16,8.91,0.4811111111111111,0.4177777777777778,-0.7111111111111111,-0.625,0.125,0.125
1589543553.7390096,0.26,-4.22,8.72,0.4811111111111111,0.4177777777777778,-0.7111111111111111,-1.0,0.0,0.0625
1589543553.752411,0.21,-4.21,8.72,0.4811111111111111,0.4177777777777778,-0.7111111111111111,-0.0625,-0.0625,-0.0625
1589543553.761224,0.25,-4.18,8.86,0.4811111111111111,0.4177777777777778,-0.7111111111111111,0.5625,-0.125,0.0
1589543553.7692142,0.24,-4.13,8.95,0.4922222222222222,0.38333333333333336,-0.7033333333333334,0.9375,0.0,0.1875
1589543553.7785926,0.25,-4.16,8.85,0.4922222222222222,0.38333333333333336,-0.7033333333333334,0.0,0.1875,-0.0625
1589543553.7899494,0.24,-4.23,8.71,0.4922222222222222,0.38333333333333336,-0.7033333333333334,-0.875,0.0625,0.0625
1589543553.7985895,0.25,-4.25,8.74,0.4922222222222222,0.38333333333333336,-0.7033333333333334,-0.3125,0.125,-0.0625
1589543553.812227,0.25,-4.17,8.86,0.4922222222222222,0.38333333333333336,-0.7033333333333334,0.5,0.0625,-0.0625
1589543553.8194351,0.23,-4.14,8.92,0.4744444444444445,0.41,-0.7033333333333334,0.9375,0.125,0.0
1589543553.8287382,0.22,-4.15,8.92,0.4744444444444445,0.41,-0.7033333333333334,0.1875,0.1875,0.0
1589543553.8425665,0.25,-4.19,8.8,0.4744444444444445,0.41,-0.7033333333333334,-0.75,0.0,-0.0625
1589543553.8499765,0.24,-4.22,8.79,0.4744444444444445,0.41,-0.7033333333333334,-0.75,0.0,0.0
1589543553.8660328,0.24,-4.19,8.86,0.4744444444444445,0.41,-0.7033333333333334,0.1875,0.0625,0.0625
1589543553.871926,0.23,-4.15,8.88,0.4988888888888889,0.4033333333333333,-0.7033333333333334,0.75,0.0,0.125
1589543553.8795743,0.23,-4.17,8.84,0.4988888888888889,0.4033333333333333,-0.7033333333333334,0.5625,0.0625,0.0625
1589543553.8899634,0.22,-4.21,8.72,0.4988888888888889,0.4033333333333333,-0.7033333333333334,-0.3125,0.0,-0.0625
1589543553.9003625,0.25,-4.21,8.75,0.4988888888888889,0.4033333333333333,-0.7033333333333334,-0.625,0.0,0.0
1589543553.9113278,0.24,-4.23,8.81,0.4988888888888889,0.4033333333333333,-0.7033333333333334,0.1875,-0.0625,0.0
1589543553.923734,0.24,-4.17,8.92,0.4866666666666667,0.41,-0.7033333333333334,0.875,0.0625,-0.0625
1589543553.9296305,0.22,-4.16,8.91,0.4866666666666667,0.41,-0.7033333333333334,0.625,-0.125,0.0625
1589543553.9421985,0.24,-4.16,8.78,0.4866666666666667,0.41,-0.7033333333333334,-0.0625,0.125,0.0
1589543553.9497375,0.23,-4.24,8.77,0.4866666666666667,0.41,-0.7033333333333334,-0.75,0.0,0.125
1589543553.9619775,0.24,-4.22,8.83,0.4866666666666667,0.41,-0.7033333333333334,-0.25,0.0,0.0625
1589543553.969277,0.24,-4.18,8.88,0.4811111111111111,0.4177777777777778,-0.7111111111111111,0.5625,0.0625,0.125
1589543553.979896,0.22,-4.15,8.93,0.4811111111111111,0.4177777777777778,-0.7111111111111111,0.625,0.125,0.0625
1589543553.9904773,0.25,-4.19,8.76,0.4811111111111111,0.4177777777777778,-0.7111111111111111,0.125,-0.1875,0.0625
1589543553.9996293,0.23,-4.2,8.77,0.4811111111111111,0.4177777777777778,-0.7111111111111111,-0.25,0.0,0.0
1589543554.0161214,0.24,-4.22,8.8,0.4811111111111111,0.4177777777777778,-0.7111111111111111,-0.3125,0.125,0.0625
1589543554.0229475,0.25,-4.18,8.91,0.4866666666666667,0.41,-0.6966666666666667,0.375,0.0,0.0625
1589543554.0303519,0.23,-4.16,8.88,0.4866666666666667,0.41,-0.6966666666666667,0.75,0.0,-0.0625
1589543554.040434,0.24,-4.16,8.77,0.4866666666666667,0.41,-0.6966666666666667,0.1875,0.125,-0.0625
1589543554.0510814,0.24,-4.19,8.8,0.4866666666666667,0.41,-0.6966666666666667,-0.4375,0.0,0.0
1589543554.0623565,0.24,-4.24,8.8,0.4866666666666667,0.41,-0.6966666666666667,-0.4375,0.0625,0.125
1589543554.074353,0.25,-4.19,8.87,0.4744444444444445,0.41,-0.7033333333333334,-0.125,0.125,0.125
1589543554.080145,0.24,-4.17,8.92,0.4744444444444445,0.41,-0.7033333333333334,0.625,0.1875,0.0625
1589543554.0940893,0.22,-4.16,8.81,0.4744444444444445,0.41,-0.7033333333333334,0.375,0.125,0.0
1589543554.1004946,0.25,-4.2,8.81,0.4744444444444445,0.41,-0.7033333333333334,-0.125,-0.0625,0.0625
1589543554.1122644,0.24,-4.2,8.81,0.4744444444444445,0.41,-0.7033333333333334,-0.375,0.0625,0.0625
1589543554.1205564,0.24,-4.22,8.86,0.4922222222222222,0.3911111111111111,-0.7033333333333334,-0.125,0.125,0.0
1589543554.130333,0.24,-4.17,8.88,0.4922222222222222,0.3911111111111111,-0.7033333333333334,0.5,-0.0625,0.125
1589543554.141176,0.25,-4.17,8.83,0.4922222222222222,0.3911111111111111,-0.7033333333333334,0.4375,0.125,0.125
1589543554.1517036,0.22,-4.17,8.82,0.4922222222222222,0.3911111111111111,-0.7033333333333334,-0.0625,0.25,0.0625
1589543554.1662536,0.22,-4.19,8.84,0.4922222222222222,0.3911111111111111,-0.7033333333333334,-0.625,-0.125,0.0625
1589543554.1722975,0.23,-4.21,8.85,0.4866666666666667,0.4177777777777778,-0.7177777777777777,-0.3125,0.0625,0.0
1589543554.1811035,0.24,-4.17,8.89,0.4866666666666667,0.4177777777777778,-0.7177777777777777,0.0625,0.0625,0.0625
1589543554.192767,0.23,-4.17,8.81,0.4866666666666667,0.4177777777777778,-0.7177777777777777,0.625,0.0,0.0625
1589543554.200757,0.22,-4.2,8.83,0.4866666666666667,0.4177777777777778,-0.7177777777777777,0.1875,-0.125,0.1875
1589543554.2128825,0.23,-4.19,8.84,0.4866666666666667,0.4177777777777778,-0.7177777777777777,-0.3125,0.1875,0.0
1589543554.2256565,0.24,-4.2,8.82,0.46,0.4177777777777778,-0.7111111111111111,-0.375,0.375,-0.125
1589543554.2321358,0.23,-4.21,8.88,0.46,0.4177777777777778,-0.7111111111111111,0.125,-0.125,0.0625
1589543554.2451189,0.22,-4.16,8.83,0.46,0.4177777777777778,-0.7111111111111111,0.5,-0.125,0.0625
1589543554.2522779,0.23,-4.16,8.84,0.46,0.4177777777777778,-0.7111111111111111,0.3125,0.125,0.0
1589543554.2666025,0.23,-4.19,8.84,0.46,0.4177777777777778,-0.7111111111111111,-0.375,0.0,0.0
1589543554.273059,0.23,-4.19,8.84,0.4866666666666667,0.4033333333333333,-0.7111111111111111,-0.3125,0.0,0.0625
1589543554.2838151,0.23,-4.19,8.86,0.4866666666666667,0.4033333333333333,-0.7111111111111111,0.0625,-0.125,-0.0625
1589543554.2906818,0.24,-4.17,8.8,0.4866666666666667,0.4033333333333333,-0.7111111111111111,0.375,-0.125,0.0
1589543554.304703,0.25,-4.17,8.83,0.4866666666666667,0.4033333333333333,-0.7111111111111111,0.4375,0.0,-0.0625
1589543554.3138633,0.26,-4.2,8.84,0.4866666666666667,0.4033333333333333,-0.7111111111111111,-0.125,-0.1875,0.125
1589543554.3253784,0.23,-4.22,8.85,0.4811111111111111,0.41,-0.7111111111111111,-0.1875,0.0625,-0.0625
1589543554.3312824,0.24,-4.21,8.83,0.4811111111111111,0.41,-0.7111111111111111,0.0625,0.25,0.125
1589543554.3427596,0.23,-4.19,8.78,0.4811111111111111,0.41,-0.7111111111111111,0.375,0.125,0.0
1589543554.352162,0.24,-4.18,8.85,0.4811111111111111,0.41,-0.7111111111111111,0.4375,0.0625,0.0625
1589543554.3636699,0.21,-4.2,8.86,0.4811111111111111,0.41,-0.7111111111111111,0.125,-0.0625,0.0625
1589543554.3755732,0.24,-4.23,8.84,0.4922222222222222,0.41,-0.7177777777777777,-0.375,0.3125,-0.125
1589543554.3821554,0.24,-4.2,8.82,0.4922222222222222,0.41,-0.7177777777777777,-0.1875,0.0625,0.1875
1589543554.3955915,0.23,-4.17,8.76,0.4922222222222222,0.41,-0.7177777777777777,0.0625,-0.0625,0.0625
1589543554.4017448,0.24,-4.17,8.81,0.4922222222222222,0.41,-0.7177777777777777,0.375,0.0625,0.0625
1589543554.414021,0.21,-4.18,8.85,0.4922222222222222,0.41,-0.7177777777777777,0.0625,0.0625,0.0625
1589543554.4217682,0.24,-4.21,8.86,0.4866666666666667,0.4177777777777778,-0.7177777777777777,-0.25,0.0,0.125
1589543554.4329245,0.24,-4.19,8.85,0.4866666666666667,0.4177777777777778,-0.7177777777777777,-0.1875,0.0625,0.0
1589543554.4424474,0.23,-4.21,8.77,0.4866666666666667,0.4177777777777778,-0.7177777777777777,0.0,0.0625,0.0625
1589543554.4561632,0.25,-4.17,8.85,0.4866666666666667,0.4177777777777778,-0.7177777777777777,0.25,0.25,-0.0625
1589543554.4644618,0.25,-4.17,8.87,0.4866666666666667,0.4177777777777778,-0.7177777777777777,0.3125,0.125,0.0625
1589543554.47236,0.24,-4.19,8.87,0.4666666666666667,0.41,-0.7177777777777777,-0.375,-0.1875,-0.0625
1589543554.4826095,0.23,-4.23,8.87,0.4666666666666667,0.41,-0.7177777777777777,-0.375,-0.1875,-0.0625
1589543554.4923894,0.25,-4.21,8.78,0.4666666666666667,0.41,-0.7177777777777777,0.25,0.0,0.125
1589543554.5028038,0.24,-4.18,8.84,0.4666666666666667,0.41,-0.7177777777777777,0.25,0.1875,0.0
1589543554.5147061,0.25,-4.17,8.88,0.4666666666666667,0.41,-0.7177777777777777,0.0625,0.25,0.0
1589543554.5279891,0.23,-4.18,8.9,0.4744444444444445,0.3911111111111111,-0.6966666666666667,-0.3125,0.0625,-0.0625
1589543554.5346642,0.25,-4.22,8.84,0.4744444444444445,0.3911111111111111,-0.6966666666666667,0.0,0.0,0.25
1589543554.5423152,0.24,-4.2,8.74,0.4744444444444445,0.3911111111111111,-0.6966666666666667,0.1875,-0.0625,0.0
1589543554.5538967,0.24,-4.19,8.79,0.4744444444444445,0.3911111111111111,-0.6966666666666667,0.4375,0.1875,0.0
