time,acc_x,acc_y,acc_z,mag_x,mag_y,mag_z,gyr_x,gyr_y,gyr_z
1589543621.9115882,0.0,-4.08,8.72,0.4933333333333334,0.2677777777777778,-0.6855555555555556,-0.125,-0.125,-0.125
1589543621.9219918,0.08,-4.12,8.89,0.5077777777777778,0.2677777777777778,-0.6644444444444444,-0.5,-0.625,-0.125
1589543621.9283702,0.02,-4.06,8.77,0.5077777777777778,0.2677777777777778,-0.6644444444444444,-0.375,-0.1875,-0.0625
1589543621.9395313,0.04,-4.11,8.75,0.5077777777777778,0.2677777777777778,-0.6644444444444444,-0.4375,-0.3125,0.0
1589543621.9461756,0.03,-4.08,8.74,0.5077777777777778,0.2677777777777778,-0.6644444444444444,-0.4375,-0.3125,0.0
1589543621.9595878,0.02,-4.09,8.79,0.5077777777777778,0.2677777777777778,-0.6644444444444444,-0.625,-0.6875,0.0625
1589543621.966708,0.04,-4.09,8.86,0.4666666666666667,0.2488888888888889,-0.6588888888888889,-0.9375,-1.1875,-0.1875
1589543621.9784622,0.08,-4.09,8.89,0.4666666666666667,0.2488888888888889,-0.6588888888888889,-0.875,-1.5,-0.1875
1589543621.9867113,0.06,-4.07,8.78,0.4666666666666667,0.2488888888888889,-0.6588888888888889,-0.8125,-1.375,-0.4375
1589543621.9988074,0.09,-4.1,8.83,0.4666666666666667,0.2488888888888889,-0.6588888888888889,-0.75,-1.0,-0.5625
1589543622.0145216,0.08,-4.11,8.87,0.4666666666666667,0.2488888888888889,-0.6588888888888889,-0.625,-0.5625,-1.0625
1589543622.0205147,0.03,-4.14,8.83,0.4866666666666667,0.25555555555555554,-0.6588888888888889,-0.375,-0.25,-1.0
1589543622.0265589,0.02,-4.1,8.78,0.4866666666666667,0.25555555555555554,-0.6588888888888889,-0.25,-0.0625,-0.9375
1589543622.035994,0.05,-4.11,8.74,0.4866666666666667,0.25555555555555554,-0.6588888888888889,-0.5625,-0.3125,-0.6875
1589543622.0484755,0.04,-4.13,8.76,0.4866666666666667,0.25555555555555554,-0.6588888888888889,-0.4375,-0.4375,-0.6875
1589543622.0592804,0.07,-4.12,8.82,0.4866666666666667,0.25555555555555554,-0.6588888888888889,-0.375,-0.0625,-0.4375
1589543622.0720778,0.08,-4.11,8.91,0.4933333333333334,0.2611111111111111,-0.6733333333333333,-0.5,-0.3125,-0.5
1589543622.0780392,0.06,-4.12,8.88,0.4933333333333334,0.2611111111111111,-0.6733333333333333,-0.0625,0.0625,-0.375
1589543622.0866866,0.06,-4.12,8.81,0.4933333333333334,0.2611111111111111,-0.6733333333333333,0.125,0.125,-0.0625
1589543622.098051,0.06,-4.13,8.8,0.4933333333333334,0.2611111111111111,-0.6733333333333333,0.1875,0.375,-0.0625
1589543622.1086586,0.06,-4.11,8.83,0.4933333333333334,0.2611111111111111,-0.6733333333333333,0.4375,0.5625,0.0
1589543622.1167595,0.04,-4.1,8.8,0.4744444444444445,0.2611111111111111,-0.6733333333333333,0.375,0.5625,0.0
1589543622.131072,0.06,-4.1,8.79,0.4744444444444445,0.2611111111111111,-0.6733333333333333,0.0625,0.1875,0.0
1589543622.137182,0.04,-4.1,8.73,0.4744444444444445,0.2611111111111111,-0.6733333333333333,-0.0625,0.0625,0.0
1589543622.1493812,0.03,-4.1,8.77,0.4744444444444445,0.2611111111111111,-0.6733333333333333,-0.3125,-0.5625,-0.0625
1589543622.1591694,0.06,-4.11,8.85,0.4744444444444445,0.2611111111111111,-0.6733333333333333,-0.5625,-0.75,-0.0625
1589543622.1701677,0.13,-4.15,8.98,0.4744444444444445,0.2611111111111111,-0.6733333333333333,-0.5625,-0.9375,0.0
1589543622.1777258,0.09,-4.11,8.87,0.4744444444444445,0.2611111111111111,-0.6733333333333333,-0.1875,-0.4375,-0.125
1589543622.187502,0.02,-4.1,8.7,0.4744444444444445,0.2611111111111111,-0.6733333333333333,0.125,0.4375,-0.25
1589543622.197142,0.12,-4.13,8.91,0.4744444444444445,0.2611111111111111,-0.6733333333333333,-0.1875,-0.5625,-0.3125
1589543622.2100196,-0.02,-4.08,8.72,0.4744444444444445,0.2611111111111111,-0.6733333333333333,-0.5,-0.4375,-0.25
1589543622.2178054,-0.01,-4.05,8.69,0.4866666666666667,0.25555555555555554,-0.6666666666666666,-1.125,-1.0,-0.375
1589543622.2299356,0.08,-4.04,8.83,0.4866666666666667,0.25555555555555554,-0.6666666666666666,-2.625,-3.0625,-0.5
1589543622.236692,0.24,-3.66,8.91,0.4866666666666667,0.25555555555555554,-0.6666666666666666,-3.3125,-3.875,-1.4375
1589543622.247068,0.16,-3.78,8.9,0.4866666666666667,0.25555555555555554,-0.6666666666666666,-3.0625,-3.4375,-4.125
1589543622.2599726,0.11,-3.75,8.79,0.4866666666666667,0.25555555555555554,-0.6666666666666666,-2.125,-1.5625,-6.25
1589543622.2681193,0.08,-3.73,8.86,0.4866666666666667,0.2611111111111111,-0.6644444444444444,-1.5625,-1.1875,-7.1875
1589543622.2819474,0.08,-3.64,8.71,0.4866666666666667,0.2611111111111111,-0.6644444444444444,-1.4375,-0.6875,-6.75
1589543622.2882178,0.06,-3.58,8.66,0.4866666666666667,0.2611111111111111,-0.6644444444444444,-1.4375,-1.0,-6.4375
1589543622.300653,0.09,-3.45,8.78,0.4866666666666667,0.2611111111111111,-0.6644444444444444,-2.4375,-2.375,-7.125
1589543622.3091922,0.07,-3.39,8.99,0.4866666666666667,0.2611111111111111,-0.6644444444444444,-3.375,-2.625,-8.6875
1589543622.3203163,0.1,-3.39,9.04,0.4811111111111111,0.27555555555555555,-0.68,-3.375,-2.5625,-9.625
1589543622.3274035,0.05,-3.27,8.91,0.4811111111111111,0.27555555555555555,-0.68,-2.3125,-0.875,-9.6875
1589543622.3408947,-0.28,-2.79,8.86,0.4811111111111111,0.27555555555555555,-0.68,-0.75,0.3125,-6.75
1589543622.347945,-0.15,-2.96,8.86,0.4811111111111111,0.27555555555555555,-0.68,0.5625,0.6875,2.5625
1589543622.3591533,-0.19,-2.97,8.7,0.4811111111111111,0.27555555555555555,-0.68,0.4375,0.0,10.75
1589543622.36695,-0.16,-3.07,8.99,0.4866666666666667,0.2822222222222222,-0.6733333333333333,-0.1875,-1.1875,18.4375
1589543622.3771706,-0.19,-2.99,8.76,0.4866666666666667,0.2822222222222222,-0.6733333333333333,0.25,-1.0625,25.75
1589543622.3824086,-0.19,-2.99,8.76,0.4866666666666667,0.2822222222222222,-0.6733333333333333,0.25,-1.0625,25.75
1589543622.3896635,-0.12,-3.07,8.66,0.4866666666666667,0.2822222222222222,-0.6733333333333333,0.9375,-0.75,32.125
1589543622.400595,-0.11,-3.19,8.88,0.4866666666666667,0.2822222222222222,-0.6733333333333333,0.3125,-2.125,38.3125
1589543622.411205,-0.15,-3.17,8.94,0.4866666666666667,0.2822222222222222,-0.6733333333333333,0.0,-2.1875,43.375
1589543622.417527,-0.13,-3.31,8.95,0.4866666666666667,0.2677777777777778,-0.68,0.625,-2.0625,48.25
1589543622.4331515,-0.18,-3.35,8.9,0.4866666666666667,0.2677777777777778,-0.68,0.0625,-2.75,52.4375
1589543622.4390535,-0.17,-3.31,8.72,0.4866666666666667,0.2677777777777778,-0.68,0.25,-2.5625,56.875
1589543622.4537306,-0.28,-3.33,8.83,0.4866666666666667,0.2677777777777778,-0.68,0.375,-3.0625,61.0625
1589543622.4613278,-0.31,-3.37,8.82,0.4866666666666667,0.2677777777777778,-0.68,0.3125,-3.3125,65.625
1589543622.472856,-0.23,-3.33,8.82,0.4811111111111111,0.2344444444444445,-0.6855555555555556,0.5625,-3.1875,70.625
1589543622.4785433,-0.26,-3.39,8.95,0.4811111111111111,0.2344444444444445,-0.6855555555555556,0.5,-3.75,75.3125
1589543622.4893565,-0.35,-3.39,8.72,0.4811111111111111,0.2344444444444445,-0.6855555555555556,0.6875,-3.25,79.1875
1589543622.4985268,-0.29,-3.31,8.74,0.4811111111111111,0.2344444444444445,-0.6855555555555556,0.6875,-3.625,82.75
1589543622.513028,-0.4,-3.5,9.01,0.4811111111111111,0.2344444444444445,-0.6855555555555556,0.3125,-4.3125,86.0625
1589543622.518589,-0.54,-3.44,8.88,0.5077777777777778,0.2222222222222222,-0.68,0.8125,-3.6875,88.9375
1589543622.5316384,-0.52,-3.44,8.92,0.5077777777777778,0.2222222222222222,-0.68,1.0,-3.875,92.6875
1589543622.5390177,-0.56,-3.46,8.77,0.5077777777777778,0.2222222222222222,-0.68,0.5,-4.625,96.0625
1589543622.5492096,-0.59,-3.43,8.81,0.5077777777777778,0.2222222222222222,-0.68,0.5625,-4.5,99.8125
1589543622.56212,-0.64,-3.46,8.84,0.5077777777777778,0.2222222222222222,-0.68,0.8125,-4.6875,103.625
1589543622.573739,-0.67,-3.53,8.9,0.52,0.18222222222222226,-0.68,0.6875,-5.25,107.5
1589543622.5846524,-0.76,-3.58,8.88,0.52,0.18222222222222226,-0.68,0.625,-5.25,110.0
1589543622.5913775,-0.8,-3.57,8.75,0.52,0.18222222222222226,-0.68,0.75,-5.1875,111.9375
1589543622.6048198,-0.89,-3.48,8.76,0.52,0.18222222222222226,-0.68,0.875,-4.9375,113.625
1589543622.6107152,-0.71,-3.47,8.99,0.52,0.18222222222222226,-0.68,0.75,-5.0625,116.6875
1589543622.6225634,-0.7,-3.34,8.96,0.56,0.15555555555555556,-0.7,0.8125,-5.0625,117.625
1589543622.62993,-0.86,-3.27,8.73,0.56,0.15555555555555556,-0.7,1.875,-4.0625,115.75
1589543622.6409225,-0.85,-3.24,8.87,0.56,0.15555555555555556,-0.7,1.375,-4.875,113.5625
1589543622.6489313,-0.89,-3.22,8.83,0.56,0.15555555555555556,-0.7,0.125,-5.6875,111.5625
1589543622.6617508,-0.95,-3.21,8.95,0.56,0.15555555555555556,-0.7,0.5625,-5.125,109.875
1589543622.668953,-1.03,-3.18,8.88,0.5466666666666666,0.09888888888888887,-0.6944444444444444,1.0625,-4.625,107.9375
1589543622.682796,-1.14,-3.18,8.95,0.5466666666666666,0.09888888888888887,-0.6944444444444444,1.375,-4.4375,105.875
1589543622.689576,-1.06,-2.85,8.48,0.5466666666666666,0.09888888888888887,-0.6944444444444444,0.6875,-4.625,104.0
1589543622.7020936,-1.11,-3.1,9.08,0.5466666666666666,0.09888888888888887,-0.6944444444444444,-0.0625,-5.9375,102.75
1589543622.7118475,-1.19,-3.06,8.67,0.5466666666666666,0.09888888888888887,-0.6944444444444444,0.6875,-5.0625,100.5625
1589543622.7203467,-1.3,-3.17,8.95,0.56,0.057777777777777775,-0.7422222222222222,1.5625,-3.4375,97.6875
1589543622.7287009,-1.39,-3.15,8.92,0.56,0.057777777777777775,-0.7422222222222222,0.5,-4.625,94.5
1589543622.740896,-1.48,-3.14,8.94,0.56,0.057777777777777775,-0.7422222222222222,0.5,-4.6875,91.9375
1589543622.7497892,-1.48,-3.02,8.78,0.56,0.057777777777777775,-0.7422222222222222,0.8125,-4.375,90.5625
1589543622.7612233,-1.51,-3.06,8.8,0.56,0.057777777777777775,-0.7422222222222222,0.75,-3.8125,89.0625
1589543622.7687626,-1.52,-3.01,9.19,0.5644444444444444,0.02666666666666667,-0.7422222222222222,-0.1875,-5.1875,87.4375
1589543622.780382,-1.57,-2.92,8.8,0.5644444444444444,0.02666666666666667,-0.7422222222222222,0.875,-3.875,86.5
1589543622.794382,-1.57,-2.92,8.86,0.5644444444444444,0.02666666666666667,-0.7422222222222222,1.375,-3.0,84.5
1589543622.8003533,-1.66,-2.96,8.98,0.5644444444444444,0.02666666666666667,-0.7422222222222222,0.5,-3.5625,82.25
1589543622.8120415,-1.46,-2.64,8.84,0.5644444444444444,0.02666666666666667,-0.7422222222222222,1.1875,-2.8125,80.25
1589543622.8193517,-1.4,-2.61,8.88,0.5777777777777777,-0.006666666666666667,-0.7422222222222222,1.25,-2.3125,78.1875
1589543622.8334408,-1.44,-2.61,8.8,0.5777777777777777,-0.006666666666666667,-0.7422222222222222,0.6875,-3.0625,75.375
1589543622.8396974,-1.56,-2.67,8.9,0.5777777777777777,-0.006666666666666667,-0.7422222222222222,0.0625,-4.375,71.6875
1589543622.849688,-1.72,-2.67,9.08,0.5777777777777777,-0.006666666666666667,-0.7422222222222222,-0.5625,-5.125,68.0625
1589543622.8626337,-1.69,-2.62,8.79,0.5777777777777777,-0.006666666666666667,-0.7422222222222222,0.0,-3.4375,65.75
1589543622.8736515,-1.79,-2.68,8.97,0.57,-0.057777777777777775,-0.7566666666666667,0.8125,-2.5,63.25
1589543622.8805141,-1.71,-2.52,8.83,0.57,-0.057777777777777775,-0.7566666666666667,0.25,-3.125,60.4375
1589543622.8905866,-1.73,-2.47,8.81,0.57,-0.057777777777777775,-0.7566666666666667,0.6875,-2.0,58.0625
1589543622.9010608,-1.72,-2.41,8.92,0.57,-0.057777777777777775,-0.7566666666666667,0.125,-2.625,55.8125
1589543622.9128964,-1.83,-2.43,8.91,0.57,-0.057777777777777775,-0.7566666666666667,-0.125,-2.6875,54.1875
1589543622.9200726,-1.89,-2.47,9.04,0.5488888888888889,-0.07555555555555556,-0.7777777777777778,0.0625,-2.75,53.625
1589543622.9316704,-1.89,-2.51,8.76,0.5488888888888889,-0.07555555555555556,-0.7777777777777778,0.625,-2.0,53.25
1589543622.9417908,-1.99,-2.53,8.85,0.5488888888888889,-0.07555555555555556,-0.7777777777777778,0.5625,-1.8125,51.875
1589543622.9514089,-2.05,-2.48,8.87,0.5488888888888889,-0.07555555555555556,-0.7777777777777778,0.0,-3.1875,50.4375
1589543622.9636116,-2.13,-2.51,8.89,0.5488888888888889,-0.07555555555555556,-0.7777777777777778,-0.1875,-1.75,50.5
1589543622.9708679,-1.98,-2.44,9.1,0.5544444444444444,-0.10222222222222224,-0.8133333333333334,-0.3125,-2.375,50.4375
1589543622.9860075,-1.63,-2.13,8.91,0.5544444444444444,-0.10222222222222224,-0.8133333333333334,0.375,-2.0625,50.0625
1589543622.9916368,-1.93,-2.33,8.81,0.5544444444444444,-0.10222222222222224,-0.8133333333333334,0.375,-1.0625,49.3125
1589543623.0041714,-1.96,-2.37,8.85,0.5544444444444444,-0.10222222222222224,-0.8133333333333334,0.3125,-1.125,48.0
1589543623.012999,-2.05,-2.4,8.88,0.5544444444444444,-0.10222222222222224,-0.8133333333333334,0.0,-2.0625,47.25
1589543623.0255053,-2.23,-2.51,9.06,0.5344444444444445,-0.11666666666666667,-0.8277777777777777,-0.1875,-1.9375,47.5625
1589543623.0324526,-2.18,-2.35,8.79,0.5344444444444445,-0.11666666666666667,-0.8277777777777777,0.5,-1.1875,48.875
1589543623.0439568,-2.22,-2.41,9.14,0.5344444444444445,-0.11666666666666667,-0.8277777777777777,-0.1875,-1.0625,50.375
1589543623.0511308,-1.9,-2.18,8.87,0.5344444444444445,-0.11666666666666667,-0.8277777777777777,2.3125,1.625,52.8125
1589543623.0635152,-2.19,-2.39,9.17,0.5344444444444445,-0.11666666666666667,-0.8277777777777777,-0.1875,-2.5625,53.25
1589543623.0716991,-2.1,-2.26,8.76,0.5077777777777778,-0.1688888888888889,-0.8355555555555556,-1.5625,-2.8125,54.25
1589543623.0810466,-2.46,-2.47,9.13,0.5077777777777778,-0.1688888888888889,-0.8355555555555556,-0.75,-2.875,56.1875
1589543623.0934446,-2.55,-2.54,9.12,0.5077777777777778,-0.1688888888888889,-0.8355555555555556,0.4375,-0.625,58.75
1589543623.1036878,-2.52,-2.35,8.7,0.5077777777777778,-0.1688888888888889,-0.8355555555555556,-0.4375,-0.875,61.125
1589543623.1161,-2.52,-2.35,9.04,0.5077777777777778,-0.1688888888888889,-0.8355555555555556,-1.0,-2.6875,63.6875
1589543623.1224306,-2.43,-2.21,8.99,0.4811111111111111,-0.22,-0.8211111111111111,-0.375,-2.0,66.3125
1589543623.1358495,-2.43,-2.21,9.15,0.4811111111111111,-0.22,-0.8211111111111111,-0.625,-2.1875,68.9375
1589543623.1416097,-2.32,-2.06,8.84,0.4811111111111111,-0.22,-0.8211111111111111,0.1875,-0.9375,71.375
1589543623.1556346,-2.29,-2.01,8.82,0.4811111111111111,-0.22,-0.8211111111111111,0.375,-1.25,73.75
1589543623.1631439,-2.5,-2.12,9.28,0.4811111111111111,-0.22,-0.8211111111111111,0.0,-0.5,75.6875
1589543623.175841,-2.53,-2.03,8.95,0.4633333333333333,-0.2611111111111111,-0.8211111111111111,0.0,-2.0625,77.6875
1589543623.1824222,-2.48,-2.02,9.21,0.4633333333333333,-0.2611111111111111,-0.8211111111111111,-0.75,-3.1875,79.1875
1589543623.1926186,-2.7,-2.02,8.65,0.4633333333333333,-0.2611111111111111,-0.8211111111111111,-0.3125,-2.75,80.5
1589543623.2011287,-2.5,-1.94,9.1,0.4633333333333333,-0.2611111111111111,-0.8211111111111111,0.0625,-2.75,82.5
1589543623.2161136,-2.39,-1.69,8.29,0.4633333333333333,-0.2611111111111111,-0.8211111111111111,0.8125,-1.25,82.875
1589543623.221833,-2.31,-1.76,9.14,0.4,-0.3144444444444445,-0.8188888888888889,-2.0625,-6.1875,81.8125
1589543623.234117,-1.97,-1.54,9.25,0.4,-0.3144444444444445,-0.8188888888888889,-1.125,-5.3125,82.0
1589543623.2422082,-2.05,-1.57,9.63,0.4,-0.3144444444444445,-0.8188888888888889,-1.0,-5.1875,84.4375
1589543623.2524385,-2.49,-1.61,9.01,0.4,-0.3144444444444445,-0.8188888888888889,2.4375,0.1875,88.25
1589543623.2635627,-2.11,-1.34,8.08,0.4,-0.3144444444444445,-0.8188888888888889,1.4375,-1.0625,91.5625
1589543623.271871,-2.66,-1.69,9.66,0.3422222222222222,-0.3888888888888889,-0.7288888888888889,-0.625,-4.625,94.125
1589543623.2819018,-1.94,-1.19,7.67,0.3422222222222222,-0.3888888888888889,-0.7288888888888889,3.3125,1.4375,96.25
1589543623.2937813,-1.95,-1.26,8.8,0.3422222222222222,-0.3888888888888889,-0.7288888888888889,-2.3125,-9.5625,91.875
1589543623.3027446,-2.48,-1.55,10.21,0.3422222222222222,-0.3888888888888889,-0.7288888888888889,-2.625,-7.8125,90.125
1589543623.3140378,-1.85,-0.94,7.81,0.3422222222222222,-0.3888888888888889,-0.7288888888888889,3.4375,2.1875,89.625
1589543623.3259811,-1.79,-1.09,9.02,0.3466666666666667,-0.3688888888888889,-0.72,0.125,-5.3125,86.375
1589543623.3319054,-2.1,-1.19,9.76,0.3466666666666667,-0.3688888888888889,-0.72,-1.0625,-6.1875,82.6875
1589543623.3418102,-2.31,-1.2,8.93,0.3466666666666667,-0.3688888888888889,-0.72,1.0625,-0.75,80.5
1589543623.3536134,-2.14,-1.14,9.14,0.3466666666666667,-0.3688888888888889,-0.72,-0.5,-4.1875,78.3125
1589543623.3675766,-2.09,-1.07,9.16,0.3466666666666667,-0.3688888888888889,-0.72,-1.625,-4.8125,77.5625
1589543623.3732038,-2.11,-1.03,8.83,0.3655555555555556,-0.3655555555555556,-0.6944444444444444,0.8125,-3.4375,76.5
1589543623.383722,-2.35,-1.04,9.08,0.3655555555555556,-0.3655555555555556,-0.6944444444444444,2.0625,-2.9375,74.125
1589543623.3922946,-2.29,-0.87,8.04,0.3655555555555556,-0.3655555555555556,-0.6944444444444444,1.5625,-1.4375,72.625
1589543623.4028265,-2.52,-1.11,9.97,0.3655555555555556,-0.3655555555555556,-0.6944444444444444,-1.25,-6.375,69.375
1589543623.4147506,-2.26,-0.85,8.67,0.3655555555555556,-0.3655555555555556,-0.6944444444444444,2.0,-0.9375,67.0625
1589543623.4256828,-2.19,-0.94,9.69,0.3533333333333333,-0.3855555555555555,-0.7,-1.0,-6.375,63.625
1589543623.432339,-2.06,-0.7,8.9,0.3533333333333333,-0.3855555555555555,-0.7,-1.4375,-5.5,62.5625
1589543623.442461,-1.67,-0.83,9.31,0.3533333333333333,-0.3855555555555555,-0.7,0.375,-3.1875,59.25
1589543623.447907,-1.67,-0.83,9.31,0.3533333333333333,-0.3855555555555555,-0.7,0.375,-3.1875,59.25
1589543623.4555225,-2.21,-0.71,8.58,0.3533333333333333,-0.3855555555555555,-0.7,2.0625,-3.0625,52.0
1589543623.4667766,-1.75,-0.7,8.64,0.3533333333333333,-0.3855555555555555,-0.7,0.9375,-1.9375,48.75
1589543623.4780655,-1.77,-0.55,8.35,0.34444444444444444,-0.3922222222222223,-0.68,0.5,-3.5625,44.625
1589543623.484603,-2.27,-0.8,10.61,0.34444444444444444,-0.3922222222222223,-0.68,-1.4375,-4.875,37.9375
1589543623.498039,-1.33,-0.41,7.72,0.34444444444444444,-0.3922222222222223,-0.68,2.5625,1.6875,31.8125
1589543623.5041022,-1.77,-0.57,9.46,0.34444444444444444,-0.3922222222222223,-0.68,-3.125,-7.0,20.5625
1589543623.5183365,-1.74,-0.74,10.51,0.34444444444444444,-0.3922222222222223,-0.68,-1.625,-2.375,10.1875
1589543623.5246346,-1.92,-0.43,7.56,0.3511111111111111,-0.3922222222222223,-0.6944444444444444,5.0625,7.75,2.3125
1589543623.5370069,-2.04,-0.77,10.62,0.3511111111111111,-0.3922222222222223,-0.6944444444444444,-2.375,-5.375,-5.4375
1589543623.543355,-2.05,-0.51,7.57,0.3511111111111111,-0.3922222222222223,-0.6944444444444444,0.0,3.375,-9.125
1589543623.5546038,-1.64,-0.46,8.41,0.3511111111111111,-0.3922222222222223,-0.6944444444444444,-2.75,-4.5,-15.3125
1589543623.5675426,-1.69,-0.64,8.89,0.3511111111111111,-0.3922222222222223,-0.6944444444444444,-2.6875,-4.0625,-25.75
1589543623.5761495,-1.74,-0.73,8.96,0.35,-0.4011111111111111,-0.7088888888888889,-0.125,3.0625,-35.0
1589543623.5835295,-1.48,-0.77,9.37,0.35,-0.4011111111111111,-0.7088888888888889,-0.125,2.75,-44.375
1589543623.593361,-1.94,-0.68,8.79,0.35,-0.4011111111111111,-0.7088888888888889,1.75,5.8125,-53.1875
1589543623.6039634,-1.32,-0.81,9.13,0.35,-0.4011111111111111,-0.7088888888888889,-4.125,-1.875,-64.875
1589543623.6153393,-1.92,-1.1,10.93,0.35,-0.4011111111111111,-0.7088888888888889,-7.6875,-5.3125,-77.25
1589543623.6252005,-1.56,-0.97,8.9,0.3555555555555556,-0.4211111111111111,-0.7066666666666667,-0.375,11.6875,-83.625
1589543623.6356757,-1.71,-1.03,10.03,0.3555555555555556,-0.4211111111111111,-0.7066666666666667,3.625,7.625,-89.875
1589543623.6489859,-1.72,-1.05,9.34,0.3555555555555556,-0.4211111111111111,-0.7066666666666667,3.0625,2.75,-97.6875
1589543623.6558678,-1.91,-1.05,7.62,0.3555555555555556,-0.4211111111111111,-0.7066666666666667,-0.875,8.875,-109.0625
1589543623.6704354,-2.13,-1.4,9.49,0.3555555555555556,-0.4211111111111111,-0.7066666666666667,-5.125,-0.4375,-120.1875
1589543623.6766062,-1.62,-1.31,8.49,0.3555555555555556,-0.4922222222222222,-0.6855555555555556,-0.4375,5.875,-128.0625
1589543623.6876767,-1.76,-1.48,8.7,0.3555555555555556,-0.4922222222222222,-0.6855555555555556,-0.8125,7.625,-139.1875
1589543623.6938055,-1.71,-1.6,8.96,0.3555555555555556,-0.4922222222222222,-0.6855555555555556,-4.125,3.375,-149.9375
1589543623.7078779,-1.39,-1.72,9.28,0.3555555555555556,-0.4922222222222222,-0.6855555555555556,-2.625,5.5625,-161.25
1589543623.715679,-1.79,-1.83,8.36,0.3555555555555556,-0.4922222222222222,-0.6855555555555556,0.875,11.5625,-171.5625
1589543623.7244265,-2.16,-2.13,8.9,0.2822222222222222,-1.04,-0.2488888888888889,-1.5625,9.5,-181.1875
1589543623.7346425,-1.9,-2.22,9.16,0.2822222222222222,-1.04,-0.2488888888888889,-2.8125,6.4375,-189.125
1589543623.7460346,-1.92,-2.39,9.03,0.2822222222222222,-1.04,-0.2488888888888889,-2.0625,8.75,-194.375
1589543623.7541318,-2.01,-2.56,8.76,0.2822222222222222,-1.04,-0.2488888888888889,-0.625,10.125,-197.8125
1589543623.766219,-1.62,-2.54,8.39,0.2822222222222222,-1.04,-0.2488888888888889,-1.625,9.125,-203.5625
1589543623.7768204,-1.75,-2.88,9.72,0.9544444444444444,-0.5688888888888889,-0.6522222222222223,-3.25,7.0,-210.75
1589543623.7848866,-1.79,-2.95,8.6,0.9544444444444444,-0.5688888888888889,-0.6522222222222223,0.6875,12.4375,-215.875
1589543623.7951727,-1.69,-3.15,8.51,0.9544444444444444,-0.5688888888888889,-0.6522222222222223,-0.9375,11.4375,-221.3125
1589543623.8072667,-1.86,-3.46,9.34,0.9544444444444444,-0.5688888888888889,-0.6522222222222223,-2.625,8.0625,-226.25
1589543623.821276,-1.68,-3.62,8.87,0.9544444444444444,-0.5688888888888889,-0.6522222222222223,-1.6875,10.375,-230.125
1589543623.8275518,-1.66,-3.89,9.47,0.6077777777777778,-0.22,-0.73,-2.6875,8.5,-232.625
1589543623.8357933,-1.34,-3.81,9.04,0.6077777777777778,-0.22,-0.73,-1.25,11.875,-234.625
1589543623.8463845,-1.28,-3.92,8.03,0.6077777777777778,-0.22,-0.73,0.8125,13.5,-236.5625
1589543623.8588126,-1.23,-3.84,8.99,0.6077777777777778,-0.22,-0.73,-3.125,7.8125,-238.8125
1589543623.8663778,-1.05,-3.5,8.69,0.6077777777777778,-0.22,-0.73,-3.0,9.25,-238.0
1589543623.879589,-1.29,-3.73,9.37,0.6111111111111112,-0.06888888888888889,-0.7711111111111111,-2.0625,9.25,-237.3125
1589543623.8863792,-1.11,-3.7,9.02,0.6111111111111112,-0.06888888888888889,-0.7711111111111111,-0.8125,12.9375,-235.125
1589543623.8966794,-1.45,-4.4,9.05,0.6111111111111112,-0.06888888888888889,-0.7711111111111111,0.25,11.8125,-232.0625
1589543623.904817,-1.29,-4.19,8.75,0.6111111111111112,-0.06888888888888889,-0.7711111111111111,-1.5,10.1875,-226.875
1589543623.9167387,-1.34,-4.28,8.66,0.6111111111111112,-0.06888888888888889,-0.7711111111111111,-1.875,10.625,-220.75
1589543623.9243279,-1.17,-4.26,8.89,0.5822222222222222,0.048888888888888885,-0.7855555555555556,-1.3125,8.5625,-215.125
1589543623.9358685,-0.91,-3.96,8.65,0.5822222222222222,0.048888888888888885,-0.7855555555555556,-0.9375,8.6875,-211.875
1589543623.9448233,-1.02,-4.26,8.91,0.5822222222222222,0.048888888888888885,-0.7855555555555556,-2.125,7.4375,-209.625
1589543623.9553735,-1.12,-4.52,9.36,0.5822222222222222,0.048888888888888885,-0.7855555555555556,-1.125,8.4375,-205.0
1589543623.9724667,-0.75,-4.01,7.8,0.5822222222222222,0.048888888888888885,-0.7855555555555556,1.8125,13.3125,-198.0625
1589543623.979019,-8.26,-15.95,11.13,0.5611111111111111,0.1511111111111111,-0.78,0.875,8.3125,-193.375
1589543623.9931202,-12.79,-10.28,-1.1,0.5611111111111111,0.1511111111111111,-0.78,-48.0625,39.1875,-364.4375
1589543623.9994125,-30.75,-33.01,-2.41,0.5611111111111111,0.1511111111111111,-0.78,-184.6875,-100.375,-929.875
1589543624.0102336,-2.94,-1.4,17.3,0.5611111111111111,0.1511111111111111,-0.78,-133.625,143.75,-641.625
1589543624.0178638,0.18,-0.22,-1.08,0.5611111111111111,0.1511111111111111,-0.78,-87.0625,75.0,-307.4375
1589543624.0250766,1.21,-2.04,15.33,0.4744444444444445,0.3,-0.7355555555555555,-32.25,1.1875,-277.25
1589543624.036506,-1.15,-1.26,4.91,0.4744444444444445,0.3,-0.7355555555555555,58.375,52.1875,-255.875
1589543624.0492651,1.25,-2.01,11.94,0.4744444444444445,0.3,-0.7355555555555555,128.75,16.875,-232.5625
1589543624.0564833,1.37,-4.59,16.28,0.4744444444444445,0.3,-0.7355555555555555,198.25,31.625,-212.5
1589543624.0688045,1.01,-1.86,5.07,0.4744444444444445,0.3,-0.7355555555555555,96.8125,51.125,-157.4375
1589543624.0751414,3.08,-3.46,11.01,0.3555555555555556,0.4844444444444445,-0.73,-64.375,-16.1875,-93.1875
1589543624.0897748,3.71,-3.67,11.04,0.3555555555555556,0.4844444444444445,-0.73,-0.5625,-11.1875,-75.5625
1589543624.096055,2.39,0.05,6.85,0.3555555555555556,0.4844444444444445,-0.73,24.0625,14.375,-56.8125
1589543624.1107874,4.91,-4.05,8.46,0.3555555555555556,0.4844444444444445,-0.73,-7.25,-0.6875,-41.25
1589543624.1185586,1.63,-2.03,8.69,0.3555555555555556,0.4844444444444445,-0.73,-4.3125,0.75,-43.1875
1589543624.1301816,2.05,-3.21,9.18,0.31777777777777777,0.4844444444444445,-0.72,4.0,2.125,-34.3125
1589543624.1368606,2.09,-2.92,8.63,0.31777777777777777,0.4844444444444445,-0.72,0.4375,0.8125,-18.5625
1589543624.148515,1.74,-3.69,8.55,0.31777777777777777,0.4844444444444445,-0.72,-1.1875,0.75,-2.9375
1589543624.1608312,1.71,-3.78,8.71,0.31777777777777777,0.4844444444444445,-0.72,-0.1875,0.0625,1.5625
1589543624.1680589,1.81,-3.87,8.77,0.31777777777777777,0.4844444444444445,-0.72,-0.5625,-0.0625,0.6875
1589543624.1764936,1.74,-3.88,9.05,0.31555555555555553,0.4833333333333333,-0.7144444444444444,0.125,-0.0625,0.3125
1589543624.18762,1.74,-3.59,8.73,0.31555555555555553,0.4833333333333333,-0.7144444444444444,0.875,0.25,0.5
1589543624.196478,1.75,-3.74,8.74,0.31555555555555553,0.4833333333333333,-0.7144444444444444,0.25,0.0625,0.1875
1589543624.2075179,1.76,-3.8,8.74,0.31555555555555553,0.4833333333333333,-0.7144444444444444,-0.375,-0.0625,0.125
1589543624.2221375,1.76,-3.85,8.88,0.31555555555555553,0.4833333333333333,-0.7144444444444444,-0.375,-0.25,0.25
1589543624.2279005,1.78,-3.69,8.67,0.3022222222222222,0.49,-0.7144444444444444,0.1875,-0.0625,0.1875
1589543624.2412407,1.71,-3.76,8.85,0.3022222222222222,0.49,-0.7144444444444444,0.5,0.1875,0.1875
1589543624.2475224,1.72,-3.69,8.6,0.3022222222222222,0.49,-0.7144444444444444,0.6875,0.125,-0.0625
1589543624.2573519,1.75,-3.83,8.85,0.3022222222222222,0.49,-0.7144444444444444,-0.5,0.1875,0.0
1589543624.269968,1.79,-3.72,8.62,0.3022222222222222,0.49,-0.7144444444444444,-0.1875,-0.0625,0.0625
1589543624.2776847,1.77,-3.78,8.77,0.3088888888888889,0.51,-0.7288888888888889,-0.125,0.0,0.125
1589543624.2877595,1.73,-3.7,8.74,0.3088888888888889,0.51,-0.7288888888888889,0.5625,0.0625,0.0
1589543624.2999988,1.74,-3.74,8.76,0.3088888888888889,0.51,-0.7288888888888889,0.1875,0.25,0.0625
1589543624.307125,1.77,-3.71,8.65,0.3088888888888889,0.51,-0.7288888888888889,0.125,-0.125,-0.0625
1589543624.320218,1.78,-3.76,8.74,0.3088888888888889,0.51,-0.7288888888888889,-0.625,-0.375,0.25
1589543624.3327372,1.75,-3.75,8.72,0.3022222222222222,0.4977777777777778,-0.7333333333333333,0.0625,-0.1875,0.0
1589543624.3387315,1.74,-3.76,8.84,0.3022222222222222,0.4977777777777778,-0.7333333333333333,0.125,0.25,0.125
1589543624.3479614,1.73,-3.71,8.68,0.3022222222222222,0.4977777777777778,-0.7333333333333333,0.5625,0.125,0.0625
1589543624.360266,1.77,-3.76,8.74,0.3022222222222222,0.4977777777777778,-0.7333333333333333,-0.0625,0.0625,0.0
1589543624.3700721,1.74,-3.75,8.7,0.3022222222222222,0.4977777777777778,-0.7333333333333333,-0.4375,0.0,0.0
1589543624.3777752,1.77,-3.77,8.79,0.31555555555555553,0.4977777777777778,-0.7288888888888889,-0.3125,-0.125,0.0
1589543624.3917596,1.78,-3.75,8.74,0.31555555555555553,0.4977777777777778,-0.7288888888888889,0.3125,0.0625,0.125
1589543624.3978355,1.76,-3.7,8.72,0.31555555555555553,0.4977777777777778,-0.7288888888888889,0.5,0.1875,0.0
1589543624.4085975,1.75,-3.74,8.74,0.31555555555555553,0.4977777777777778,-0.7288888888888889,0.25,-0.0625,0.0625
1589543624.4211571,1.74,-3.75,8.78,0.31555555555555553,0.4977777777777778,-0.7288888888888889,-0.625,0.0,0.0
1589543624.4301682,1.76,-3.77,8.76,0.2966666666666667,0.4977777777777778,-0.7066666666666667,-0.25,-0.125,-0.0625
1589543624.4387085,1.75,-3.74,8.77,0.2966666666666667,0.4977777777777778,-0.7066666666666667,0.0625,0.0,0.0625
1589543624.4480026,1.74,-3.74,8.7,0.2966666666666667,0.4977777777777778,-0.7066666666666667,0.375,0.0625,0.1875
1589543624.4582071,1.74,-3.72,8.73,0.2966666666666667,0.4977777777777778,-0.7066666666666667,0.375,0.125,-0.125
1589543624.4709802,1.75,-3.77,8.76,0.2966666666666667,0.4977777777777778,-0.7066666666666667,-0.125,-0.125,0.125
1589543624.478615,1.77,-3.78,8.73,0.31555555555555553,0.5022222222222222,-0.7144444444444444,-0.4375,0.0625,0.0
1589543624.4909973,1.75,-3.76,8.77,0.31555555555555553,0.5022222222222222,-0.7144444444444444,-0.125,-0.0625,0.0625
1589543624.4983466,1.74,-3.73,8.69,0.31555555555555553,0.5022222222222222,-0.7144444444444444,0.5625,0.1875,0.125
1589543624.5098095,1.73,-3.72,8.77,0.31555555555555553,0.5022222222222222,-0.7144444444444444,0.3125,0.125,0.0625
1589543624.520894,1.76,-3.74,8.75,0.31555555555555553,0.5022222222222222,-0.7144444444444444,0.125,0.0,0.0
1589543624.5289981,1.75,-3.79,8.74,0.3088888888888889,0.49,-0.7288888888888889,-0.3125,-0.0625,0.0625
1589543624.5425005,1.77,-3.76,8.73,0.3088888888888889,0.49,-0.7288888888888889,-0.25,-0.0625,0.0625
1589543624.5487337,1.76,-3.73,8.7,0.3088888888888889,0.49,-0.7288888888888889,0.125,-0.0625,0.1875
1589543624.5630696,1.75,-3.76,8.72,0.3088888888888889,0.49,-0.7288888888888889,0.5,0.125,0.125
1589543624.5713408,1.76,-3.74,8.78,0.3088888888888889,0.49,-0.7288888888888889,0.0625,-0.25,-0.0625
1589543624.579325,1.77,-3.8,8.76,0.2966666666666667,0.49,-0.7411111111111112,-0.1875,0.0,-0.125
1589543624.5893161,1.74,-3.75,8.75,0.2966666666666667,0.49,-0.7411111111111112,-0.3125,-0.125,0.0
1589543624.5987642,1.74,-3.75,8.69,0.2966666666666667,0.49,-0.7411111111111112,0.3125,0.25,0.0
1589543624.6088483,1.75,-3.73,8.75,0.2966666666666667,0.49,-0.7411111111111112,0.375,0.125,0.0625
1589543624.6217895,1.73,-3.76,8.8,0.2966666666666667,0.49,-0.7411111111111112,0.125,0.0625,0.0
1589543624.6290061,1.76,-3.74,8.76,0.2966666666666667,0.5022222222222222,-0.7333333333333333,-0.25,-0.125,-0.0625
1589543624.6402216,1.77,-3.76,8.79,0.2966666666666667,0.5022222222222222,-0.7333333333333333,-0.375,-0.125,0.125
1589543624.6496954,1.75,-3.73,8.69,0.2966666666666667,0.5022222222222222,-0.7333333333333333,-0.0625,0.0625,0.0625
1589543624.6609616,1.74,-3.73,8.75,0.2966666666666667,0.5022222222222222,-0.7333333333333333,0.375,-0.125,0.0625
1589543624.6722286,1.74,-3.74,8.78,0.2966666666666667,0.5022222222222222,-0.7333333333333333,0.125,0.0,-0.0625
1589543624.6797414,1.77,-3.74,8.79,0.28444444444444444,0.5022222222222222,-0.7288888888888889,-0.25,-0.0625,0.0
1589543624.689319,1.76,-3.77,8.73,0.28444444444444444,0.5022222222222222,-0.7288888888888889,-0.0625,0.0625,0.0
1589543624.700225,1.76,-3.75,8.67,0.28444444444444444,0.5022222222222222,-0.7288888888888889,0.1875,0.25,0.0
1589543624.7141945,1.74,-3.74,8.7,0.28444444444444444,0.5022222222222222,-0.7288888888888889,0.25,0.0625,0.0
1589543624.7223446,1.76,-3.75,8.79,0.28444444444444444,0.5022222222222222,-0.7288888888888889,0.0,0.0,0.0
1589543624.7335668,1.75,-3.73,8.78,0.2966666666666667,0.5022222222222222,-0.7144444444444444,-0.25,0.125,0.0625
1589543624.739752,1.75,-3.76,8.78,0.2966666666666667,0.5022222222222222,-0.7144444444444444,-0.1875,-0.125,0.0
1589543624.7534401,1.77,-3.77,8.69,0.2966666666666667,0.5022222222222222,-0.7144444444444444,0.125,-0.25,0.0
1589543624.7599022,1.75,-3.75,8.78,0.2966666666666667,0.5022222222222222,-0.7144444444444444,0.375,0.125,0.0
1589543624.7725813,1.77,-3.73,8.79,0.2966666666666667,0.5022222222222222,-0.7144444444444444,0.0625,0.125,0.0625
1589543624.7803047,1.76,-3.75,8.79,0.2966666666666667,0.5022222222222222,-0.7333333333333333,-0.25,0.0,0.0625
1589543624.7917335,1.74,-3.76,8.72,0.2966666666666667,0.5022222222222222,-0.7333333333333333,-0.25,-0.0625,0.125
1589543624.7997055,1.77,-3.77,8.65,0.2966666666666667,0.5022222222222222,-0.7333333333333333,0.125,-0.125,-0.0625
1589543624.8101182,1.74,-3.75,8.72,0.2966666666666667,0.5022222222222222,-0.7333333333333333,0.25,0.1875,-0.0625
1589543624.8227587,1.76,-3.71,8.79,0.2966666666666667,0.5022222222222222,-0.7333333333333333,0.1875,0.1875,0.125
1589543624.834215,1.74,-3.73,8.8,0.3022222222222222,0.49,-0.7288888888888889,-0.125,0.0,0.1875
1589543624.8456328,1.75,-3.75,8.77,0.3022222222222222,0.49,-0.7288888888888889,-0.125,-0.0625,0.0
1589543624.851579,1.76,-3.76,8.69,0.3022222222222222,0.49,-0.7288888888888889,0.0,-0.0625,0.125
1589543624.860319,1.75,-3.74,8.75,0.3022222222222222,0.49,-0.7288888888888889,0.125,-0.1875,0.0
1589543624.8725553,1.76,-3.75,8.79,0.3022222222222222,0.49,-0.7288888888888889,0.0625,-0.0625,0.0625
