time,acc_x,acc_y,acc_z,mag_x,mag_y,mag_z,gyr_x,gyr_y,gyr_z
1589543656.5192144,-0.17,-4.13,8.78,0.4777777777777778,0.27555555555555555,-0.6766666666666666,-0.0625,-0.0625,-3.6875
1589543656.5315404,-0.25,-4.15,8.87,0.4777777777777778,0.27555555555555555,-0.6766666666666666,-0.125,0.0,-4.375
1589543656.5433447,-0.3,-4.14,8.88,0.5166666666666667,0.2677777777777778,-0.6766666666666666,0.0625,0.0,-4.375
1589543656.5537515,-0.29,-4.09,8.82,0.5166666666666667,0.2677777777777778,-0.6766666666666666,0.0,0.0625,-3.75
1589543656.560398,-0.27,-4.17,8.83,0.5166666666666667,0.2677777777777778,-0.6766666666666666,-0.3125,-0.125,-3.0
1589543656.5686812,-0.29,-4.15,8.85,0.5166666666666667,0.2677777777777778,-0.6766666666666666,-0.4375,-0.3125,-2.0625
1589543656.5815685,-0.25,-4.17,8.91,0.5166666666666667,0.2677777777777778,-0.6766666666666666,-0.1875,0.25,-1.0625
1589543656.5887256,-0.2,-4.17,8.93,0.4777777777777778,0.2677777777777778,-0.6844444444444444,-0.4375,0.0,-0.0625
1589543656.6003802,-0.19,-4.17,8.92,0.4777777777777778,0.2677777777777778,-0.6844444444444444,-0.5625,0.125,0.6875
1589543656.6135721,-0.08,-4.09,8.78,0.4777777777777778,0.2677777777777778,-0.6844444444444444,-0.75,-0.0625,1.4375
1589543656.6202981,0.0,-4.0,8.85,0.4777777777777778,0.2677777777777778,-0.6844444444444444,-1.0625,-0.25,1.8125
1589543656.6344225,0.1,-3.99,8.84,0.4777777777777778,0.2677777777777778,-0.6844444444444444,-1.4375,-0.3125,1.3125
1589543656.6402655,0.13,-3.86,8.85,0.4977777777777778,0.2677777777777778,-0.6766666666666666,-1.75,-0.5,0.5625
1589543656.6531696,-0.68,-3.49,8.48,0.4977777777777778,0.2677777777777778,-0.6766666666666666,-2.0625,-1.4375,0.125
1589543656.6598868,-0.24,-3.79,9.09,0.4977777777777778,0.2677777777777778,-0.6766666666666666,-3.25,-3.0625,0.0625
1589543656.671674,-0.34,-3.42,8.52,0.4977777777777778,0.2677777777777778,-0.6766666666666666,-3.8125,-4.375,2.875
1589543656.6808453,-0.32,-3.74,9.24,0.4977777777777778,0.2677777777777778,-0.6766666666666666,-2.0625,-3.8125,3.5
1589543656.6916337,-0.26,-3.63,8.69,0.49,0.26222222222222225,-0.6677777777777778,-3.25,-3.5625,5.875
1589543656.6983867,-0.13,-3.62,8.81,0.49,0.26222222222222225,-0.6677777777777778,-3.4375,-1.875,9.75
1589543656.714026,-0.29,-2.98,9.44,0.49,0.26222222222222225,-0.6677777777777778,-3.1875,-3.75,10.75
1589543656.721146,-0.4,-2.75,8.67,0.49,0.26222222222222225,-0.6677777777777778,1.5,0.5625,13.0625
1589543656.7326546,-0.13,-2.79,8.94,0.49,0.26222222222222225,-0.6677777777777778,1.375,0.1875,18.25
1589543656.7386405,-0.3,-2.88,9.05,0.4633333333333333,0.26222222222222225,-0.6888888888888889,-1.3125,-2.5,22.0625
1589543656.7535007,-0.39,-3.05,8.86,0.4633333333333333,0.26222222222222225,-0.6888888888888889,-0.9375,-2.1875,24.3125
1589543656.764977,-0.38,-3.08,8.65,0.4633333333333333,0.26222222222222225,-0.6888888888888889,0.5625,-0.6875,28.75
1589543656.771108,-0.33,-3.21,8.83,0.4633333333333333,0.26222222222222225,-0.6888888888888889,0.6875,-1.0,33.9375
1589543656.7824073,-0.32,-3.25,8.99,0.4633333333333333,0.26222222222222225,-0.6888888888888889,-0.625,-2.5,38.125
1589543656.7902255,-0.38,-3.26,8.88,0.4633333333333333,0.25555555555555554,-0.6622222222222223,-0.0625,-1.875,41.5625
1589543656.804525,-0.4,-3.35,8.88,0.4633333333333333,0.25555555555555554,-0.6622222222222223,0.8125,-1.4375,45.375
1589543656.8107455,-0.41,-3.33,8.83,0.4633333333333333,0.25555555555555554,-0.6622222222222223,0.0,-2.4375,49.1875
1589543656.820169,-0.48,-3.36,8.78,0.4633333333333333,0.25555555555555554,-0.6622222222222223,0.0625,-2.5625,52.6875
1589543656.832932,-0.49,-3.43,8.91,0.4633333333333333,0.25555555555555554,-0.6622222222222223,0.875,-2.1875,56.75
1589543656.8436365,-0.51,-3.46,9.03,0.5044444444444445,0.23555555555555555,-0.6677777777777778,0.25,-3.0625,60.8125
1589543656.8498194,-0.52,-3.41,8.97,0.5044444444444445,0.23555555555555555,-0.6677777777777778,0.0,-3.25,63.875
1589543656.8641436,-0.54,-3.4,8.76,0.5044444444444445,0.23555555555555555,-0.6677777777777778,0.6875,-2.6875,66.9375
1589543656.871131,-0.55,-3.41,8.87,0.5044444444444445,0.23555555555555555,-0.6677777777777778,0.25,-3.1875,70.1875
1589543656.8825312,-0.6,-3.41,8.91,0.5044444444444445,0.23555555555555555,-0.6677777777777778,0.125,-3.6875,73.0
1589543656.8901439,-0.66,-3.49,8.87,0.4977777777777778,0.2311111111111111,-0.6766666666666666,0.375,-3.375,75.625
1589543656.9016604,-0.73,-3.52,8.87,0.4977777777777778,0.2311111111111111,-0.6766666666666666,0.375,-3.75,78.3125
1589543656.9106786,-0.76,-3.57,8.88,0.4977777777777778,0.2311111111111111,-0.6766666666666666,0.375,-3.75,81.125
1589543656.9209287,-0.71,-3.44,8.78,0.4977777777777778,0.2311111111111111,-0.6766666666666666,0.4375,-3.9375,83.75
1589543656.937744,-0.77,-3.46,9.08,0.4977777777777778,0.2311111111111111,-0.6766666666666666,0.375,-3.875,86.0
1589543656.9430273,-0.79,-3.44,8.78,0.5244444444444445,0.19,-0.6888888888888889,0.875,-3.625,87.3125
1589543656.9512632,-0.83,-3.46,8.98,0.5244444444444445,0.19,-0.6888888888888889,0.875,-3.625,87.3125
1589543656.9626806,-0.87,-3.46,8.91,0.5244444444444445,0.19,-0.6888888888888889,0.5,-3.8125,88.8125
1589543656.9748404,-0.98,-3.4,8.88,0.5244444444444445,0.19,-0.6888888888888889,0.75,-3.875,89.3125
1589543656.982993,-0.98,-3.43,8.88,0.5244444444444445,0.19,-0.6888888888888889,0.5625,-4.125,90.0625
1589543656.9944088,-1.07,-3.44,8.94,0.5488888888888889,0.16333333333333333,-0.7033333333333334,0.3125,-4.375,90.4375
1589543657.0005126,-1.12,-3.36,8.74,0.5488888888888889,0.16333333333333333,-0.7033333333333334,0.75,-3.875,91.5625
1589543657.0156555,-1.11,-3.27,8.89,0.5488888888888889,0.16333333333333333,-0.7033333333333334,0.4375,-4.6875,92.8125
1589543657.0214314,-1.14,-3.35,9.02,0.5488888888888889,0.16333333333333333,-0.7033333333333334,0.5625,-4.25,94.1875
1589543657.0332756,-1.12,-3.26,8.83,0.5488888888888889,0.16333333333333333,-0.7033333333333334,0.75,-3.875,94.75
1589543657.0406618,-1.25,-3.39,9.03,0.5544444444444444,0.13333333333333333,-0.6977777777777778,0.375,-5.1875,95.5625
1589543657.050901,-1.32,-3.36,9.02,0.5544444444444444,0.13333333333333333,-0.6977777777777778,0.5,-4.6875,96.3125
1589543657.060507,-1.31,-3.3,8.8,0.5544444444444444,0.13333333333333333,-0.6977777777777778,0.6875,-4.1875,96.6875
1589543657.0736785,-1.5,-3.42,8.97,0.5544444444444444,0.13333333333333333,-0.6977777777777778,0.1875,-4.8125,97.75
1589543657.0826027,-1.43,-3.23,9.02,0.5544444444444444,0.13333333333333333,-0.6977777777777778,0.5,-4.1875,99.9375
1589543657.0925238,-1.44,-3.15,8.81,0.5544444444444444,0.09222222222222222,-0.7033333333333334,1.3125,-3.875,102.1875
1589543657.100802,-1.44,-3.05,8.9,0.5544444444444444,0.09222222222222222,-0.7033333333333334,0.375,-5.1875,104.4375
1589543657.1104965,-1.55,-3.06,8.84,0.5544444444444444,0.09222222222222222,-0.7033333333333334,0.125,-5.125,107.0625
1589543657.1163044,-1.55,-3.06,8.84,0.5544444444444444,0.09222222222222222,-0.7033333333333334,0.125,-5.125,107.0625
1589543657.1232464,-1.51,-2.98,8.75,0.5544444444444444,0.09222222222222222,-0.7033333333333334,0.5,-5.75,110.0
1589543657.1342607,-1.49,-2.96,9.12,0.5544444444444444,0.09222222222222222,-0.7033333333333334,-0.3125,-7.1875,111.1875
1589543657.1459286,-1.62,-2.9,9.06,0.5611111111111111,0.04777777777777778,-0.7322222222222222,-0.375,-6.1875,113.0
1589543657.152432,-1.77,-2.84,9.1,0.5611111111111111,0.04777777777777778,-0.7322222222222222,0.25,-6.1875,115.8125
1589543657.1658113,-1.66,-2.75,8.97,0.5611111111111111,0.04777777777777778,-0.7322222222222222,1.0625,-5.875,119.8125
1589543657.1713953,-1.65,-2.68,8.8,0.5611111111111111,0.04777777777777778,-0.7322222222222222,0.625,-5.9375,122.9375
1589543657.1856515,-1.54,-2.5,9.11,0.5611111111111111,0.04777777777777778,-0.7322222222222222,0.1875,-6.75,125.0
1589543657.1922176,-1.52,-2.47,8.97,0.5611111111111111,0.006666666666666667,-0.7233333333333334,1.0,-5.9375,125.6875
1589543657.2020268,-1.64,-2.48,9.0,0.5611111111111111,0.006666666666666667,-0.7233333333333334,1.375,-5.5,124.6875
1589543657.211201,-1.69,-2.58,8.92,0.5611111111111111,0.006666666666666667,-0.7233333333333334,0.9375,-5.5625,122.6875
1589543657.2223074,-1.74,-2.41,8.83,0.5611111111111111,0.006666666666666667,-0.7233333333333334,1.5625,-4.375,121.0
1589543657.2339034,-1.75,-2.37,8.93,0.5611111111111111,0.006666666666666667,-0.7233333333333334,1.3125,-4.5625,119.1875
1589543657.2410564,-1.9,-2.35,9.07,0.5455555555555556,-0.057777777777777775,-0.7444444444444445,0.0,-5.5,118.25
1589543657.2467394,-1.9,-2.35,9.07,0.5455555555555556,-0.057777777777777775,-0.7444444444444445,0.0,-5.5,118.25
1589543657.2528768,-1.76,-2.16,8.99,0.5455555555555556,-0.057777777777777775,-0.7444444444444445,0.4375,-5.6875,120.125
1589543657.2647512,-1.69,-2.1,9.08,0.5455555555555556,-0.057777777777777775,-0.7444444444444445,1.4375,-5.5,121.9375
1589543657.27151,-1.69,-2.13,9.01,0.5455555555555556,-0.057777777777777775,-0.7444444444444445,1.0,-4.1875,122.0
1589543657.2834232,-1.77,-2.14,8.49,0.5455555555555556,-0.057777777777777775,-0.7444444444444445,-0.4375,-5.9375,120.75
1589543657.2951574,-1.71,-1.99,9.31,0.54,-0.11666666666666667,-0.78,-0.1875,-7.8125,118.6875
1589543657.3018837,-1.8,-1.89,8.75,0.54,-0.11666666666666667,-0.78,-0.1875,-5.6875,117.75
1589543657.317718,-2.08,-2.15,9.49,0.54,-0.11666666666666667,-0.78,1.3125,-5.4375,118.0
1589543657.323996,-2.05,-2.03,8.44,0.54,-0.11666666666666667,-0.78,3.5,-1.25,117.3125
1589543657.3388913,-2.25,-2.12,9.02,0.54,-0.11666666666666667,-0.78,0.3125,-4.5625,113.8125
1589543657.3455966,-2.41,-2.18,9.28,0.5277777777777778,-0.15555555555555556,-0.78,-0.8125,-6.25,110.75
1589543657.3616815,-2.26,-1.94,9.16,0.5277777777777778,-0.15555555555555556,-0.78,0.1875,-5.75,105.875
1589543657.3762822,-2.35,-1.86,8.76,0.5277777777777778,-0.15555555555555556,-0.78,1.0625,-3.125,102.8125
1589543657.3897705,-2.46,-1.82,8.8,0.5277777777777778,-0.15555555555555556,-0.78,-0.4375,-5.1875,98.6875
1589543657.3959475,-2.33,-1.79,9.26,0.4777777777777778,-0.18777777777777774,-0.8155555555555556,-1.75,-6.375,94.25
1589543657.4020064,-2.15,-1.64,9.11,0.4777777777777778,-0.18777777777777774,-0.8155555555555556,1.0625,-2.9375,90.5625
1589543657.4120224,-2.05,-1.52,8.72,0.4777777777777778,-0.18777777777777774,-0.8155555555555556,2.375,-1.5625,86.8125
1589543657.4175267,-2.05,-1.52,8.72,0.4777777777777778,-0.18777777777777774,-0.8155555555555556,2.375,-1.5625,86.8125
1589543657.424126,-2.23,-1.62,8.94,0.4777777777777778,-0.18777777777777774,-0.8155555555555556,0.0625,-3.125,81.75
1589543657.436336,-2.28,-1.5,8.99,0.4777777777777778,-0.18777777777777774,-0.8155555555555556,0.0625,-2.6875,76.625
1589543657.4423141,-2.03,-1.39,8.95,0.4577777777777778,-0.2288888888888889,-0.8366666666666667,-0.625,-2.8125,71.9375
1589543657.4521725,-2.29,-1.43,9.11,0.4577777777777778,-0.2288888888888889,-0.8366666666666667,-0.4375,-3.25,68.375
1589543657.4576824,-2.29,-1.43,9.11,0.4577777777777778,-0.2288888888888889,-0.8366666666666667,-0.4375,-3.25,68.375
1589543657.469441,-2.49,-1.49,9.12,0.4577777777777778,-0.2288888888888889,-0.8366666666666667,0.1875,-1.9375,65.75
1589543657.4759808,-2.65,-1.47,9.08,0.4577777777777778,-0.2288888888888889,-0.8366666666666667,0.0625,-0.25,65.1875
1589543657.4900322,-2.26,-1.29,8.66,0.4577777777777778,-0.2288888888888889,-0.8366666666666667,1.3125,-0.0625,64.4375
1589543657.4961922,-2.24,-1.25,8.97,0.3977777777777778,-0.27555555555555555,-0.8366666666666667,-0.625,-3.5,60.5
1589543657.5077744,-2.48,-1.3,8.94,0.3977777777777778,-0.27555555555555555,-0.8366666666666667,-0.5625,-0.6875,56.75
1589543657.5140336,-2.61,-1.29,9.13,0.3977777777777778,-0.27555555555555555,-0.8366666666666667,-0.8125,-1.1875,53.5
1589543657.526813,-2.71,-1.25,9.06,0.3977777777777778,-0.27555555555555555,-0.8366666666666667,-0.0625,-0.375,51.875
1589543657.5347688,-2.64,-1.19,8.85,0.3977777777777778,-0.27555555555555555,-0.8366666666666667,0.4375,1.0625,49.75
1589543657.5460472,-2.57,-1.19,9.28,0.37333333333333335,-0.33,-0.8222222222222222,-0.3125,-1.0,46.125
1589543657.5536625,-2.44,-1.13,8.91,0.37333333333333335,-0.33,-0.8222222222222222,0.1875,0.4375,42.3125
1589543657.5636337,-2.68,-1.11,8.94,0.37333333333333335,-0.33,-0.8222222222222222,0.0,0.125,37.625
1589543657.5738106,-2.56,-1.12,9.07,0.37333333333333335,-0.33,-0.8222222222222222,-0.625,-0.4375,33.875
1589543657.586362,-2.53,-1.0,8.88,0.37333333333333335,-0.33,-0.8222222222222222,0.5625,1.0,29.1875
1589543657.593128,-2.54,-0.98,8.64,0.3233333333333333,-0.3588888888888889,-0.83,0.125,1.0625,24.75
1589543657.6042752,-2.67,-1.06,9.31,0.3233333333333333,-0.3588888888888889,-0.83,-1.5625,-2.0,20.125
1589543657.6147795,-2.75,-1.08,9.16,0.3233333333333333,-0.3588888888888889,-0.83,-0.5,-1.0,16.375
1589543657.6262188,-2.71,-1.0,8.93,0.3233333333333333,-0.3588888888888889,-0.83,-0.3125,0.5625,11.8125
1589543657.6407769,-1.93,-0.79,8.52,0.3233333333333333,-0.3588888888888889,-0.83,-0.5625,-0.125,7.375
1589543657.647074,-2.64,-1.03,9.49,0.24,-0.3922222222222223,-0.7733333333333333,-2.5625,-2.6875,1.625
1589543657.6587605,-2.11,-0.91,8.94,0.24,-0.3922222222222223,-0.7733333333333333,-0.375,0.625,-1.8125
1589543657.6645644,-2.32,-0.94,8.88,0.24,-0.3922222222222223,-0.7733333333333333,1.0625,2.25,-6.1875
1589543657.6790767,-2.89,-1.06,9.09,0.24,-0.3922222222222223,-0.7733333333333333,-0.125,1.1875,-10.75
1589543657.6853194,-2.11,-0.89,8.42,0.24,-0.3922222222222223,-0.7733333333333333,0.0,2.5625,-13.75
1589543657.6973689,-2.47,-1.04,9.23,0.2677777777777778,-0.3888888888888889,-0.7177777777777777,0.0625,-0.1875,-17.75
1589543657.704577,-2.52,-1.1,9.41,0.2677777777777778,-0.3888888888888889,-0.7177777777777777,-2.375,-1.25,-22.125
1589543657.7143002,-2.5,-1.02,8.69,0.2677777777777778,-0.3888888888888889,-0.7177777777777777,-0.5625,0.9375,-25.0625
1589543657.7242856,-2.15,-1.04,9.01,0.2677777777777778,-0.3888888888888889,-0.7177777777777777,-1.1875,-0.8125,-28.25
1589543657.7366266,-2.04,-1.06,9.07,0.2677777777777778,-0.3888888888888889,-0.7177777777777777,-2.1875,0.0625,-32.3125
1589543657.743901,-2.39,-1.1,9.43,0.3333333333333333,-0.3655555555555556,-0.6966666666666667,1.0625,2.25,-36.0
1589543657.754592,-2.34,-1.13,8.83,0.3333333333333333,-0.3655555555555556,-0.6966666666666667,1.3125,4.125,-38.625
1589543657.7638922,-2.6,-1.23,9.06,0.3333333333333333,-0.3655555555555556,-0.6966666666666667,-0.875,2.5625,-42.375
1589543657.7738063,-2.56,-1.16,8.65,0.3333333333333333,-0.3655555555555556,-0.6966666666666667,-0.5625,1.5,-44.75
1589543657.7892175,-2.9,-1.39,9.74,0.3333333333333333,-0.3655555555555556,-0.6966666666666667,-1.0,0.375,-46.625
1589543657.7946448,-2.27,-1.25,9.36,0.36,-0.34444444444444444,-0.6966666666666667,-0.125,1.625,-47.625
1589543657.8047268,-2.11,-1.23,9.64,0.36,-0.34444444444444444,-0.6966666666666667,-3.1875,-2.25,-52.0625
1589543657.8168812,-2.43,-1.25,8.54,0.36,-0.34444444444444444,-0.6966666666666667,1.0625,3.5625,-54.5625
1589543657.8295975,-2.64,-1.4,9.24,0.36,-0.34444444444444444,-0.6966666666666667,0.375,2.25,-57.1875
1589543657.8360186,-2.86,-1.48,9.07,0.36,-0.34444444444444444,-0.6966666666666667,0.8125,3.6875,-56.875
1589543657.8487215,-2.15,-0.83,8.61,0.4133333333333333,-0.31777777777777777,-0.6877777777777778,0.4375,2.625,-57.0625
1589543657.854814,-1.3,-1.05,8.68,0.4133333333333333,-0.31777777777777777,-0.6877777777777778,-2.0625,-1.0,-63.25
1589543657.8654132,-1.17,-1.35,9.03,0.4133333333333333,-0.31777777777777777,-0.6877777777777778,-2.75,-1.5,-80.25
1589543657.8742304,-1.21,-1.32,8.3,0.4133333333333333,-0.31777777777777777,-0.6877777777777778,3.0625,8.375,-99.1875
1589543657.8866045,-1.28,-1.53,9.11,0.4133333333333333,-0.31777777777777777,-0.6877777777777778,-0.8125,4.25,-121.3125
1589543657.8939257,-1.0,-1.83,9.32,0.43333333333333335,-0.2888888888888889,-0.7022222222222222,-4.25,2.375,-146.6875
1589543657.9087806,-0.43,-2.25,9.37,0.43333333333333335,-0.2888888888888889,-0.7022222222222222,-2.25,6.625,-172.25
1589543657.9144812,-0.93,-2.51,9.52,0.43333333333333335,-0.2888888888888889,-0.7022222222222222,-0.125,9.0625,-194.0
1589543657.924616,-0.56,-2.15,7.72,0.43333333333333335,-0.2888888888888889,-0.7022222222222222,4.0625,18.0625,-211.875
1589543657.9378912,-2.04,-3.0,10.19,0.43333333333333335,-0.2888888888888889,-0.7022222222222222,-2.5625,9.1875,-235.8125
1589543657.9491336,-1.9,-2.84,8.11,0.48,-0.24444444444444444,-0.7177777777777777,-3.3125,9.625,-244.5625
1589543657.9559689,-2.03,-3.03,8.72,0.48,-0.24444444444444444,-0.7177777777777777,-0.75,10.8125,-243.4375
1589543657.965611,-1.82,-3.04,9.43,0.48,-0.24444444444444444,-0.7177777777777777,-5.0,4.625,-244.625
1589543657.9747536,-1.81,-3.33,8.86,0.48,-0.24444444444444444,-0.7177777777777777,-2.0625,10.3125,-242.125
1589543657.9866874,-1.7,-3.22,8.12,0.48,-0.24444444444444444,-0.7177777777777777,1.5625,14.6875,-235.875
1589543657.9951146,-1.85,-3.57,9.79,0.5333333333333333,-0.19333333333333333,-0.7022222222222222,-1.875,8.4375,-234.375
1589543658.0061257,-1.47,-3.3,8.97,0.5333333333333333,-0.19333333333333333,-0.7022222222222222,-1.8125,11.25,-233.0
1589543658.0210078,-1.66,-3.48,9.06,0.5333333333333333,-0.19333333333333333,-0.7022222222222222,-0.5625,11.0625,-230.75
1589543658.027038,-1.74,-3.63,9.09,0.5333333333333333,-0.19333333333333333,-0.7022222222222222,-3.0625,7.875,-226.6875
1589543658.0399172,-1.56,-3.39,8.9,0.5333333333333333,-0.19333333333333333,-0.7022222222222222,-2.1875,10.75,-222.0625
1589543658.0454652,-1.91,-3.86,8.78,0.5822222222222222,-0.16666666666666666,-0.6822222222222222,0.4375,11.0625,-215.625
1589543658.0594447,-1.9,-3.78,9.06,0.5822222222222222,-0.16666666666666666,-0.6822222222222222,-2.625,7.625,-207.625
1589543658.0658195,-1.99,-3.86,9.5,0.5822222222222222,-0.16666666666666666,-0.6822222222222222,-3.5,6.5,-196.625
1589543658.0754778,-1.99,-3.84,8.4,0.5822222222222222,-0.16666666666666666,-0.6822222222222222,0.5625,11.875,-180.3125
1589543658.0874162,-2.07,-4.34,9.17,0.5822222222222222,-0.16666666666666666,-0.6822222222222222,0.25,7.875,-164.4375
1589543658.0994165,-1.83,-4.03,9.23,0.8688888888888889,-0.5555555555555556,-0.3288888888888889,-4.8125,1.875,-150.125
1589543658.1063154,-1.69,-4.01,9.14,0.8688888888888889,-0.5555555555555556,-0.3288888888888889,-2.125,4.625,-136.1875
1589543658.1168664,-1.43,-4.17,8.33,0.8688888888888889,-0.5555555555555556,-0.3288888888888889,0.875,7.5625,-124.1875
1589543658.1256895,-1.28,-4.22,8.47,0.8688888888888889,-0.5555555555555556,-0.3288888888888889,0.6875,7.5625,-113.5
1589543658.1377401,-1.09,-4.11,9.64,0.8688888888888889,-0.5555555555555556,-0.3288888888888889,-2.25,1.75,-102.75
1589543658.144849,-1.14,-4.22,9.03,1.2633333333333334,0.21666666666666667,-0.5188888888888888,0.3125,5.375,-93.1875
1589543658.1554215,-1.14,-4.22,9.03,1.2633333333333334,0.21666666666666667,-0.5188888888888888,0.3125,5.375,-93.1875
1589543658.1608415,-1.09,-4.2,9.52,1.2633333333333334,0.21666666666666667,-0.5188888888888888,2.0,6.75,-84.125
1589543658.1678526,-1.07,-3.99,9.0,1.2633333333333334,0.21666666666666667,-0.5188888888888888,-3.125,1.3125,-78.25
1589543658.1795547,-0.88,-3.59,7.54,1.2633333333333334,0.21666666666666667,-0.5188888888888888,1.1875,6.125,-69.8125
1589543658.1923034,-0.75,-3.69,9.49,1.2633333333333334,0.21666666666666667,-0.5188888888888888,-0.5,-2.25,-63.9375
1589543658.1986392,-0.82,-3.71,8.72,0.6755555555555556,0.17555555555555555,-0.7177777777777777,-3.0625,-1.625,-58.1875
1589543658.2115257,-0.85,-4.29,8.87,0.6755555555555556,0.17555555555555555,-0.7177777777777777,0.0625,2.625,-51.5
1589543658.2175946,-0.75,-4.06,9.19,0.6755555555555556,0.17555555555555555,-0.7177777777777777,-0.0625,1.3125,-47.1875
1589543658.23191,-0.41,-3.18,8.59,0.6755555555555556,0.17555555555555555,-0.7177777777777777,-0.875,2.625,-44.625
1589543658.238412,-0.53,-3.51,8.93,0.6755555555555556,0.17555555555555555,-0.7177777777777777,0.375,0.375,-41.5
1589543658.249316,-0.48,-3.25,9.21,0.5433333333333333,0.19333333333333333,-0.7466666666666667,-2.5625,-2.0625,-40.1875
1589543658.2567198,-0.42,-3.24,9.25,0.5433333333333333,0.19333333333333333,-0.7466666666666667,-0.9375,0.125,-37.75
1589543658.2667794,-0.3,-3.13,8.65,0.5433333333333333,0.19333333333333333,-0.7466666666666667,1.5625,3.5,-35.5625
1589543658.2784796,-0.29,-3.24,8.77,0.5433333333333333,0.19333333333333333,-0.7466666666666667,-0.125,1.0625,-35.1875
1589543658.2900748,-0.29,-3.38,9.4,0.5433333333333333,0.19333333333333333,-0.7466666666666667,-1.1875,-0.75,-35.4375
1589543658.295913,-0.3,-3.35,8.56,0.5222222222222223,0.2255555555555556,-0.7588888888888888,0.625,2.6875,-34.4375
1589543658.3067312,-0.24,-3.31,9.09,0.5222222222222223,0.2255555555555556,-0.7588888888888888,-0.3125,1.125,-34.0
1589543658.3172734,-0.18,-3.3,9.13,0.5222222222222223,0.2255555555555556,-0.7588888888888888,-1.625,-1.3125,-33.4375
1589543658.3299005,-0.19,-3.24,8.43,0.5222222222222223,0.2255555555555556,-0.7588888888888888,0.625,2.5625,-32.625
1589543658.3410554,-0.27,-3.39,9.22,0.5222222222222223,0.2255555555555556,-0.7588888888888888,-0.0625,0.0,-32.4375
1589543658.3472571,-0.24,-3.2,8.74,0.5255555555555556,0.2311111111111111,-0.7677777777777778,-1.0,-0.375,-31.8125
1589543658.3625836,-0.31,-3.4,8.92,0.5255555555555556,0.2311111111111111,-0.7677777777777778,0.4375,1.25,-30.625
1589543658.3686993,-0.48,-3.62,8.73,0.5255555555555556,0.2311111111111111,-0.7677777777777778,-0.75,0.0,-28.8125
1589543658.3821476,-0.34,-3.6,9.18,0.5255555555555556,0.2311111111111111,-0.7677777777777778,0.125,1.25,-24.8125
1589543658.3888195,-0.73,-3.97,8.72,0.5255555555555556,0.2311111111111111,-0.7677777777777778,0.9375,1.125,-19.5625
1589543658.398356,-0.2,-3.12,8.51,0.4888888888888889,0.22666666666666666,-0.7588888888888888,1.0,1.5,-12.4375
1589543658.407166,-21.46,-29.04,1.49,0.4888888888888889,0.22666666666666666,-0.7588888888888888,-0.0625,-1.75,-6.0
1589543658.4209592,3.84,6.58,3.45,0.4888888888888889,0.22666666666666666,-0.7588888888888888,-47.875,33.875,-128.3125
1589543658.4271224,-17.26,-21.19,10.06,0.4888888888888889,0.22666666666666666,-0.7588888888888888,-215.625,-115.1875,-694.4375
1589543658.4392655,-3.29,-1.34,16.33,0.4888888888888889,0.22666666666666666,-0.7588888888888888,-149.6875,74.0625,-552.75
1589543658.4467535,0.75,-1.9,11.15,0.4755555555555556,0.2766666666666667,-0.7111111111111111,-150.625,131.375,-331.5
1589543658.457327,0.55,-1.65,6.86,0.4755555555555556,0.2766666666666667,-0.7111111111111111,-36.1875,1.0625,-288.5625
1589543658.4673033,-1.32,-2.03,10.45,0.4755555555555556,0.2766666666666667,-0.7111111111111111,34.8125,54.625,-261.125
1589543658.4786325,1.85,-7.11,8.17,0.4755555555555556,0.2766666666666667,-0.7111111111111111,110.875,43.875,-237.0625
1589543658.4892814,0.06,-1.03,13.06,0.4755555555555556,0.2766666666666667,-0.7111111111111111,166.6875,25.6875,-194.8125
1589543658.5003276,-1.31,6.44,7.02,0.3333333333333333,0.4833333333333333,-0.6822222222222222,217.75,37.3125,-157.3125
1589543658.51275,1.0,0.31,3.47,0.3333333333333333,0.4833333333333333,-0.6822222222222222,53.8125,40.6875,-96.5625
1589543658.5187142,4.77,-6.94,8.27,0.3333333333333333,0.4833333333333333,-0.6822222222222222,-72.875,-42.9375,-61.1875
1589543658.5328894,5.5,-6.18,7.81,0.3333333333333333,0.4833333333333333,-0.6822222222222222,16.5625,6.4375,-69.0
1589543658.5393965,1.2,0.78,8.03,0.3333333333333333,0.4833333333333333,-0.6822222222222222,20.5,20.125,-58.5
1589543658.5486276,3.58,-4.52,8.8,0.27555555555555555,0.4744444444444445,-0.7111111111111111,-4.9375,0.125,-38.1875
1589543658.5574071,1.54,-3.51,8.94,0.27555555555555555,0.4744444444444445,-0.7111111111111111,-4.0,-0.9375,-16.4375
1589543658.571715,1.61,-3.7,8.83,0.27555555555555555,0.4744444444444445,-0.7111111111111111,1.625,1.3125,-0.5
1589543658.57741,1.81,-3.85,8.82,0.27555555555555555,0.4744444444444445,-0.7111111111111111,0.9375,0.25,3.125
1589543658.5898945,1.77,-3.9,8.58,0.27555555555555555,0.4744444444444445,-0.7111111111111111,-0.5625,-0.1875,2.5
1589543658.5983913,1.72,-4.0,8.83,0.2766666666666667,0.48,-0.7377777777777778,-0.75,0.0,1.5
1589543658.6077607,1.71,-3.83,8.77,0.2766666666666667,0.48,-0.7377777777777778,0.1875,-0.0625,0.3125
1589543658.6133788,1.71,-3.83,8.77,0.2766666666666667,0.48,-0.7377777777777778,0.1875,-0.0625,0.3125
1589543658.619935,1.71,-3.74,8.79,0.2766666666666667,0.48,-0.7377777777777778,0.75,0.25,0.0
1589543658.6309512,1.72,-3.86,8.69,0.2766666666666667,0.48,-0.7377777777777778,0.875,0.0,0.0
1589543658.6420152,1.73,-3.92,8.82,0.2766666666666667,0.48,-0.7377777777777778,-1.125,-0.0625,0.0
1589543658.6534204,1.74,-3.9,8.71,0.27,0.4833333333333333,-0.7177777777777777,-0.4375,-0.1875,0.0
1589543658.6653788,1.72,-3.81,8.75,0.27,0.4833333333333333,-0.7177777777777777,0.9375,-0.0625,-0.0625
1589543658.6714046,1.71,-3.83,8.74,0.27,0.4833333333333333,-0.7177777777777777,0.5,0.0,-0.125
1589543658.6849172,1.68,-3.82,8.85,0.27,0.4833333333333333,-0.7177777777777777,-0.1875,-0.25,-0.125
1589543658.6925266,1.72,-3.98,8.82,0.27,0.4833333333333333,-0.7177777777777777,-1.1875,-0.25,0.0625
1589543658.7133648,1.74,-3.9,8.75,0.28444444444444444,0.4755555555555556,-0.7233333333333334,0.25,0.25,0.0625
1589543658.7200718,1.71,-3.86,8.82,0.28444444444444444,0.4755555555555556,-0.7233333333333334,0.8125,0.25,-0.0625
1589543658.729928,1.7,-3.85,8.86,0.28444444444444444,0.4755555555555556,-0.7233333333333334,-0.25,0.0625,-0.125
1589543658.7415252,1.73,-3.82,8.74,0.28444444444444444,0.4755555555555556,-0.7233333333333334,-0.8125,-0.4375,-0.1875
1589543658.7501342,1.72,-3.93,8.73,0.2766666666666667,0.4755555555555556,-0.7233333333333334,-0.75,-0.4375,0.0625
1589543658.7604926,1.73,-3.91,8.81,0.2766666666666667,0.4755555555555556,-0.7233333333333334,0.4375,-0.1875,-0.0625
1589543658.7694366,1.69,-3.88,8.77,0.2766666666666667,0.4755555555555556,-0.7233333333333334,0.625,0.1875,0.0
1589543658.7795804,1.73,-3.81,8.79,0.2766666666666667,0.4755555555555556,-0.7233333333333334,0.25,0.125,0.0625
1589543658.79295,1.7,-3.84,8.83,0.2766666666666667,0.4755555555555556,-0.7233333333333334,-0.75,-0.25,-0.1875
1589543658.8044572,1.72,-3.94,8.73,0.2766666666666667,0.49,-0.7444444444444445,-0.6875,-0.375,-0.125
1589543658.8138087,1.73,-3.92,8.74,0.2766666666666667,0.49,-0.7444444444444445,0.0,-0.125,0.0625
1589543658.8206415,1.75,-3.83,8.7,0.2766666666666667,0.49,-0.7444444444444445,0.625,0.125,0.0
1589543658.8301096,1.69,-3.88,8.81,0.2766666666666667,0.49,-0.7444444444444445,0.375,0.0,0.0
1589543658.8424695,1.72,-3.88,8.8,0.2766666666666667,0.49,-0.7444444444444445,-0.5625,-0.3125,0.0
1589543658.850394,1.73,-3.92,8.77,0.2911111111111111,0.4755555555555556,-0.7233333333333334,-0.8125,-0.25,-0.1875
1589543658.8618026,1.72,-3.91,8.72,0.2911111111111111,0.4755555555555556,-0.7233333333333334,-0.1875,-0.1875,0.0625
1589543658.8747287,1.7,-3.84,8.72,0.2911111111111111,0.4755555555555556,-0.7233333333333334,0.4375,0.0,-0.0625
1589543658.8808458,1.71,-3.83,8.83,0.2911111111111111,0.4755555555555556,-0.7233333333333334,0.3125,0.0,-0.1875
1589543658.893195,1.71,-3.86,8.87,0.2911111111111111,0.4755555555555556,-0.7233333333333334,-0.3125,-0.25,0.0625
1589543658.900245,1.72,-3.86,8.79,0.2766666666666667,0.4955555555555556,-0.7322222222222222,-0.8125,-0.3125,0.0
1589543658.9154494,1.74,-3.9,8.73,0.2766666666666667,0.4955555555555556,-0.7322222222222222,-0.3125,0.0,0.0
1589543658.9221506,1.71,-3.88,8.68,0.2766666666666667,0.4955555555555556,-0.7322222222222222,0.3125,0.3125,-0.125
1589543658.9330876,1.71,-3.85,8.78,0.2766666666666667,0.4955555555555556,-0.7322222222222222,0.625,0.125,0.0
1589543658.942492,1.71,-3.84,8.83,0.2766666666666667,0.4955555555555556,-0.7322222222222222,-0.1875,-0.0625,0.125
1589543658.953642,1.73,-3.89,8.81,0.28444444444444444,0.49,-0.7377777777777778,-0.625,-0.25,0.125
1589543658.9601762,1.75,-3.91,8.75,0.28444444444444444,0.49,-0.7377777777777778,-0.6875,-0.375,0.0
1589543658.9704466,1.74,-3.89,8.68,0.28444444444444444,0.49,-0.7377777777777778,0.125,0.0,0.0625
1589543658.9810755,1.71,-3.85,8.81,0.28444444444444444,0.49,-0.7377777777777778,0.25,0.0625,-0.0625
